"trial_type","trial_index","time_elapsed","internal_node_id","rt","url","response","question_order","view_history","success","timeout","failed_images","failed_audio","failed_video","stimulus","block","trial_number","jar","bead","previous_bead","choice","correct","state","rewarded","state1_action","state2_visited","state1_key","state2_key","state1_rt","state2_rt"
"pavlovia","0","740","0.0-0.0","","","","","","","","","","","","","","","","","","","","","","","","","",""
"external-html","1","131043","0.0-1.0-0.0","130187","consent.html","","","","","","","","","","","","","","","","","","","","","","","",""
"survey-multi-choice","2","137918","0.0-1.0-1.0","6870","","{""Q0"":""Male"",""Q1"":""White""}","[0,1]","","","","","","","","","","","","","","","","","","","","","",""
"survey-text","3","141231","0.0-1.0-2.0","3311","","{""Q0"":""27""}","","","","","","","","","","","","","","","","","","","","","","",""
"survey-text","4","145273","0.0-1.0-3.0","3924","","{""Q0"":""8247""}","","","","","","","","","","","","","","","","","","","","","","",""
"instructions","5","155959","0.0-2.0","10573","","","","[{""page_index"":0,""viewing_time"":9300},{""page_index"":1,""viewing_time"":1273}]","","","","","","","","","","","","","","","","","","","","",""
"instructions","6","157358","0.0-3.0","1397","","","","[{""page_index"":0,""viewing_time"":1397}]","","","","","","","","","","","","","","","","","","","","",""
"preload","7","158540","0.0-4.0-0.0","","","","","","true","false","[]","[]","[]","","","","","","","","","","","","","","","",""
"instructions","8","233818","0.0-4.0-1.0","75279","","","","[{""page_index"":0,""viewing_time"":13709},{""page_index"":1,""viewing_time"":7950},{""page_index"":2,""viewing_time"":3771},{""page_index"":3,""viewing_time"":1784},{""page_index"":4,""viewing_time"":4002},{""page_index"":5,""viewing_time"":18847},{""page_index"":6,""viewing_time"":4511},{""page_index"":7,""viewing_time"":5379},{""page_index"":8,""viewing_time"":4207},{""page_index"":9,""viewing_time"":4263},{""page_index"":10,""viewing_time"":5899},{""page_index"":11,""viewing_time"":957}]","","","","","","","","","","","","","","","","","","","","",""
"html-button-response","9","235781","0.0-4.0-2.0-0.0-0.0","1963","","0","","","","","","","","<div align=center>Your goal is to predict…?<br><br></div>","","","","","","","","","","","","","","",""
"html-button-response","10","239378","0.0-4.0-2.0-0.1-0.1","2391","","1","","","","","","","","<div align=center>Your goal is to predict…?<br><br></div>","","","","","","","","","","","","","","",""
"html-button-response","11","243422","0.0-4.0-2.0-1.0-0.0","2653","","2","","","","","","","","<div align=center>In the jar with mostly white beads, there are ___% white beads and ___% black beads?<br><br></div>","","","","","","","","","","","","","","",""
"html-button-response","12","249228","0.0-4.0-2.0-2.0-0.0","4830","","0","","","","","","","","<div align=center>When there is a 1% probability that the jars will switch, the next bead will most likely be drawn from the…<br><br></div>","","","","","","","","","","","","","","",""
"html-button-response","13","252230","0.0-4.0-2.0-3.0-0.0","1982","","1","","","","","","","","<div align=center>When there is a 99% probability that the jars will switch, the next bead will most likely be drawn from the…<br><br></div>","","","","","","","","","","","","","","",""
"instructions","14","267818","0.0-4.0-3.0","14822","","","","[{""page_index"":0,""viewing_time"":14822}]","","","","","","","","","","","","","","","","","","","","",""
"html-keyboard-response","15","272493","0.0-4.0-4.0-0.0","4673",""," ","","","","","","","","<div align=center>In this practice block, there will be a <b>10% chance</b> that the jar on the next trial will be different from the jar on the current trial.<br><br></div>","","","","","","","","","","","","","","",""
"image-keyboard-response","16","274290","0.0-4.0-4.0-1.0-0.0","1794","","f","","","","","","","","./tasks/HMM-beads/Images/NoChoice.png","practice","0","1","1","0","1","true","","","","","","","",""
"image-keyboard-response","17","274596","0.0-4.0-4.0-1.0-1.0","null","","null","","","","","","","","./tasks/HMM-beads/Images/BlackBeadChoice.png","","","","","","","","","","","","","","",""
"image-keyboard-response","18","275109","0.0-4.0-4.0-1.0-2.0","null","","null","","","","","","","","./tasks/HMM-beads/Images/BlackBeadChoiceCorrect.png","","","","","","","","","","","","","","",""
"image-keyboard-response","19","276139","0.0-4.0-4.0-1.0-0.1","1027","","f","","","","","","","","./tasks/HMM-beads/Images/NewTrialBC.png","practice","1","1","1","1","1","true","","","","","","","",""
"image-keyboard-response","20","276447","0.0-4.0-4.0-1.0-1.1","null","","null","","","","","","","","./tasks/HMM-beads/Images/BlackBeadChoice.png","","","","","","","","","","","","","","",""
"image-keyboard-response","21","276960","0.0-4.0-4.0-1.0-2.1","null","","null","","","","","","","","./tasks/HMM-beads/Images/BlackBeadChoiceCorrect.png","","","","","","","","","","","","","","",""
"image-keyboard-response","22","277780","0.0-4.0-4.0-1.0-0.2","818","","f","","","","","","","","./tasks/HMM-beads/Images/NewTrialBC.png","practice","2","1","2","1","1","false","","","","","","","",""
"image-keyboard-response","23","278095","0.0-4.0-4.0-1.0-1.2","null","","null","","","","","","","","./tasks/HMM-beads/Images/BlackBeadChoice.png","","","","","","","","","","","","","","",""
"image-keyboard-response","24","278611","0.0-4.0-4.0-1.0-2.2","null","","null","","","","","","","","./tasks/HMM-beads/Images/BlackBeadChoiceWrong.png","","","","","","","","","","","","","","",""
"image-keyboard-response","25","279460","0.0-4.0-4.0-1.0-0.3","845","","f","","","","","","","","./tasks/HMM-beads/Images/NewTrialWC.png","practice","3","1","1","2","1","true","","","","","","","",""
"image-keyboard-response","26","279766","0.0-4.0-4.0-1.0-1.3","null","","null","","","","","","","","./tasks/HMM-beads/Images/BlackBeadChoice.png","","","","","","","","","","","","","","",""
"image-keyboard-response","27","280279","0.0-4.0-4.0-1.0-2.3","null","","null","","","","","","","","./tasks/HMM-beads/Images/BlackBeadChoiceCorrect.png","","","","","","","","","","","","","","",""
"image-keyboard-response","28","281001","0.0-4.0-4.0-1.0-0.4","721","","f","","","","","","","","./tasks/HMM-beads/Images/NewTrialBC.png","practice","4","1","2","1","1","false","","","","","","","",""
"image-keyboard-response","29","281307","0.0-4.0-4.0-1.0-1.4","null","","null","","","","","","","","./tasks/HMM-beads/Images/BlackBeadChoice.png","","","","","","","","","","","","","","",""
"image-keyboard-response","30","281821","0.0-4.0-4.0-1.0-2.4","null","","null","","","","","","","","./tasks/HMM-beads/Images/BlackBeadChoiceWrong.png","","","","","","","","","","","","","","",""
"image-keyboard-response","31","282588","0.0-4.0-4.0-1.0-0.5","767","","f","","","","","","","","./tasks/HMM-beads/Images/NewTrialWC.png","practice","5","1","1","2","1","true","","","","","","","",""
"image-keyboard-response","32","282897","0.0-4.0-4.0-1.0-1.5","null","","null","","","","","","","","./tasks/HMM-beads/Images/BlackBeadChoice.png","","","","","","","","","","","","","","",""
"image-keyboard-response","33","283398","0.0-4.0-4.0-1.0-2.5","null","","null","","","","","","","","./tasks/HMM-beads/Images/BlackBeadChoiceCorrect.png","","","","","","","","","","","","","","",""
"image-keyboard-response","34","284161","0.0-4.0-4.0-1.0-0.6","763","","f","","","","","","","","./tasks/HMM-beads/Images/NewTrialBC.png","practice","6","1","2","1","1","false","","","","","","","",""
"image-keyboard-response","35","284470","0.0-4.0-4.0-1.0-1.6","null","","null","","","","","","","","./tasks/HMM-beads/Images/BlackBeadChoice.png","","","","","","","","","","","","","","",""
"image-keyboard-response","36","284983","0.0-4.0-4.0-1.0-2.6","null","","null","","","","","","","","./tasks/HMM-beads/Images/BlackBeadChoiceWrong.png","","","","","","","","","","","","","","",""
"image-keyboard-response","37","285708","0.0-4.0-4.0-1.0-0.7","723","","f","","","","","","","","./tasks/HMM-beads/Images/NewTrialWC.png","practice","7","1","1","2","1","true","","","","","","","",""
"image-keyboard-response","38","286009","0.0-4.0-4.0-1.0-1.7","null","","null","","","","","","","","./tasks/HMM-beads/Images/BlackBeadChoice.png","","","","","","","","","","","","","","",""
"image-keyboard-response","39","286511","0.0-4.0-4.0-1.0-2.7","null","","null","","","","","","","","./tasks/HMM-beads/Images/BlackBeadChoiceCorrect.png","","","","","","","","","","","","","","",""
"image-keyboard-response","40","287245","0.0-4.0-4.0-1.0-0.8","733","","f","","","","","","","","./tasks/HMM-beads/Images/NewTrialBC.png","practice","8","1","1","1","1","true","","","","","","","",""
"image-keyboard-response","41","287552","0.0-4.0-4.0-1.0-1.8","null","","null","","","","","","","","./tasks/HMM-beads/Images/BlackBeadChoice.png","","","","","","","","","","","","","","",""
"image-keyboard-response","42","288064","0.0-4.0-4.0-1.0-2.8","null","","null","","","","","","","","./tasks/HMM-beads/Images/BlackBeadChoiceCorrect.png","","","","","","","","","","","","","","",""
"image-keyboard-response","43","288822","0.0-4.0-4.0-1.0-0.9","757","","f","","","","","","","","./tasks/HMM-beads/Images/NewTrialBC.png","practice","9","2","2","1","1","false","","","","","","","",""
"image-keyboard-response","44","289126","0.0-4.0-4.0-1.0-1.9","null","","null","","","","","","","","./tasks/HMM-beads/Images/BlackBeadChoice.png","","","","","","","","","","","","","","",""
"image-keyboard-response","45","289641","0.0-4.0-4.0-1.0-2.9","null","","null","","","","","","","","./tasks/HMM-beads/Images/BlackBeadChoiceWrong.png","","","","","","","","","","","","","","",""
"image-keyboard-response","46","290279","0.0-4.0-4.0-1.0-0.10","637","","f","","","","","","","","./tasks/HMM-beads/Images/NewTrialWC.png","practice","10","2","1","2","1","true","","","","","","","",""
"image-keyboard-response","47","290587","0.0-4.0-4.0-1.0-1.10","null","","null","","","","","","","","./tasks/HMM-beads/Images/BlackBeadChoice.png","","","","","","","","","","","","","","",""
"image-keyboard-response","48","291102","0.0-4.0-4.0-1.0-2.10","null","","null","","","","","","","","./tasks/HMM-beads/Images/BlackBeadChoiceCorrect.png","","","","","","","","","","","","","","",""
"image-keyboard-response","49","291828","0.0-4.0-4.0-1.0-0.11","724","","f","","","","","","","","./tasks/HMM-beads/Images/NewTrialBC.png","practice","11","2","2","1","1","false","","","","","","","",""
"image-keyboard-response","50","292144","0.0-4.0-4.0-1.0-1.11","null","","null","","","","","","","","./tasks/HMM-beads/Images/BlackBeadChoice.png","","","","","","","","","","","","","","",""
"image-keyboard-response","51","292658","0.0-4.0-4.0-1.0-2.11","null","","null","","","","","","","","./tasks/HMM-beads/Images/BlackBeadChoiceWrong.png","","","","","","","","","","","","","","",""
"image-keyboard-response","52","293406","0.0-4.0-4.0-1.0-0.12","747","","f","","","","","","","","./tasks/HMM-beads/Images/NewTrialWC.png","practice","12","2","2","2","1","false","","","","","","","",""
"image-keyboard-response","53","293715","0.0-4.0-4.0-1.0-1.12","null","","null","","","","","","","","./tasks/HMM-beads/Images/BlackBeadChoice.png","","","","","","","","","","","","","","",""
"image-keyboard-response","54","294227","0.0-4.0-4.0-1.0-2.12","null","","null","","","","","","","","./tasks/HMM-beads/Images/BlackBeadChoiceWrong.png","","","","","","","","","","","","","","",""
"image-keyboard-response","55","294946","0.0-4.0-4.0-1.0-0.13","716","","j","","","","","","","","./tasks/HMM-beads/Images/NewTrialWC.png","practice","13","2","2","2","2","true","","","","","","","",""
"image-keyboard-response","56","295256","0.0-4.0-4.0-1.0-1.13","null","","null","","","","","","","","./tasks/HMM-beads/Images/WhiteBeadChoice.png","","","","","","","","","","","","","","",""
"image-keyboard-response","57","295772","0.0-4.0-4.0-1.0-2.13","null","","null","","","","","","","","./tasks/HMM-beads/Images/WhiteBeadChoiceCorrect.png","","","","","","","","","","","","","","",""
"image-keyboard-response","58","296483","0.0-4.0-4.0-1.0-0.14","707","","j","","","","","","","","./tasks/HMM-beads/Images/NewTrialWC.png","practice","14","2","2","2","2","true","","","","","","","",""
"image-keyboard-response","59","296786","0.0-4.0-4.0-1.0-1.14","null","","null","","","","","","","","./tasks/HMM-beads/Images/WhiteBeadChoice.png","","","","","","","","","","","","","","",""
"image-keyboard-response","60","297288","0.0-4.0-4.0-1.0-2.14","null","","null","","","","","","","","./tasks/HMM-beads/Images/WhiteBeadChoiceCorrect.png","","","","","","","","","","","","","","",""
"image-keyboard-response","61","298082","0.0-4.0-4.0-1.0-0.15","792","","j","","","","","","","","./tasks/HMM-beads/Images/NewTrialWC.png","practice","15","1","1","2","2","false","","","","","","","",""
"image-keyboard-response","62","298394","0.0-4.0-4.0-1.0-1.15","null","","null","","","","","","","","./tasks/HMM-beads/Images/WhiteBeadChoice.png","","","","","","","","","","","","","","",""
"image-keyboard-response","63","298910","0.0-4.0-4.0-1.0-2.15","null","","null","","","","","","","","./tasks/HMM-beads/Images/WhiteBeadChoiceWrong.png","","","","","","","","","","","","","","",""
"image-keyboard-response","64","299623","0.0-4.0-4.0-1.0-0.16","711","","j","","","","","","","","./tasks/HMM-beads/Images/NewTrialBC.png","practice","16","1","2","1","2","true","","","","","","","",""
"image-keyboard-response","65","299936","0.0-4.0-4.0-1.0-1.16","null","","null","","","","","","","","./tasks/HMM-beads/Images/WhiteBeadChoice.png","","","","","","","","","","","","","","",""
"image-keyboard-response","66","300453","0.0-4.0-4.0-1.0-2.16","null","","null","","","","","","","","./tasks/HMM-beads/Images/WhiteBeadChoiceCorrect.png","","","","","","","","","","","","","","",""
"image-keyboard-response","67","301111","0.0-4.0-4.0-1.0-0.17","657","","j","","","","","","","","./tasks/HMM-beads/Images/NewTrialWC.png","practice","17","1","1","2","2","false","","","","","","","",""
"image-keyboard-response","68","301416","0.0-4.0-4.0-1.0-1.17","null","","null","","","","","","","","./tasks/HMM-beads/Images/WhiteBeadChoice.png","","","","","","","","","","","","","","",""
"image-keyboard-response","69","301918","0.0-4.0-4.0-1.0-2.17","null","","null","","","","","","","","./tasks/HMM-beads/Images/WhiteBeadChoiceWrong.png","","","","","","","","","","","","","","",""
"image-keyboard-response","70","302621","0.0-4.0-4.0-1.0-0.18","702","","j","","","","","","","","./tasks/HMM-beads/Images/NewTrialBC.png","practice","18","1","1","1","2","false","","","","","","","",""
"image-keyboard-response","71","302931","0.0-4.0-4.0-1.0-1.18","null","","null","","","","","","","","./tasks/HMM-beads/Images/WhiteBeadChoice.png","","","","","","","","","","","","","","",""
"image-keyboard-response","72","303443","0.0-4.0-4.0-1.0-2.18","null","","null","","","","","","","","./tasks/HMM-beads/Images/WhiteBeadChoiceWrong.png","","","","","","","","","","","","","","",""
"image-keyboard-response","73","304112","0.0-4.0-4.0-1.0-0.19","668","","f","","","","","","","","./tasks/HMM-beads/Images/NewTrialBC.png","practice","19","1","1","1","1","true","","","","","","","",""
"image-keyboard-response","74","304426","0.0-4.0-4.0-1.0-1.19","null","","null","","","","","","","","./tasks/HMM-beads/Images/BlackBeadChoice.png","","","","","","","","","","","","","","",""
"image-keyboard-response","75","304940","0.0-4.0-4.0-1.0-2.19","null","","null","","","","","","","","./tasks/HMM-beads/Images/BlackBeadChoiceCorrect.png","","","","","","","","","","","","","","",""
"html-keyboard-response","76","306315","0.0-4.0-4.0-2.0","1374",""," ","","","","","","","","","","","","","","","","","","","","","","",""
"instructions","77","314116","0.0-4.0-5.0","7801","","","","[{""page_index"":0,""viewing_time"":7801}]","","","","","","","","","","","","","","","","","","","","",""
"html-keyboard-response","78","318722","0.0-4.0-6.0-0.0","4605",""," ","","","","","","","","<div align=center>In this block, there will be a <b>99%</b> chance that the jar on the next trial will be different from the jar on the current trial.<br><br></div>","","","","","","","","","","","","","","",""
"image-keyboard-response","79","321675","0.0-4.0-6.0-1.0-0.0","2951","","j","","","","","","","","./tasks/HMM-beads/Images/NoChoice.png","highH","0","1","1","0","2","false","","","","","","","",""
"image-keyboard-response","80","321978","0.0-4.0-6.0-1.0-1.0","null","","null","","","","","","","","./tasks/HMM-beads/Images/WhiteBeadChoice.png","","","","","","","","","","","","","","",""
"image-keyboard-response","81","322491","0.0-4.0-6.0-1.0-2.0","null","","null","","","","","","","","./tasks/HMM-beads/Images/WhiteBeadChoiceWrong.png","","","","","","","","","","","","","","",""
"image-keyboard-response","82","323152","0.0-4.0-6.0-1.0-0.1","660","","f","","","","","","","","./tasks/HMM-beads/Images/NewTrialBC.png","highH","1","2","1","1","1","true","","","","","","","",""
"image-keyboard-response","83","323457","0.0-4.0-6.0-1.0-1.1","null","","null","","","","","","","","./tasks/HMM-beads/Images/BlackBeadChoice.png","","","","","","","","","","","","","","",""
"image-keyboard-response","84","323958","0.0-4.0-6.0-1.0-2.1","null","","null","","","","","","","","./tasks/HMM-beads/Images/BlackBeadChoiceCorrect.png","","","","","","","","","","","","","","",""
"image-keyboard-response","85","324592","0.0-4.0-6.0-1.0-0.2","634","","f","","","","","","","","./tasks/HMM-beads/Images/NewTrialBC.png","highH","2","1","1","1","1","true","","","","","","","",""
"image-keyboard-response","86","324896","0.0-4.0-6.0-1.0-1.2","null","","null","","","","","","","","./tasks/HMM-beads/Images/BlackBeadChoice.png","","","","","","","","","","","","","","",""
"image-keyboard-response","87","325412","0.0-4.0-6.0-1.0-2.2","null","","null","","","","","","","","./tasks/HMM-beads/Images/BlackBeadChoiceCorrect.png","","","","","","","","","","","","","","",""
"image-keyboard-response","88","326011","0.0-4.0-6.0-1.0-0.3","599","","f","","","","","","","","./tasks/HMM-beads/Images/NewTrialBC.png","highH","3","2","2","1","1","false","","","","","","","",""
"image-keyboard-response","89","326314","0.0-4.0-6.0-1.0-1.3","null","","null","","","","","","","","./tasks/HMM-beads/Images/BlackBeadChoice.png","","","","","","","","","","","","","","",""
"image-keyboard-response","90","326828","0.0-4.0-6.0-1.0-2.3","null","","null","","","","","","","","./tasks/HMM-beads/Images/BlackBeadChoiceWrong.png","","","","","","","","","","","","","","",""
"image-keyboard-response","91","327452","0.0-4.0-6.0-1.0-0.4","622","","f","","","","","","","","./tasks/HMM-beads/Images/NewTrialWC.png","highH","4","1","1","2","1","true","","","","","","","",""
"image-keyboard-response","92","327763","0.0-4.0-6.0-1.0-1.4","null","","null","","","","","","","","./tasks/HMM-beads/Images/BlackBeadChoice.png","","","","","","","","","","","","","","",""
"image-keyboard-response","93","328279","0.0-4.0-6.0-1.0-2.4","null","","null","","","","","","","","./tasks/HMM-beads/Images/BlackBeadChoiceCorrect.png","","","","","","","","","","","","","","",""
"image-keyboard-response","94","328908","0.0-4.0-6.0-1.0-0.5","628","","f","","","","","","","","./tasks/HMM-beads/Images/NewTrialBC.png","highH","5","2","2","1","1","false","","","","","","","",""
"image-keyboard-response","95","329216","0.0-4.0-6.0-1.0-1.5","null","","null","","","","","","","","./tasks/HMM-beads/Images/BlackBeadChoice.png","","","","","","","","","","","","","","",""
"image-keyboard-response","96","329729","0.0-4.0-6.0-1.0-2.5","null","","null","","","","","","","","./tasks/HMM-beads/Images/BlackBeadChoiceWrong.png","","","","","","","","","","","","","","",""
"image-keyboard-response","97","330324","0.0-4.0-6.0-1.0-0.6","592","","f","","","","","","","","./tasks/HMM-beads/Images/NewTrialWC.png","highH","6","1","1","2","1","true","","","","","","","",""
"image-keyboard-response","98","330635","0.0-4.0-6.0-1.0-1.6","null","","null","","","","","","","","./tasks/HMM-beads/Images/BlackBeadChoice.png","","","","","","","","","","","","","","",""
"image-keyboard-response","99","331136","0.0-4.0-6.0-1.0-2.6","null","","null","","","","","","","","./tasks/HMM-beads/Images/BlackBeadChoiceCorrect.png","","","","","","","","","","","","","","",""
"image-keyboard-response","100","331747","0.0-4.0-6.0-1.0-0.7","610","","f","","","","","","","","./tasks/HMM-beads/Images/NewTrialBC.png","highH","7","2","2","1","1","false","","","","","","","",""
"image-keyboard-response","101","332055","0.0-4.0-6.0-1.0-1.7","null","","null","","","","","","","","./tasks/HMM-beads/Images/BlackBeadChoice.png","","","","","","","","","","","","","","",""
"image-keyboard-response","102","332568","0.0-4.0-6.0-1.0-2.7","null","","null","","","","","","","","./tasks/HMM-beads/Images/BlackBeadChoiceWrong.png","","","","","","","","","","","","","","",""
"image-keyboard-response","103","333164","0.0-4.0-6.0-1.0-0.8","596","","f","","","","","","","","./tasks/HMM-beads/Images/NewTrialWC.png","highH","8","1","1","2","1","true","","","","","","","",""
"image-keyboard-response","104","333474","0.0-4.0-6.0-1.0-1.8","null","","null","","","","","","","","./tasks/HMM-beads/Images/BlackBeadChoice.png","","","","","","","","","","","","","","",""
"image-keyboard-response","105","333987","0.0-4.0-6.0-1.0-2.8","null","","null","","","","","","","","./tasks/HMM-beads/Images/BlackBeadChoiceCorrect.png","","","","","","","","","","","","","","",""
"image-keyboard-response","106","334571","0.0-4.0-6.0-1.0-0.9","582","","f","","","","","","","","./tasks/HMM-beads/Images/NewTrialBC.png","highH","9","2","2","1","1","false","","","","","","","",""
"image-keyboard-response","107","334877","0.0-4.0-6.0-1.0-1.9","null","","null","","","","","","","","./tasks/HMM-beads/Images/BlackBeadChoice.png","","","","","","","","","","","","","","",""
"image-keyboard-response","108","335386","0.0-4.0-6.0-1.0-2.9","null","","null","","","","","","","","./tasks/HMM-beads/Images/BlackBeadChoiceWrong.png","","","","","","","","","","","","","","",""
"image-keyboard-response","109","335975","0.0-4.0-6.0-1.0-0.10","588","","j","","","","","","","","./tasks/HMM-beads/Images/NewTrialWC.png","highH","10","1","1","2","2","false","","","","","","","",""
"image-keyboard-response","110","336292","0.0-4.0-6.0-1.0-1.10","null","","null","","","","","","","","./tasks/HMM-beads/Images/WhiteBeadChoice.png","","","","","","","","","","","","","","",""
"image-keyboard-response","111","336805","0.0-4.0-6.0-1.0-2.10","null","","null","","","","","","","","./tasks/HMM-beads/Images/WhiteBeadChoiceWrong.png","","","","","","","","","","","","","","",""
"image-keyboard-response","112","337429","0.0-4.0-6.0-1.0-0.11","624","","f","","","","","","","","./tasks/HMM-beads/Images/NewTrialBC.png","highH","11","2","1","1","1","true","","","","","","","",""
"image-keyboard-response","113","337738","0.0-4.0-6.0-1.0-1.11","null","","null","","","","","","","","./tasks/HMM-beads/Images/BlackBeadChoice.png","","","","","","","","","","","","","","",""
"image-keyboard-response","114","338250","0.0-4.0-6.0-1.0-2.11","null","","null","","","","","","","","./tasks/HMM-beads/Images/BlackBeadChoiceCorrect.png","","","","","","","","","","","","","","",""
"image-keyboard-response","115","339003","0.0-4.0-6.0-1.0-0.12","751","","j","","","","","","","","./tasks/HMM-beads/Images/NewTrialBC.png","highH","12","1","1","1","2","false","","","","","","","",""
"image-keyboard-response","116","339311","0.0-4.0-6.0-1.0-1.12","null","","null","","","","","","","","./tasks/HMM-beads/Images/WhiteBeadChoice.png","","","","","","","","","","","","","","",""
"image-keyboard-response","117","339825","0.0-4.0-6.0-1.0-2.12","null","","null","","","","","","","","./tasks/HMM-beads/Images/WhiteBeadChoiceWrong.png","","","","","","","","","","","","","","",""
"image-keyboard-response","118","340448","0.0-4.0-6.0-1.0-0.13","621","","f","","","","","","","","./tasks/HMM-beads/Images/NewTrialBC.png","highH","13","2","2","1","1","false","","","","","","","",""
"image-keyboard-response","119","340756","0.0-4.0-6.0-1.0-1.13","null","","null","","","","","","","","./tasks/HMM-beads/Images/BlackBeadChoice.png","","","","","","","","","","","","","","",""
"image-keyboard-response","120","341270","0.0-4.0-6.0-1.0-2.13","null","","null","","","","","","","","./tasks/HMM-beads/Images/BlackBeadChoiceWrong.png","","","","","","","","","","","","","","",""
"image-keyboard-response","121","341838","0.0-4.0-6.0-1.0-0.14","567","","j","","","","","","","","./tasks/HMM-beads/Images/NewTrialWC.png","highH","14","1","1","2","2","false","","","","","","","",""
"image-keyboard-response","122","342147","0.0-4.0-6.0-1.0-1.14","null","","null","","","","","","","","./tasks/HMM-beads/Images/WhiteBeadChoice.png","","","","","","","","","","","","","","",""
"image-keyboard-response","123","342660","0.0-4.0-6.0-1.0-2.14","null","","null","","","","","","","","./tasks/HMM-beads/Images/WhiteBeadChoiceWrong.png","","","","","","","","","","","","","","",""
"image-keyboard-response","124","343185","0.0-4.0-6.0-1.0-0.15","523","","j","","","","","","","","./tasks/HMM-beads/Images/NewTrialBC.png","highH","15","2","2","1","2","true","","","","","","","",""
"image-keyboard-response","125","343487","0.0-4.0-6.0-1.0-1.15","null","","null","","","","","","","","./tasks/HMM-beads/Images/WhiteBeadChoice.png","","","","","","","","","","","","","","",""
"image-keyboard-response","126","344001","0.0-4.0-6.0-1.0-2.15","null","","null","","","","","","","","./tasks/HMM-beads/Images/WhiteBeadChoiceCorrect.png","","","","","","","","","","","","","","",""
"image-keyboard-response","127","344612","0.0-4.0-6.0-1.0-0.16","610","","f","","","","","","","","./tasks/HMM-beads/Images/NewTrialWC.png","highH","16","1","1","2","1","true","","","","","","","",""
"image-keyboard-response","128","344921","0.0-4.0-6.0-1.0-1.16","null","","null","","","","","","","","./tasks/HMM-beads/Images/BlackBeadChoice.png","","","","","","","","","","","","","","",""
"image-keyboard-response","129","345422","0.0-4.0-6.0-1.0-2.16","null","","null","","","","","","","","./tasks/HMM-beads/Images/BlackBeadChoiceCorrect.png","","","","","","","","","","","","","","",""
"image-keyboard-response","130","345991","0.0-4.0-6.0-1.0-0.17","570","","j","","","","","","","","./tasks/HMM-beads/Images/NewTrialBC.png","highH","17","2","1","1","2","false","","","","","","","",""
"image-keyboard-response","131","346293","0.0-4.0-6.0-1.0-1.17","null","","null","","","","","","","","./tasks/HMM-beads/Images/WhiteBeadChoice.png","","","","","","","","","","","","","","",""
"image-keyboard-response","132","346810","0.0-4.0-6.0-1.0-2.17","null","","null","","","","","","","","./tasks/HMM-beads/Images/WhiteBeadChoiceWrong.png","","","","","","","","","","","","","","",""
"image-keyboard-response","133","347846","0.0-4.0-6.0-1.0-0.18","1033","","j","","","","","","","","./tasks/HMM-beads/Images/NewTrialBC.png","highH","18","1","1","1","2","false","","","","","","","",""
"image-keyboard-response","134","348150","0.0-4.0-6.0-1.0-1.18","null","","null","","","","","","","","./tasks/HMM-beads/Images/WhiteBeadChoice.png","","","","","","","","","","","","","","",""
"image-keyboard-response","135","348662","0.0-4.0-6.0-1.0-2.18","null","","null","","","","","","","","./tasks/HMM-beads/Images/WhiteBeadChoiceWrong.png","","","","","","","","","","","","","","",""
"image-keyboard-response","136","349213","0.0-4.0-6.0-1.0-0.19","550","","f","","","","","","","","./tasks/HMM-beads/Images/NewTrialBC.png","highH","19","2","2","1","1","false","","","","","","","",""
"image-keyboard-response","137","349521","0.0-4.0-6.0-1.0-1.19","null","","null","","","","","","","","./tasks/HMM-beads/Images/BlackBeadChoice.png","","","","","","","","","","","","","","",""
"image-keyboard-response","138","350035","0.0-4.0-6.0-1.0-2.19","null","","null","","","","","","","","./tasks/HMM-beads/Images/BlackBeadChoiceWrong.png","","","","","","","","","","","","","","",""
"image-keyboard-response","139","350720","0.0-4.0-6.0-1.0-0.20","682","","f","","","","","","","","./tasks/HMM-beads/Images/NewTrialWC.png","highH","20","1","1","2","1","true","","","","","","","",""
"image-keyboard-response","140","351034","0.0-4.0-6.0-1.0-1.20","null","","null","","","","","","","","./tasks/HMM-beads/Images/BlackBeadChoice.png","","","","","","","","","","","","","","",""
"image-keyboard-response","141","351548","0.0-4.0-6.0-1.0-2.20","null","","null","","","","","","","","./tasks/HMM-beads/Images/BlackBeadChoiceCorrect.png","","","","","","","","","","","","","","",""
"image-keyboard-response","142","352044","0.0-4.0-6.0-1.0-0.21","496","","j","","","","","","","","./tasks/HMM-beads/Images/NewTrialBC.png","highH","21","2","2","1","2","true","","","","","","","",""
"image-keyboard-response","143","352348","0.0-4.0-6.0-1.0-1.21","null","","null","","","","","","","","./tasks/HMM-beads/Images/WhiteBeadChoice.png","","","","","","","","","","","","","","",""
"image-keyboard-response","144","352857","0.0-4.0-6.0-1.0-2.21","null","","null","","","","","","","","./tasks/HMM-beads/Images/WhiteBeadChoiceCorrect.png","","","","","","","","","","","","","","",""
"image-keyboard-response","145","353394","0.0-4.0-6.0-1.0-0.22","535","","f","","","","","","","","./tasks/HMM-beads/Images/NewTrialWC.png","highH","22","1","1","2","1","true","","","","","","","",""
"image-keyboard-response","146","353702","0.0-4.0-6.0-1.0-1.22","null","","null","","","","","","","","./tasks/HMM-beads/Images/BlackBeadChoice.png","","","","","","","","","","","","","","",""
"image-keyboard-response","147","354216","0.0-4.0-6.0-1.0-2.22","null","","null","","","","","","","","./tasks/HMM-beads/Images/BlackBeadChoiceCorrect.png","","","","","","","","","","","","","","",""
"image-keyboard-response","148","354713","0.0-4.0-6.0-1.0-0.23","496","","j","","","","","","","","./tasks/HMM-beads/Images/NewTrialBC.png","highH","23","2","2","1","2","true","","","","","","","",""
"image-keyboard-response","149","355025","0.0-4.0-6.0-1.0-1.23","null","","null","","","","","","","","./tasks/HMM-beads/Images/WhiteBeadChoice.png","","","","","","","","","","","","","","",""
"image-keyboard-response","150","355536","0.0-4.0-6.0-1.0-2.23","null","","null","","","","","","","","./tasks/HMM-beads/Images/WhiteBeadChoiceCorrect.png","","","","","","","","","","","","","","",""
"image-keyboard-response","151","356071","0.0-4.0-6.0-1.0-0.24","534","","f","","","","","","","","./tasks/HMM-beads/Images/NewTrialWC.png","highH","24","1","2","2","1","false","","","","","","","",""
"image-keyboard-response","152","356381","0.0-4.0-6.0-1.0-1.24","null","","null","","","","","","","","./tasks/HMM-beads/Images/BlackBeadChoice.png","","","","","","","","","","","","","","",""
"image-keyboard-response","153","356893","0.0-4.0-6.0-1.0-2.24","null","","null","","","","","","","","./tasks/HMM-beads/Images/BlackBeadChoiceWrong.png","","","","","","","","","","","","","","",""
"image-keyboard-response","154","357483","0.0-4.0-6.0-1.0-0.25","589","","j","","","","","","","","./tasks/HMM-beads/Images/NewTrialWC.png","highH","25","2","2","2","2","true","","","","","","","",""
"image-keyboard-response","155","357794","0.0-4.0-6.0-1.0-1.25","null","","null","","","","","","","","./tasks/HMM-beads/Images/WhiteBeadChoice.png","","","","","","","","","","","","","","",""
"image-keyboard-response","156","358309","0.0-4.0-6.0-1.0-2.25","null","","null","","","","","","","","./tasks/HMM-beads/Images/WhiteBeadChoiceCorrect.png","","","","","","","","","","","","","","",""
"image-keyboard-response","157","358856","0.0-4.0-6.0-1.0-0.26","545","","f","","","","","","","","./tasks/HMM-beads/Images/NewTrialWC.png","highH","26","1","2","2","1","false","","","","","","","",""
"image-keyboard-response","158","359167","0.0-4.0-6.0-1.0-1.26","null","","null","","","","","","","","./tasks/HMM-beads/Images/BlackBeadChoice.png","","","","","","","","","","","","","","",""
"image-keyboard-response","159","359678","0.0-4.0-6.0-1.0-2.26","null","","null","","","","","","","","./tasks/HMM-beads/Images/BlackBeadChoiceWrong.png","","","","","","","","","","","","","","",""
"image-keyboard-response","160","360260","0.0-4.0-6.0-1.0-0.27","581","","j","","","","","","","","./tasks/HMM-beads/Images/NewTrialWC.png","highH","27","2","2","2","2","true","","","","","","","",""
"image-keyboard-response","161","360563","0.0-4.0-6.0-1.0-1.27","null","","null","","","","","","","","./tasks/HMM-beads/Images/WhiteBeadChoice.png","","","","","","","","","","","","","","",""
"image-keyboard-response","162","361075","0.0-4.0-6.0-1.0-2.27","null","","null","","","","","","","","./tasks/HMM-beads/Images/WhiteBeadChoiceCorrect.png","","","","","","","","","","","","","","",""
"image-keyboard-response","163","361694","0.0-4.0-6.0-1.0-0.28","617","","f","","","","","","","","./tasks/HMM-beads/Images/NewTrialWC.png","highH","28","1","1","2","1","true","","","","","","","",""
"image-keyboard-response","164","362010","0.0-4.0-6.0-1.0-1.28","null","","null","","","","","","","","./tasks/HMM-beads/Images/BlackBeadChoice.png","","","","","","","","","","","","","","",""
"image-keyboard-response","165","362525","0.0-4.0-6.0-1.0-2.28","null","","null","","","","","","","","./tasks/HMM-beads/Images/BlackBeadChoiceCorrect.png","","","","","","","","","","","","","","",""
"image-keyboard-response","166","363092","0.0-4.0-6.0-1.0-0.29","566","","j","","","","","","","","./tasks/HMM-beads/Images/NewTrialBC.png","highH","29","2","1","1","2","false","","","","","","","",""
"image-keyboard-response","167","363395","0.0-4.0-6.0-1.0-1.29","null","","null","","","","","","","","./tasks/HMM-beads/Images/WhiteBeadChoice.png","","","","","","","","","","","","","","",""
"image-keyboard-response","168","363909","0.0-4.0-6.0-1.0-2.29","null","","null","","","","","","","","./tasks/HMM-beads/Images/WhiteBeadChoiceWrong.png","","","","","","","","","","","","","","",""
"image-keyboard-response","169","364559","0.0-4.0-6.0-1.0-0.30","647","","f","","","","","","","","./tasks/HMM-beads/Images/NewTrialBC.png","highH","30","1","1","1","1","true","","","","","","","",""
"image-keyboard-response","170","364875","0.0-4.0-6.0-1.0-1.30","null","","null","","","","","","","","./tasks/HMM-beads/Images/BlackBeadChoice.png","","","","","","","","","","","","","","",""
"image-keyboard-response","171","365387","0.0-4.0-6.0-1.0-2.30","null","","null","","","","","","","","./tasks/HMM-beads/Images/BlackBeadChoiceCorrect.png","","","","","","","","","","","","","","",""
"image-keyboard-response","172","366179","0.0-4.0-6.0-1.0-0.31","791","","j","","","","","","","","./tasks/HMM-beads/Images/NewTrialBC.png","highH","31","2","2","1","2","true","","","","","","","",""
"image-keyboard-response","173","366494","0.0-4.0-6.0-1.0-1.31","null","","null","","","","","","","","./tasks/HMM-beads/Images/WhiteBeadChoice.png","","","","","","","","","","","","","","",""
"image-keyboard-response","174","367007","0.0-4.0-6.0-1.0-2.31","null","","null","","","","","","","","./tasks/HMM-beads/Images/WhiteBeadChoiceCorrect.png","","","","","","","","","","","","","","",""
"image-keyboard-response","175","367621","0.0-4.0-6.0-1.0-0.32","613","","f","","","","","","","","./tasks/HMM-beads/Images/NewTrialWC.png","highH","32","1","1","2","1","true","","","","","","","",""
"image-keyboard-response","176","367925","0.0-4.0-6.0-1.0-1.32","null","","null","","","","","","","","./tasks/HMM-beads/Images/BlackBeadChoice.png","","","","","","","","","","","","","","",""
"image-keyboard-response","177","368441","0.0-4.0-6.0-1.0-2.32","null","","null","","","","","","","","./tasks/HMM-beads/Images/BlackBeadChoiceCorrect.png","","","","","","","","","","","","","","",""
"image-keyboard-response","178","369083","0.0-4.0-6.0-1.0-0.33","642","","j","","","","","","","","./tasks/HMM-beads/Images/NewTrialBC.png","highH","33","2","2","1","2","true","","","","","","","",""
"image-keyboard-response","179","369392","0.0-4.0-6.0-1.0-1.33","null","","null","","","","","","","","./tasks/HMM-beads/Images/WhiteBeadChoice.png","","","","","","","","","","","","","","",""
"image-keyboard-response","180","369907","0.0-4.0-6.0-1.0-2.33","null","","null","","","","","","","","./tasks/HMM-beads/Images/WhiteBeadChoiceCorrect.png","","","","","","","","","","","","","","",""
"image-keyboard-response","181","370479","0.0-4.0-6.0-1.0-0.34","570","","f","","","","","","","","./tasks/HMM-beads/Images/NewTrialWC.png","highH","34","1","1","2","1","true","","","","","","","",""
"image-keyboard-response","182","370793","0.0-4.0-6.0-1.0-1.34","null","","null","","","","","","","","./tasks/HMM-beads/Images/BlackBeadChoice.png","","","","","","","","","","","","","","",""
"image-keyboard-response","183","371306","0.0-4.0-6.0-1.0-2.34","null","","null","","","","","","","","./tasks/HMM-beads/Images/BlackBeadChoiceCorrect.png","","","","","","","","","","","","","","",""
"image-keyboard-response","184","371927","0.0-4.0-6.0-1.0-0.35","620","","j","","","","","","","","./tasks/HMM-beads/Images/NewTrialBC.png","highH","35","2","2","1","2","true","","","","","","","",""
"image-keyboard-response","185","372241","0.0-4.0-6.0-1.0-1.35","null","","null","","","","","","","","./tasks/HMM-beads/Images/WhiteBeadChoice.png","","","","","","","","","","","","","","",""
"image-keyboard-response","186","372744","0.0-4.0-6.0-1.0-2.35","null","","null","","","","","","","","./tasks/HMM-beads/Images/WhiteBeadChoiceCorrect.png","","","","","","","","","","","","","","",""
"image-keyboard-response","187","373340","0.0-4.0-6.0-1.0-0.36","595","","f","","","","","","","","./tasks/HMM-beads/Images/NewTrialWC.png","highH","36","1","1","2","1","true","","","","","","","",""
"image-keyboard-response","188","373651","0.0-4.0-6.0-1.0-1.36","null","","null","","","","","","","","./tasks/HMM-beads/Images/BlackBeadChoice.png","","","","","","","","","","","","","","",""
"image-keyboard-response","189","374165","0.0-4.0-6.0-1.0-2.36","null","","null","","","","","","","","./tasks/HMM-beads/Images/BlackBeadChoiceCorrect.png","","","","","","","","","","","","","","",""
"image-keyboard-response","190","374792","0.0-4.0-6.0-1.0-0.37","626","","j","","","","","","","","./tasks/HMM-beads/Images/NewTrialBC.png","highH","37","2","2","1","2","true","","","","","","","",""
"image-keyboard-response","191","375101","0.0-4.0-6.0-1.0-1.37","null","","null","","","","","","","","./tasks/HMM-beads/Images/WhiteBeadChoice.png","","","","","","","","","","","","","","",""
"image-keyboard-response","192","375614","0.0-4.0-6.0-1.0-2.37","null","","null","","","","","","","","./tasks/HMM-beads/Images/WhiteBeadChoiceCorrect.png","","","","","","","","","","","","","","",""
"image-keyboard-response","193","376207","0.0-4.0-6.0-1.0-0.38","591","","f","","","","","","","","./tasks/HMM-beads/Images/NewTrialWC.png","highH","38","1","2","2","1","false","","","","","","","",""
"image-keyboard-response","194","376517","0.0-4.0-6.0-1.0-1.38","null","","null","","","","","","","","./tasks/HMM-beads/Images/BlackBeadChoice.png","","","","","","","","","","","","","","",""
"image-keyboard-response","195","377031","0.0-4.0-6.0-1.0-2.38","null","","null","","","","","","","","./tasks/HMM-beads/Images/BlackBeadChoiceWrong.png","","","","","","","","","","","","","","",""
"image-keyboard-response","196","377567","0.0-4.0-6.0-1.0-0.39","536","","f","","","","","","","","./tasks/HMM-beads/Images/NewTrialWC.png","highH","39","2","2","2","1","false","","","","","","","",""
"image-keyboard-response","197","377874","0.0-4.0-6.0-1.0-1.39","null","","null","","","","","","","","./tasks/HMM-beads/Images/BlackBeadChoice.png","","","","","","","","","","","","","","",""
"image-keyboard-response","198","378390","0.0-4.0-6.0-1.0-2.39","null","","null","","","","","","","","./tasks/HMM-beads/Images/BlackBeadChoiceWrong.png","","","","","","","","","","","","","","",""
"image-keyboard-response","199","378917","0.0-4.0-6.0-1.0-0.40","527","","f","","","","","","","","./tasks/HMM-beads/Images/NewTrialWC.png","highH","40","1","1","2","1","true","","","","","","","",""
"image-keyboard-response","200","379233","0.0-4.0-6.0-1.0-1.40","null","","null","","","","","","","","./tasks/HMM-beads/Images/BlackBeadChoice.png","","","","","","","","","","","","","","",""
"image-keyboard-response","201","379748","0.0-4.0-6.0-1.0-2.40","null","","null","","","","","","","","./tasks/HMM-beads/Images/BlackBeadChoiceCorrect.png","","","","","","","","","","","","","","",""
"image-keyboard-response","202","380452","0.0-4.0-6.0-1.0-0.41","702","","j","","","","","","","","./tasks/HMM-beads/Images/NewTrialBC.png","highH","41","2","2","1","2","true","","","","","","","",""
"image-keyboard-response","203","380757","0.0-4.0-6.0-1.0-1.41","null","","null","","","","","","","","./tasks/HMM-beads/Images/WhiteBeadChoice.png","","","","","","","","","","","","","","",""
"image-keyboard-response","204","381272","0.0-4.0-6.0-1.0-2.41","null","","null","","","","","","","","./tasks/HMM-beads/Images/WhiteBeadChoiceCorrect.png","","","","","","","","","","","","","","",""
"image-keyboard-response","205","381854","0.0-4.0-6.0-1.0-0.42","580","","f","","","","","","","","./tasks/HMM-beads/Images/NewTrialWC.png","highH","42","1","1","2","1","true","","","","","","","",""
"image-keyboard-response","206","382161","0.0-4.0-6.0-1.0-1.42","null","","null","","","","","","","","./tasks/HMM-beads/Images/BlackBeadChoice.png","","","","","","","","","","","","","","",""
"image-keyboard-response","207","382674","0.0-4.0-6.0-1.0-2.42","null","","null","","","","","","","","./tasks/HMM-beads/Images/BlackBeadChoiceCorrect.png","","","","","","","","","","","","","","",""
"image-keyboard-response","208","383208","0.0-4.0-6.0-1.0-0.43","532","","j","","","","","","","","./tasks/HMM-beads/Images/NewTrialBC.png","highH","43","2","1","1","2","false","","","","","","","",""
"image-keyboard-response","209","383517","0.0-4.0-6.0-1.0-1.43","null","","null","","","","","","","","./tasks/HMM-beads/Images/WhiteBeadChoice.png","","","","","","","","","","","","","","",""
"image-keyboard-response","210","384033","0.0-4.0-6.0-1.0-2.43","null","","null","","","","","","","","./tasks/HMM-beads/Images/WhiteBeadChoiceWrong.png","","","","","","","","","","","","","","",""
"image-keyboard-response","211","384720","0.0-4.0-6.0-1.0-0.44","684","","f","","","","","","","","./tasks/HMM-beads/Images/NewTrialBC.png","highH","44","1","2","1","1","false","","","","","","","",""
"image-keyboard-response","212","385025","0.0-4.0-6.0-1.0-1.44","null","","null","","","","","","","","./tasks/HMM-beads/Images/BlackBeadChoice.png","","","","","","","","","","","","","","",""
"image-keyboard-response","213","385527","0.0-4.0-6.0-1.0-2.44","null","","null","","","","","","","","./tasks/HMM-beads/Images/BlackBeadChoiceWrong.png","","","","","","","","","","","","","","",""
"image-keyboard-response","214","386304","0.0-4.0-6.0-1.0-0.45","777","","f","","","","","","","","./tasks/HMM-beads/Images/NewTrialWC.png","highH","45","2","2","2","1","false","","","","","","","",""
"image-keyboard-response","215","386614","0.0-4.0-6.0-1.0-1.45","null","","null","","","","","","","","./tasks/HMM-beads/Images/BlackBeadChoice.png","","","","","","","","","","","","","","",""
"image-keyboard-response","216","387126","0.0-4.0-6.0-1.0-2.45","null","","null","","","","","","","","./tasks/HMM-beads/Images/BlackBeadChoiceWrong.png","","","","","","","","","","","","","","",""
"image-keyboard-response","217","387844","0.0-4.0-6.0-1.0-0.46","716","","f","","","","","","","","./tasks/HMM-beads/Images/NewTrialWC.png","highH","46","1","2","2","1","false","","","","","","","",""
"image-keyboard-response","218","388153","0.0-4.0-6.0-1.0-1.46","null","","null","","","","","","","","./tasks/HMM-beads/Images/BlackBeadChoice.png","","","","","","","","","","","","","","",""
"image-keyboard-response","219","388669","0.0-4.0-6.0-1.0-2.46","null","","null","","","","","","","","./tasks/HMM-beads/Images/BlackBeadChoiceWrong.png","","","","","","","","","","","","","","",""
"image-keyboard-response","220","389435","0.0-4.0-6.0-1.0-0.47","765","","j","","","","","","","","./tasks/HMM-beads/Images/NewTrialWC.png","highH","47","2","2","2","2","true","","","","","","","",""
"image-keyboard-response","221","389748","0.0-4.0-6.0-1.0-1.47","null","","null","","","","","","","","./tasks/HMM-beads/Images/WhiteBeadChoice.png","","","","","","","","","","","","","","",""
"image-keyboard-response","222","390262","0.0-4.0-6.0-1.0-2.47","null","","null","","","","","","","","./tasks/HMM-beads/Images/WhiteBeadChoiceCorrect.png","","","","","","","","","","","","","","",""
"image-keyboard-response","223","391239","0.0-4.0-6.0-1.0-0.48","975","","f","","","","","","","","./tasks/HMM-beads/Images/NewTrialWC.png","highH","48","1","1","2","1","true","","","","","","","",""
"image-keyboard-response","224","391541","0.0-4.0-6.0-1.0-1.48","null","","null","","","","","","","","./tasks/HMM-beads/Images/BlackBeadChoice.png","","","","","","","","","","","","","","",""
"image-keyboard-response","225","392056","0.0-4.0-6.0-1.0-2.48","null","","null","","","","","","","","./tasks/HMM-beads/Images/BlackBeadChoiceCorrect.png","","","","","","","","","","","","","","",""
"image-keyboard-response","226","392633","0.0-4.0-6.0-1.0-0.49","576","","j","","","","","","","","./tasks/HMM-beads/Images/NewTrialBC.png","highH","49","2","2","1","2","true","","","","","","","",""
"image-keyboard-response","227","392945","0.0-4.0-6.0-1.0-1.49","null","","null","","","","","","","","./tasks/HMM-beads/Images/WhiteBeadChoice.png","","","","","","","","","","","","","","",""
"image-keyboard-response","228","393459","0.0-4.0-6.0-1.0-2.49","null","","null","","","","","","","","./tasks/HMM-beads/Images/WhiteBeadChoiceCorrect.png","","","","","","","","","","","","","","",""
"image-keyboard-response","229","394151","0.0-4.0-6.0-1.0-0.50","690","","f","","","","","","","","./tasks/HMM-beads/Images/NewTrialWC.png","highH","50","1","1","2","1","true","","","","","","","",""
"image-keyboard-response","230","394458","0.0-4.0-6.0-1.0-1.50","null","","null","","","","","","","","./tasks/HMM-beads/Images/BlackBeadChoice.png","","","","","","","","","","","","","","",""
"image-keyboard-response","231","394972","0.0-4.0-6.0-1.0-2.50","null","","null","","","","","","","","./tasks/HMM-beads/Images/BlackBeadChoiceCorrect.png","","","","","","","","","","","","","","",""
"image-keyboard-response","232","395571","0.0-4.0-6.0-1.0-0.51","597","","j","","","","","","","","./tasks/HMM-beads/Images/NewTrialBC.png","highH","51","2","2","1","2","true","","","","","","","",""
"image-keyboard-response","233","395879","0.0-4.0-6.0-1.0-1.51","null","","null","","","","","","","","./tasks/HMM-beads/Images/WhiteBeadChoice.png","","","","","","","","","","","","","","",""
"image-keyboard-response","234","396396","0.0-4.0-6.0-1.0-2.51","null","","null","","","","","","","","./tasks/HMM-beads/Images/WhiteBeadChoiceCorrect.png","","","","","","","","","","","","","","",""
"image-keyboard-response","235","396987","0.0-4.0-6.0-1.0-0.52","587","","f","","","","","","","","./tasks/HMM-beads/Images/NewTrialWC.png","highH","52","1","1","2","1","true","","","","","","","",""
"image-keyboard-response","236","397299","0.0-4.0-6.0-1.0-1.52","null","","null","","","","","","","","./tasks/HMM-beads/Images/BlackBeadChoice.png","","","","","","","","","","","","","","",""
"image-keyboard-response","237","397815","0.0-4.0-6.0-1.0-2.52","null","","null","","","","","","","","./tasks/HMM-beads/Images/BlackBeadChoiceCorrect.png","","","","","","","","","","","","","","",""
"image-keyboard-response","238","398394","0.0-4.0-6.0-1.0-0.53","577","","j","","","","","","","","./tasks/HMM-beads/Images/NewTrialBC.png","highH","53","2","2","1","2","true","","","","","","","",""
"image-keyboard-response","239","398701","0.0-4.0-6.0-1.0-1.53","null","","null","","","","","","","","./tasks/HMM-beads/Images/WhiteBeadChoice.png","","","","","","","","","","","","","","",""
"image-keyboard-response","240","399218","0.0-4.0-6.0-1.0-2.53","null","","null","","","","","","","","./tasks/HMM-beads/Images/WhiteBeadChoiceCorrect.png","","","","","","","","","","","","","","",""
"image-keyboard-response","241","399851","0.0-4.0-6.0-1.0-0.54","633","","f","","","","","","","","./tasks/HMM-beads/Images/NewTrialWC.png","highH","54","1","1","2","1","true","","","","","","","",""
"image-keyboard-response","242","400155","0.0-4.0-6.0-1.0-1.54","null","","null","","","","","","","","./tasks/HMM-beads/Images/BlackBeadChoice.png","","","","","","","","","","","","","","",""
"image-keyboard-response","243","400665","0.0-4.0-6.0-1.0-2.54","null","","null","","","","","","","","./tasks/HMM-beads/Images/BlackBeadChoiceCorrect.png","","","","","","","","","","","","","","",""
"image-keyboard-response","244","401289","0.0-4.0-6.0-1.0-0.55","622","","j","","","","","","","","./tasks/HMM-beads/Images/NewTrialBC.png","highH","55","2","1","1","2","false","","","","","","","",""
"image-keyboard-response","245","401600","0.0-4.0-6.0-1.0-1.55","null","","null","","","","","","","","./tasks/HMM-beads/Images/WhiteBeadChoice.png","","","","","","","","","","","","","","",""
"image-keyboard-response","246","402116","0.0-4.0-6.0-1.0-2.55","null","","null","","","","","","","","./tasks/HMM-beads/Images/WhiteBeadChoiceWrong.png","","","","","","","","","","","","","","",""
"image-keyboard-response","247","402752","0.0-4.0-6.0-1.0-0.56","634","","f","","","","","","","","./tasks/HMM-beads/Images/NewTrialBC.png","highH","56","1","2","1","1","false","","","","","","","",""
"image-keyboard-response","248","403053","0.0-4.0-6.0-1.0-1.56","null","","null","","","","","","","","./tasks/HMM-beads/Images/BlackBeadChoice.png","","","","","","","","","","","","","","",""
"image-keyboard-response","249","403562","0.0-4.0-6.0-1.0-2.56","null","","null","","","","","","","","./tasks/HMM-beads/Images/BlackBeadChoiceWrong.png","","","","","","","","","","","","","","",""
"image-keyboard-response","250","404204","0.0-4.0-6.0-1.0-0.57","642","","j","","","","","","","","./tasks/HMM-beads/Images/NewTrialWC.png","highH","57","2","2","2","2","true","","","","","","","",""
"image-keyboard-response","251","404515","0.0-4.0-6.0-1.0-1.57","null","","null","","","","","","","","./tasks/HMM-beads/Images/WhiteBeadChoice.png","","","","","","","","","","","","","","",""
"image-keyboard-response","252","405028","0.0-4.0-6.0-1.0-2.57","null","","null","","","","","","","","./tasks/HMM-beads/Images/WhiteBeadChoiceCorrect.png","","","","","","","","","","","","","","",""
"image-keyboard-response","253","405742","0.0-4.0-6.0-1.0-0.58","712","","f","","","","","","","","./tasks/HMM-beads/Images/NewTrialWC.png","highH","58","1","1","2","1","true","","","","","","","",""
"image-keyboard-response","254","406058","0.0-4.0-6.0-1.0-1.58","null","","null","","","","","","","","./tasks/HMM-beads/Images/BlackBeadChoice.png","","","","","","","","","","","","","","",""
"image-keyboard-response","255","406574","0.0-4.0-6.0-1.0-2.58","null","","null","","","","","","","","./tasks/HMM-beads/Images/BlackBeadChoiceCorrect.png","","","","","","","","","","","","","","",""
"image-keyboard-response","256","407232","0.0-4.0-6.0-1.0-0.59","660","","j","","","","","","","","./tasks/HMM-beads/Images/NewTrialBC.png","highH","59","2","2","1","2","true","","","","","","","",""
"image-keyboard-response","257","407537","0.0-4.0-6.0-1.0-1.59","null","","null","","","","","","","","./tasks/HMM-beads/Images/WhiteBeadChoice.png","","","","","","","","","","","","","","",""
"image-keyboard-response","258","408052","0.0-4.0-6.0-1.0-2.59","null","","null","","","","","","","","./tasks/HMM-beads/Images/WhiteBeadChoiceCorrect.png","","","","","","","","","","","","","","",""
"image-keyboard-response","259","408684","0.0-4.0-6.0-1.0-0.60","632","","f","","","","","","","","./tasks/HMM-beads/Images/NewTrialWC.png","highH","60","1","1","2","1","true","","","","","","","",""
"image-keyboard-response","260","408986","0.0-4.0-6.0-1.0-1.60","null","","null","","","","","","","","./tasks/HMM-beads/Images/BlackBeadChoice.png","","","","","","","","","","","","","","",""
"image-keyboard-response","261","409501","0.0-4.0-6.0-1.0-2.60","null","","null","","","","","","","","./tasks/HMM-beads/Images/BlackBeadChoiceCorrect.png","","","","","","","","","","","","","","",""
"image-keyboard-response","262","410198","0.0-4.0-6.0-1.0-0.61","695","","j","","","","","","","","./tasks/HMM-beads/Images/NewTrialBC.png","highH","61","2","2","1","2","true","","","","","","","",""
"image-keyboard-response","263","410499","0.0-4.0-6.0-1.0-1.61","null","","null","","","","","","","","./tasks/HMM-beads/Images/WhiteBeadChoice.png","","","","","","","","","","","","","","",""
"image-keyboard-response","264","411015","0.0-4.0-6.0-1.0-2.61","null","","null","","","","","","","","./tasks/HMM-beads/Images/WhiteBeadChoiceCorrect.png","","","","","","","","","","","","","","",""
"image-keyboard-response","265","411681","0.0-4.0-6.0-1.0-0.62","665","","f","","","","","","","","./tasks/HMM-beads/Images/NewTrialWC.png","highH","62","1","1","2","1","true","","","","","","","",""
"image-keyboard-response","266","411996","0.0-4.0-6.0-1.0-1.62","null","","null","","","","","","","","./tasks/HMM-beads/Images/BlackBeadChoice.png","","","","","","","","","","","","","","",""
"image-keyboard-response","267","412511","0.0-4.0-6.0-1.0-2.62","null","","null","","","","","","","","./tasks/HMM-beads/Images/BlackBeadChoiceCorrect.png","","","","","","","","","","","","","","",""
"image-keyboard-response","268","413182","0.0-4.0-6.0-1.0-0.63","670","","j","","","","","","","","./tasks/HMM-beads/Images/NewTrialBC.png","highH","63","2","2","1","2","true","","","","","","","",""
"image-keyboard-response","269","413494","0.0-4.0-6.0-1.0-1.63","null","","null","","","","","","","","./tasks/HMM-beads/Images/WhiteBeadChoice.png","","","","","","","","","","","","","","",""
"image-keyboard-response","270","414006","0.0-4.0-6.0-1.0-2.63","null","","null","","","","","","","","./tasks/HMM-beads/Images/WhiteBeadChoiceCorrect.png","","","","","","","","","","","","","","",""
"image-keyboard-response","271","414632","0.0-4.0-6.0-1.0-0.64","624","","f","","","","","","","","./tasks/HMM-beads/Images/NewTrialWC.png","highH","64","2","2","2","1","false","","","","","","","",""
"image-keyboard-response","272","414940","0.0-4.0-6.0-1.0-1.64","null","","null","","","","","","","","./tasks/HMM-beads/Images/BlackBeadChoice.png","","","","","","","","","","","","","","",""
"image-keyboard-response","273","415452","0.0-4.0-6.0-1.0-2.64","null","","null","","","","","","","","./tasks/HMM-beads/Images/BlackBeadChoiceWrong.png","","","","","","","","","","","","","","",""
"image-keyboard-response","274","416324","0.0-4.0-6.0-1.0-0.65","869","","j","","","","","","","","./tasks/HMM-beads/Images/NewTrialWC.png","highH","65","1","2","2","2","true","","","","","","","",""
"image-keyboard-response","275","416635","0.0-4.0-6.0-1.0-1.65","null","","null","","","","","","","","./tasks/HMM-beads/Images/WhiteBeadChoice.png","","","","","","","","","","","","","","",""
"image-keyboard-response","276","417152","0.0-4.0-6.0-1.0-2.65","null","","null","","","","","","","","./tasks/HMM-beads/Images/WhiteBeadChoiceCorrect.png","","","","","","","","","","","","","","",""
"image-keyboard-response","277","417821","0.0-4.0-6.0-1.0-0.66","668","","f","","","","","","","","./tasks/HMM-beads/Images/NewTrialWC.png","highH","66","2","2","2","1","false","","","","","","","",""
"image-keyboard-response","278","418130","0.0-4.0-6.0-1.0-1.66","null","","null","","","","","","","","./tasks/HMM-beads/Images/BlackBeadChoice.png","","","","","","","","","","","","","","",""
"image-keyboard-response","279","418642","0.0-4.0-6.0-1.0-2.66","null","","null","","","","","","","","./tasks/HMM-beads/Images/BlackBeadChoiceWrong.png","","","","","","","","","","","","","","",""
"image-keyboard-response","280","419359","0.0-4.0-6.0-1.0-0.67","716","","j","","","","","","","","./tasks/HMM-beads/Images/NewTrialWC.png","highH","67","1","1","2","2","false","","","","","","","",""
"image-keyboard-response","281","419672","0.0-4.0-6.0-1.0-1.67","null","","null","","","","","","","","./tasks/HMM-beads/Images/WhiteBeadChoice.png","","","","","","","","","","","","","","",""
"image-keyboard-response","282","420186","0.0-4.0-6.0-1.0-2.67","null","","null","","","","","","","","./tasks/HMM-beads/Images/WhiteBeadChoiceWrong.png","","","","","","","","","","","","","","",""
"image-keyboard-response","283","420884","0.0-4.0-6.0-1.0-0.68","697","","f","","","","","","","","./tasks/HMM-beads/Images/NewTrialBC.png","highH","68","2","2","1","1","false","","","","","","","",""
"image-keyboard-response","284","421199","0.0-4.0-6.0-1.0-1.68","null","","null","","","","","","","","./tasks/HMM-beads/Images/BlackBeadChoice.png","","","","","","","","","","","","","","",""
"image-keyboard-response","285","421714","0.0-4.0-6.0-1.0-2.68","null","","null","","","","","","","","./tasks/HMM-beads/Images/BlackBeadChoiceWrong.png","","","","","","","","","","","","","","",""
"image-keyboard-response","286","422335","0.0-4.0-6.0-1.0-0.69","620","","f","","","","","","","","./tasks/HMM-beads/Images/NewTrialWC.png","highH","69","1","1","2","1","true","","","","","","","",""
"image-keyboard-response","287","422651","0.0-4.0-6.0-1.0-1.69","null","","null","","","","","","","","./tasks/HMM-beads/Images/BlackBeadChoice.png","","","","","","","","","","","","","","",""
"image-keyboard-response","288","423165","0.0-4.0-6.0-1.0-2.69","null","","null","","","","","","","","./tasks/HMM-beads/Images/BlackBeadChoiceCorrect.png","","","","","","","","","","","","","","",""
"image-keyboard-response","289","423846","0.0-4.0-6.0-1.0-0.70","680","","j","","","","","","","","./tasks/HMM-beads/Images/NewTrialBC.png","highH","70","2","2","1","2","true","","","","","","","",""
"image-keyboard-response","290","424148","0.0-4.0-6.0-1.0-1.70","null","","null","","","","","","","","./tasks/HMM-beads/Images/WhiteBeadChoice.png","","","","","","","","","","","","","","",""
"image-keyboard-response","291","424658","0.0-4.0-6.0-1.0-2.70","null","","null","","","","","","","","./tasks/HMM-beads/Images/WhiteBeadChoiceCorrect.png","","","","","","","","","","","","","","",""
"image-keyboard-response","292","425458","0.0-4.0-6.0-1.0-0.71","797","","f","","","","","","","","./tasks/HMM-beads/Images/NewTrialWC.png","highH","71","1","1","2","1","true","","","","","","","",""
"image-keyboard-response","293","425766","0.0-4.0-6.0-1.0-1.71","null","","null","","","","","","","","./tasks/HMM-beads/Images/BlackBeadChoice.png","","","","","","","","","","","","","","",""
"image-keyboard-response","294","426279","0.0-4.0-6.0-1.0-2.71","null","","null","","","","","","","","./tasks/HMM-beads/Images/BlackBeadChoiceCorrect.png","","","","","","","","","","","","","","",""
"image-keyboard-response","295","426940","0.0-4.0-6.0-1.0-0.72","660","","j","","","","","","","","./tasks/HMM-beads/Images/NewTrialBC.png","highH","72","2","1","1","2","false","","","","","","","",""
"image-keyboard-response","296","427245","0.0-4.0-6.0-1.0-1.72","null","","null","","","","","","","","./tasks/HMM-beads/Images/WhiteBeadChoice.png","","","","","","","","","","","","","","",""
"image-keyboard-response","297","427759","0.0-4.0-6.0-1.0-2.72","null","","null","","","","","","","","./tasks/HMM-beads/Images/WhiteBeadChoiceWrong.png","","","","","","","","","","","","","","",""
"image-keyboard-response","298","428436","0.0-4.0-6.0-1.0-0.73","676","","f","","","","","","","","./tasks/HMM-beads/Images/NewTrialBC.png","highH","73","1","1","1","1","true","","","","","","","",""
"image-keyboard-response","299","428741","0.0-4.0-6.0-1.0-1.73","null","","null","","","","","","","","./tasks/HMM-beads/Images/BlackBeadChoice.png","","","","","","","","","","","","","","",""
"image-keyboard-response","300","429254","0.0-4.0-6.0-1.0-2.73","null","","null","","","","","","","","./tasks/HMM-beads/Images/BlackBeadChoiceCorrect.png","","","","","","","","","","","","","","",""
"image-keyboard-response","301","429969","0.0-4.0-6.0-1.0-0.74","713","","j","","","","","","","","./tasks/HMM-beads/Images/NewTrialBC.png","highH","74","2","2","1","2","true","","","","","","","",""
"image-keyboard-response","302","430284","0.0-4.0-6.0-1.0-1.74","null","","null","","","","","","","","./tasks/HMM-beads/Images/WhiteBeadChoice.png","","","","","","","","","","","","","","",""
"image-keyboard-response","303","430798","0.0-4.0-6.0-1.0-2.74","null","","null","","","","","","","","./tasks/HMM-beads/Images/WhiteBeadChoiceCorrect.png","","","","","","","","","","","","","","",""
"image-keyboard-response","304","431435","0.0-4.0-6.0-1.0-0.75","636","","f","","","","","","","","./tasks/HMM-beads/Images/NewTrialWC.png","highH","75","1","1","2","1","true","","","","","","","",""
"image-keyboard-response","305","431748","0.0-4.0-6.0-1.0-1.75","null","","null","","","","","","","","./tasks/HMM-beads/Images/BlackBeadChoice.png","","","","","","","","","","","","","","",""
"image-keyboard-response","306","432264","0.0-4.0-6.0-1.0-2.75","null","","null","","","","","","","","./tasks/HMM-beads/Images/BlackBeadChoiceCorrect.png","","","","","","","","","","","","","","",""
"image-keyboard-response","307","432917","0.0-4.0-6.0-1.0-0.76","652","","j","","","","","","","","./tasks/HMM-beads/Images/NewTrialBC.png","highH","76","2","2","1","2","true","","","","","","","",""
"image-keyboard-response","308","433228","0.0-4.0-6.0-1.0-1.76","null","","null","","","","","","","","./tasks/HMM-beads/Images/WhiteBeadChoice.png","","","","","","","","","","","","","","",""
"image-keyboard-response","309","433742","0.0-4.0-6.0-1.0-2.76","null","","null","","","","","","","","./tasks/HMM-beads/Images/WhiteBeadChoiceCorrect.png","","","","","","","","","","","","","","",""
"image-keyboard-response","310","434411","0.0-4.0-6.0-1.0-0.77","668","","f","","","","","","","","./tasks/HMM-beads/Images/NewTrialWC.png","highH","77","2","2","2","1","false","","","","","","","",""
"image-keyboard-response","311","434723","0.0-4.0-6.0-1.0-1.77","null","","null","","","","","","","","./tasks/HMM-beads/Images/BlackBeadChoice.png","","","","","","","","","","","","","","",""
"image-keyboard-response","312","435237","0.0-4.0-6.0-1.0-2.77","null","","null","","","","","","","","./tasks/HMM-beads/Images/BlackBeadChoiceWrong.png","","","","","","","","","","","","","","",""
"image-keyboard-response","313","435801","0.0-4.0-6.0-1.0-0.78","563","","j","","","","","","","","./tasks/HMM-beads/Images/NewTrialWC.png","highH","78","1","2","2","2","true","","","","","","","",""
"image-keyboard-response","314","436105","0.0-4.0-6.0-1.0-1.78","null","","null","","","","","","","","./tasks/HMM-beads/Images/WhiteBeadChoice.png","","","","","","","","","","","","","","",""
"image-keyboard-response","315","436619","0.0-4.0-6.0-1.0-2.78","null","","null","","","","","","","","./tasks/HMM-beads/Images/WhiteBeadChoiceCorrect.png","","","","","","","","","","","","","","",""
"image-keyboard-response","316","437280","0.0-4.0-6.0-1.0-0.79","660","","f","","","","","","","","./tasks/HMM-beads/Images/NewTrialWC.png","highH","79","2","2","2","1","false","","","","","","","",""
"image-keyboard-response","317","437588","0.0-4.0-6.0-1.0-1.79","null","","null","","","","","","","","./tasks/HMM-beads/Images/BlackBeadChoice.png","","","","","","","","","","","","","","",""
"image-keyboard-response","318","438103","0.0-4.0-6.0-1.0-2.79","null","","null","","","","","","","","./tasks/HMM-beads/Images/BlackBeadChoiceWrong.png","","","","","","","","","","","","","","",""
"image-keyboard-response","319","438734","0.0-4.0-6.0-1.0-0.80","627","","j","","","","","","","","./tasks/HMM-beads/Images/NewTrialWC.png","highH","80","1","1","2","2","false","","","","","","","",""
"image-keyboard-response","320","439039","0.0-4.0-6.0-1.0-1.80","null","","null","","","","","","","","./tasks/HMM-beads/Images/WhiteBeadChoice.png","","","","","","","","","","","","","","",""
"image-keyboard-response","321","439556","0.0-4.0-6.0-1.0-2.80","null","","null","","","","","","","","./tasks/HMM-beads/Images/WhiteBeadChoiceWrong.png","","","","","","","","","","","","","","",""
"image-keyboard-response","322","440251","0.0-4.0-6.0-1.0-0.81","694","","f","","","","","","","","./tasks/HMM-beads/Images/NewTrialBC.png","highH","81","2","2","1","1","false","","","","","","","",""
"image-keyboard-response","323","440565","0.0-4.0-6.0-1.0-1.81","null","","null","","","","","","","","./tasks/HMM-beads/Images/BlackBeadChoice.png","","","","","","","","","","","","","","",""
"image-keyboard-response","324","441079","0.0-4.0-6.0-1.0-2.81","null","","null","","","","","","","","./tasks/HMM-beads/Images/BlackBeadChoiceWrong.png","","","","","","","","","","","","","","",""
"image-keyboard-response","325","442330","0.0-4.0-6.0-1.0-0.82","1250","","j","","","","","","","","./tasks/HMM-beads/Images/NewTrialWC.png","highH","82","1","2","2","2","true","","","","","","","",""
"image-keyboard-response","326","442641","0.0-4.0-6.0-1.0-1.82","null","","null","","","","","","","","./tasks/HMM-beads/Images/WhiteBeadChoice.png","","","","","","","","","","","","","","",""
"image-keyboard-response","327","443156","0.0-4.0-6.0-1.0-2.82","null","","null","","","","","","","","./tasks/HMM-beads/Images/WhiteBeadChoiceCorrect.png","","","","","","","","","","","","","","",""
"image-keyboard-response","328","443863","0.0-4.0-6.0-1.0-0.83","706","","f","","","","","","","","./tasks/HMM-beads/Images/NewTrialWC.png","highH","83","2","2","2","1","false","","","","","","","",""
"image-keyboard-response","329","444171","0.0-4.0-6.0-1.0-1.83","null","","null","","","","","","","","./tasks/HMM-beads/Images/BlackBeadChoice.png","","","","","","","","","","","","","","",""
"image-keyboard-response","330","444686","0.0-4.0-6.0-1.0-2.83","null","","null","","","","","","","","./tasks/HMM-beads/Images/BlackBeadChoiceWrong.png","","","","","","","","","","","","","","",""
"image-keyboard-response","331","445387","0.0-4.0-6.0-1.0-0.84","700","","j","","","","","","","","./tasks/HMM-beads/Images/NewTrialWC.png","highH","84","1","1","2","2","false","","","","","","","",""
"image-keyboard-response","332","445696","0.0-4.0-6.0-1.0-1.84","null","","null","","","","","","","","./tasks/HMM-beads/Images/WhiteBeadChoice.png","","","","","","","","","","","","","","",""
"image-keyboard-response","333","446212","0.0-4.0-6.0-1.0-2.84","null","","null","","","","","","","","./tasks/HMM-beads/Images/WhiteBeadChoiceWrong.png","","","","","","","","","","","","","","",""
"image-keyboard-response","334","446841","0.0-4.0-6.0-1.0-0.85","626","","f","","","","","","","","./tasks/HMM-beads/Images/NewTrialBC.png","highH","85","2","2","1","1","false","","","","","","","",""
"image-keyboard-response","335","447148","0.0-4.0-6.0-1.0-1.85","null","","null","","","","","","","","./tasks/HMM-beads/Images/BlackBeadChoice.png","","","","","","","","","","","","","","",""
"image-keyboard-response","336","447663","0.0-4.0-6.0-1.0-2.85","null","","null","","","","","","","","./tasks/HMM-beads/Images/BlackBeadChoiceWrong.png","","","","","","","","","","","","","","",""
"image-keyboard-response","337","448382","0.0-4.0-6.0-1.0-0.86","720","","f","","","","","","","","./tasks/HMM-beads/Images/NewTrialWC.png","highH","86","1","1","2","1","true","","","","","","","",""
"image-keyboard-response","338","448691","0.0-4.0-6.0-1.0-1.86","null","","null","","","","","","","","./tasks/HMM-beads/Images/BlackBeadChoice.png","","","","","","","","","","","","","","",""
"image-keyboard-response","339","449204","0.0-4.0-6.0-1.0-2.86","null","","null","","","","","","","","./tasks/HMM-beads/Images/BlackBeadChoiceCorrect.png","","","","","","","","","","","","","","",""
"image-keyboard-response","340","449843","0.0-4.0-6.0-1.0-0.87","638","","j","","","","","","","","./tasks/HMM-beads/Images/NewTrialBC.png","highH","87","2","1","1","2","false","","","","","","","",""
"image-keyboard-response","341","450155","0.0-4.0-6.0-1.0-1.87","null","","null","","","","","","","","./tasks/HMM-beads/Images/WhiteBeadChoice.png","","","","","","","","","","","","","","",""
"image-keyboard-response","342","450671","0.0-4.0-6.0-1.0-2.87","null","","null","","","","","","","","./tasks/HMM-beads/Images/WhiteBeadChoiceWrong.png","","","","","","","","","","","","","","",""
"image-keyboard-response","343","451381","0.0-4.0-6.0-1.0-0.88","709","","f","","","","","","","","./tasks/HMM-beads/Images/NewTrialBC.png","highH","88","1","2","1","1","false","","","","","","","",""
"image-keyboard-response","344","451696","0.0-4.0-6.0-1.0-1.88","null","","null","","","","","","","","./tasks/HMM-beads/Images/BlackBeadChoice.png","","","","","","","","","","","","","","",""
"image-keyboard-response","345","452210","0.0-4.0-6.0-1.0-2.88","null","","null","","","","","","","","./tasks/HMM-beads/Images/BlackBeadChoiceWrong.png","","","","","","","","","","","","","","",""
"image-keyboard-response","346","452943","0.0-4.0-6.0-1.0-0.89","732","","f","","","","","","","","./tasks/HMM-beads/Images/NewTrialWC.png","highH","89","2","1","2","1","true","","","","","","","",""
"image-keyboard-response","347","453254","0.0-4.0-6.0-1.0-1.89","null","","null","","","","","","","","./tasks/HMM-beads/Images/BlackBeadChoice.png","","","","","","","","","","","","","","",""
"image-keyboard-response","348","453758","0.0-4.0-6.0-1.0-2.89","null","","null","","","","","","","","./tasks/HMM-beads/Images/BlackBeadChoiceCorrect.png","","","","","","","","","","","","","","",""
"image-keyboard-response","349","454349","0.0-4.0-6.0-1.0-0.90","590","","j","","","","","","","","./tasks/HMM-beads/Images/NewTrialBC.png","highH","90","1","1","1","2","false","","","","","","","",""
"image-keyboard-response","350","454663","0.0-4.0-6.0-1.0-1.90","null","","null","","","","","","","","./tasks/HMM-beads/Images/WhiteBeadChoice.png","","","","","","","","","","","","","","",""
"image-keyboard-response","351","455178","0.0-4.0-6.0-1.0-2.90","null","","null","","","","","","","","./tasks/HMM-beads/Images/WhiteBeadChoiceWrong.png","","","","","","","","","","","","","","",""
"image-keyboard-response","352","455920","0.0-4.0-6.0-1.0-0.91","741","","f","","","","","","","","./tasks/HMM-beads/Images/NewTrialBC.png","highH","91","2","2","1","1","false","","","","","","","",""
"image-keyboard-response","353","456223","0.0-4.0-6.0-1.0-1.91","null","","null","","","","","","","","./tasks/HMM-beads/Images/BlackBeadChoice.png","","","","","","","","","","","","","","",""
"image-keyboard-response","354","456737","0.0-4.0-6.0-1.0-2.91","null","","null","","","","","","","","./tasks/HMM-beads/Images/BlackBeadChoiceWrong.png","","","","","","","","","","","","","","",""
"image-keyboard-response","355","457573","0.0-4.0-6.0-1.0-0.92","837","","j","","","","","","","","./tasks/HMM-beads/Images/NewTrialWC.png","highH","92","1","1","2","2","false","","","","","","","",""
"image-keyboard-response","356","457889","0.0-4.0-6.0-1.0-1.92","null","","null","","","","","","","","./tasks/HMM-beads/Images/WhiteBeadChoice.png","","","","","","","","","","","","","","",""
"image-keyboard-response","357","458399","0.0-4.0-6.0-1.0-2.92","null","","null","","","","","","","","./tasks/HMM-beads/Images/WhiteBeadChoiceWrong.png","","","","","","","","","","","","","","",""
"image-keyboard-response","358","459017","0.0-4.0-6.0-1.0-0.93","619","","j","","","","","","","","./tasks/HMM-beads/Images/NewTrialBC.png","highH","93","2","2","1","2","true","","","","","","","",""
"image-keyboard-response","359","459321","0.0-4.0-6.0-1.0-1.93","null","","null","","","","","","","","./tasks/HMM-beads/Images/WhiteBeadChoice.png","","","","","","","","","","","","","","",""
"image-keyboard-response","360","459838","0.0-4.0-6.0-1.0-2.93","null","","null","","","","","","","","./tasks/HMM-beads/Images/WhiteBeadChoiceCorrect.png","","","","","","","","","","","","","","",""
"image-keyboard-response","361","460550","0.0-4.0-6.0-1.0-0.94","710","","f","","","","","","","","./tasks/HMM-beads/Images/NewTrialWC.png","highH","94","1","1","2","1","true","","","","","","","",""
"image-keyboard-response","362","460866","0.0-4.0-6.0-1.0-1.94","null","","null","","","","","","","","./tasks/HMM-beads/Images/BlackBeadChoice.png","","","","","","","","","","","","","","",""
"image-keyboard-response","363","461376","0.0-4.0-6.0-1.0-2.94","null","","null","","","","","","","","./tasks/HMM-beads/Images/BlackBeadChoiceCorrect.png","","","","","","","","","","","","","","",""
"image-keyboard-response","364","462110","0.0-4.0-6.0-1.0-0.95","733","","j","","","","","","","","./tasks/HMM-beads/Images/NewTrialBC.png","highH","95","2","1","1","2","false","","","","","","","",""
"image-keyboard-response","365","462419","0.0-4.0-6.0-1.0-1.95","null","","null","","","","","","","","./tasks/HMM-beads/Images/WhiteBeadChoice.png","","","","","","","","","","","","","","",""
"image-keyboard-response","366","462935","0.0-4.0-6.0-1.0-2.95","null","","null","","","","","","","","./tasks/HMM-beads/Images/WhiteBeadChoiceWrong.png","","","","","","","","","","","","","","",""
"image-keyboard-response","367","463691","0.0-4.0-6.0-1.0-0.96","753","","f","","","","","","","","./tasks/HMM-beads/Images/NewTrialBC.png","highH","96","1","2","1","1","false","","","","","","","",""
"image-keyboard-response","368","463993","0.0-4.0-6.0-1.0-1.96","null","","null","","","","","","","","./tasks/HMM-beads/Images/BlackBeadChoice.png","","","","","","","","","","","","","","",""
"image-keyboard-response","369","464507","0.0-4.0-6.0-1.0-2.96","null","","null","","","","","","","","./tasks/HMM-beads/Images/BlackBeadChoiceWrong.png","","","","","","","","","","","","","","",""
"image-keyboard-response","370","465215","0.0-4.0-6.0-1.0-0.97","706","","j","","","","","","","","./tasks/HMM-beads/Images/NewTrialWC.png","highH","97","2","2","2","2","true","","","","","","","",""
"image-keyboard-response","371","465521","0.0-4.0-6.0-1.0-1.97","null","","null","","","","","","","","./tasks/HMM-beads/Images/WhiteBeadChoice.png","","","","","","","","","","","","","","",""
"image-keyboard-response","372","466038","0.0-4.0-6.0-1.0-2.97","null","","null","","","","","","","","./tasks/HMM-beads/Images/WhiteBeadChoiceCorrect.png","","","","","","","","","","","","","","",""
"image-keyboard-response","373","466712","0.0-4.0-6.0-1.0-0.98","673","","f","","","","","","","","./tasks/HMM-beads/Images/NewTrialWC.png","highH","98","1","1","2","1","true","","","","","","","",""
"image-keyboard-response","374","467018","0.0-4.0-6.0-1.0-1.98","null","","null","","","","","","","","./tasks/HMM-beads/Images/BlackBeadChoice.png","","","","","","","","","","","","","","",""
"image-keyboard-response","375","467534","0.0-4.0-6.0-1.0-2.98","null","","null","","","","","","","","./tasks/HMM-beads/Images/BlackBeadChoiceCorrect.png","","","","","","","","","","","","","","",""
"image-keyboard-response","376","468221","0.0-4.0-6.0-1.0-0.99","684","","j","","","","","","","","./tasks/HMM-beads/Images/NewTrialBC.png","highH","99","2","1","1","2","false","","","","","","","",""
"image-keyboard-response","377","468532","0.0-4.0-6.0-1.0-1.99","null","","null","","","","","","","","./tasks/HMM-beads/Images/WhiteBeadChoice.png","","","","","","","","","","","","","","",""
"image-keyboard-response","378","469038","0.0-4.0-6.0-1.0-2.99","null","","null","","","","","","","","./tasks/HMM-beads/Images/WhiteBeadChoiceWrong.png","","","","","","","","","","","","","","",""
"image-keyboard-response","379","469676","0.0-4.0-6.0-1.0-0.100","638","","f","","","","","","","","./tasks/HMM-beads/Images/NewTrialBC.png","highH","100","1","1","1","1","true","","","","","","","",""
"image-keyboard-response","380","469991","0.0-4.0-6.0-1.0-1.100","null","","null","","","","","","","","./tasks/HMM-beads/Images/BlackBeadChoice.png","","","","","","","","","","","","","","",""
"image-keyboard-response","381","470504","0.0-4.0-6.0-1.0-2.100","null","","null","","","","","","","","./tasks/HMM-beads/Images/BlackBeadChoiceCorrect.png","","","","","","","","","","","","","","",""
"image-keyboard-response","382","471152","0.0-4.0-6.0-1.0-0.101","646","","j","","","","","","","","./tasks/HMM-beads/Images/NewTrialBC.png","highH","101","2","2","1","2","true","","","","","","","",""
"image-keyboard-response","383","471453","0.0-4.0-6.0-1.0-1.101","null","","null","","","","","","","","./tasks/HMM-beads/Images/WhiteBeadChoice.png","","","","","","","","","","","","","","",""
"image-keyboard-response","384","471970","0.0-4.0-6.0-1.0-2.101","null","","null","","","","","","","","./tasks/HMM-beads/Images/WhiteBeadChoiceCorrect.png","","","","","","","","","","","","","","",""
"image-keyboard-response","385","472596","0.0-4.0-6.0-1.0-0.102","624","","f","","","","","","","","./tasks/HMM-beads/Images/NewTrialWC.png","highH","102","1","1","2","1","true","","","","","","","",""
"image-keyboard-response","386","472906","0.0-4.0-6.0-1.0-1.102","null","","null","","","","","","","","./tasks/HMM-beads/Images/BlackBeadChoice.png","","","","","","","","","","","","","","",""
"image-keyboard-response","387","473419","0.0-4.0-6.0-1.0-2.102","null","","null","","","","","","","","./tasks/HMM-beads/Images/BlackBeadChoiceCorrect.png","","","","","","","","","","","","","","",""
"image-keyboard-response","388","474052","0.0-4.0-6.0-1.0-0.103","630","","j","","","","","","","","./tasks/HMM-beads/Images/NewTrialBC.png","highH","103","2","2","1","2","true","","","","","","","",""
"image-keyboard-response","389","474356","0.0-4.0-6.0-1.0-1.103","null","","null","","","","","","","","./tasks/HMM-beads/Images/WhiteBeadChoice.png","","","","","","","","","","","","","","",""
"image-keyboard-response","390","474868","0.0-4.0-6.0-1.0-2.103","null","","null","","","","","","","","./tasks/HMM-beads/Images/WhiteBeadChoiceCorrect.png","","","","","","","","","","","","","","",""
"image-keyboard-response","391","475392","0.0-4.0-6.0-1.0-0.104","522","","f","","","","","","","","./tasks/HMM-beads/Images/NewTrialWC.png","highH","104","1","1","2","1","true","","","","","","","",""
"image-keyboard-response","392","475697","0.0-4.0-6.0-1.0-1.104","null","","null","","","","","","","","./tasks/HMM-beads/Images/BlackBeadChoice.png","","","","","","","","","","","","","","",""
"image-keyboard-response","393","476210","0.0-4.0-6.0-1.0-2.104","null","","null","","","","","","","","./tasks/HMM-beads/Images/BlackBeadChoiceCorrect.png","","","","","","","","","","","","","","",""
"image-keyboard-response","394","476926","0.0-4.0-6.0-1.0-0.105","715","","j","","","","","","","","./tasks/HMM-beads/Images/NewTrialBC.png","highH","105","2","1","1","2","false","","","","","","","",""
"image-keyboard-response","395","477236","0.0-4.0-6.0-1.0-1.105","null","","null","","","","","","","","./tasks/HMM-beads/Images/WhiteBeadChoice.png","","","","","","","","","","","","","","",""
"image-keyboard-response","396","477747","0.0-4.0-6.0-1.0-2.105","null","","null","","","","","","","","./tasks/HMM-beads/Images/WhiteBeadChoiceWrong.png","","","","","","","","","","","","","","",""
"image-keyboard-response","397","478403","0.0-4.0-6.0-1.0-0.106","654","","f","","","","","","","","./tasks/HMM-beads/Images/NewTrialBC.png","highH","106","1","1","1","1","true","","","","","","","",""
"image-keyboard-response","398","478712","0.0-4.0-6.0-1.0-1.106","null","","null","","","","","","","","./tasks/HMM-beads/Images/BlackBeadChoice.png","","","","","","","","","","","","","","",""
"image-keyboard-response","399","479226","0.0-4.0-6.0-1.0-2.106","null","","null","","","","","","","","./tasks/HMM-beads/Images/BlackBeadChoiceCorrect.png","","","","","","","","","","","","","","",""
"image-keyboard-response","400","479937","0.0-4.0-6.0-1.0-0.107","710","","j","","","","","","","","./tasks/HMM-beads/Images/NewTrialBC.png","highH","107","2","1","1","2","false","","","","","","","",""
"image-keyboard-response","401","480241","0.0-4.0-6.0-1.0-1.107","null","","null","","","","","","","","./tasks/HMM-beads/Images/WhiteBeadChoice.png","","","","","","","","","","","","","","",""
"image-keyboard-response","402","480753","0.0-4.0-6.0-1.0-2.107","null","","null","","","","","","","","./tasks/HMM-beads/Images/WhiteBeadChoiceWrong.png","","","","","","","","","","","","","","",""
"image-keyboard-response","403","481367","0.0-4.0-6.0-1.0-0.108","612","","f","","","","","","","","./tasks/HMM-beads/Images/NewTrialBC.png","highH","108","1","1","1","1","true","","","","","","","",""
"image-keyboard-response","404","481674","0.0-4.0-6.0-1.0-1.108","null","","null","","","","","","","","./tasks/HMM-beads/Images/BlackBeadChoice.png","","","","","","","","","","","","","","",""
"image-keyboard-response","405","482185","0.0-4.0-6.0-1.0-2.108","null","","null","","","","","","","","./tasks/HMM-beads/Images/BlackBeadChoiceCorrect.png","","","","","","","","","","","","","","",""
"image-keyboard-response","406","482907","0.0-4.0-6.0-1.0-0.109","721","","j","","","","","","","","./tasks/HMM-beads/Images/NewTrialBC.png","highH","109","2","2","1","2","true","","","","","","","",""
"image-keyboard-response","407","483212","0.0-4.0-6.0-1.0-1.109","null","","null","","","","","","","","./tasks/HMM-beads/Images/WhiteBeadChoice.png","","","","","","","","","","","","","","",""
"image-keyboard-response","408","483727","0.0-4.0-6.0-1.0-2.109","null","","null","","","","","","","","./tasks/HMM-beads/Images/WhiteBeadChoiceCorrect.png","","","","","","","","","","","","","","",""
"image-keyboard-response","409","484374","0.0-4.0-6.0-1.0-0.110","644","","f","","","","","","","","./tasks/HMM-beads/Images/NewTrialWC.png","highH","110","1","2","2","1","false","","","","","","","",""
"image-keyboard-response","410","484678","0.0-4.0-6.0-1.0-1.110","null","","null","","","","","","","","./tasks/HMM-beads/Images/BlackBeadChoice.png","","","","","","","","","","","","","","",""
"image-keyboard-response","411","485195","0.0-4.0-6.0-1.0-2.110","null","","null","","","","","","","","./tasks/HMM-beads/Images/BlackBeadChoiceWrong.png","","","","","","","","","","","","","","",""
"image-keyboard-response","412","485866","0.0-4.0-6.0-1.0-0.111","670","","j","","","","","","","","./tasks/HMM-beads/Images/NewTrialWC.png","highH","111","2","2","2","2","true","","","","","","","",""
"image-keyboard-response","413","486174","0.0-4.0-6.0-1.0-1.111","null","","null","","","","","","","","./tasks/HMM-beads/Images/WhiteBeadChoice.png","","","","","","","","","","","","","","",""
"image-keyboard-response","414","486676","0.0-4.0-6.0-1.0-2.111","null","","null","","","","","","","","./tasks/HMM-beads/Images/WhiteBeadChoiceCorrect.png","","","","","","","","","","","","","","",""
"image-keyboard-response","415","487356","0.0-4.0-6.0-1.0-0.112","680","","f","","","","","","","","./tasks/HMM-beads/Images/NewTrialWC.png","highH","112","1","1","2","1","true","","","","","","","",""
"image-keyboard-response","416","487672","0.0-4.0-6.0-1.0-1.112","null","","null","","","","","","","","./tasks/HMM-beads/Images/BlackBeadChoice.png","","","","","","","","","","","","","","",""
"image-keyboard-response","417","488174","0.0-4.0-6.0-1.0-2.112","null","","null","","","","","","","","./tasks/HMM-beads/Images/BlackBeadChoiceCorrect.png","","","","","","","","","","","","","","",""
"image-keyboard-response","418","488916","0.0-4.0-6.0-1.0-0.113","741","","j","","","","","","","","./tasks/HMM-beads/Images/NewTrialBC.png","highH","113","2","1","1","2","false","","","","","","","",""
"image-keyboard-response","419","489230","0.0-4.0-6.0-1.0-1.113","null","","null","","","","","","","","./tasks/HMM-beads/Images/WhiteBeadChoice.png","","","","","","","","","","","","","","",""
"image-keyboard-response","420","489743","0.0-4.0-6.0-1.0-2.113","null","","null","","","","","","","","./tasks/HMM-beads/Images/WhiteBeadChoiceWrong.png","","","","","","","","","","","","","","",""
"image-keyboard-response","421","490416","0.0-4.0-6.0-1.0-0.114","672","","f","","","","","","","","./tasks/HMM-beads/Images/NewTrialBC.png","highH","114","1","2","1","1","false","","","","","","","",""
"image-keyboard-response","422","490728","0.0-4.0-6.0-1.0-1.114","null","","null","","","","","","","","./tasks/HMM-beads/Images/BlackBeadChoice.png","","","","","","","","","","","","","","",""
"image-keyboard-response","423","491243","0.0-4.0-6.0-1.0-2.114","null","","null","","","","","","","","./tasks/HMM-beads/Images/BlackBeadChoiceWrong.png","","","","","","","","","","","","","","",""
"image-keyboard-response","424","491888","0.0-4.0-6.0-1.0-0.115","645","","j","","","","","","","","./tasks/HMM-beads/Images/NewTrialWC.png","highH","115","2","1","2","2","false","","","","","","","",""
"image-keyboard-response","425","492194","0.0-4.0-6.0-1.0-1.115","null","","null","","","","","","","","./tasks/HMM-beads/Images/WhiteBeadChoice.png","","","","","","","","","","","","","","",""
"image-keyboard-response","426","492707","0.0-4.0-6.0-1.0-2.115","null","","null","","","","","","","","./tasks/HMM-beads/Images/WhiteBeadChoiceWrong.png","","","","","","","","","","","","","","",""
"image-keyboard-response","427","493380","0.0-4.0-6.0-1.0-0.116","672","","f","","","","","","","","./tasks/HMM-beads/Images/NewTrialBC.png","highH","116","1","1","1","1","true","","","","","","","",""
"image-keyboard-response","428","493695","0.0-4.0-6.0-1.0-1.116","null","","null","","","","","","","","./tasks/HMM-beads/Images/BlackBeadChoice.png","","","","","","","","","","","","","","",""
"image-keyboard-response","429","494204","0.0-4.0-6.0-1.0-2.116","null","","null","","","","","","","","./tasks/HMM-beads/Images/BlackBeadChoiceCorrect.png","","","","","","","","","","","","","","",""
"image-keyboard-response","430","494826","0.0-4.0-6.0-1.0-0.117","622","","j","","","","","","","","./tasks/HMM-beads/Images/NewTrialBC.png","highH","117","2","2","1","2","true","","","","","","","",""
"image-keyboard-response","431","495136","0.0-4.0-6.0-1.0-1.117","null","","null","","","","","","","","./tasks/HMM-beads/Images/WhiteBeadChoice.png","","","","","","","","","","","","","","",""
"image-keyboard-response","432","495649","0.0-4.0-6.0-1.0-2.117","null","","null","","","","","","","","./tasks/HMM-beads/Images/WhiteBeadChoiceCorrect.png","","","","","","","","","","","","","","",""
"image-keyboard-response","433","496390","0.0-4.0-6.0-1.0-0.118","737","","f","","","","","","","","./tasks/HMM-beads/Images/NewTrialWC.png","highH","118","1","1","2","1","true","","","","","","","",""
"image-keyboard-response","434","496692","0.0-4.0-6.0-1.0-1.118","null","","null","","","","","","","","./tasks/HMM-beads/Images/BlackBeadChoice.png","","","","","","","","","","","","","","",""
"image-keyboard-response","435","497206","0.0-4.0-6.0-1.0-2.118","null","","null","","","","","","","","./tasks/HMM-beads/Images/BlackBeadChoiceCorrect.png","","","","","","","","","","","","","","",""
"image-keyboard-response","436","497942","0.0-4.0-6.0-1.0-0.119","734","","j","","","","","","","","./tasks/HMM-beads/Images/NewTrialBC.png","highH","119","2","1","1","2","false","","","","","","","",""
"image-keyboard-response","437","498248","0.0-4.0-6.0-1.0-1.119","null","","null","","","","","","","","./tasks/HMM-beads/Images/WhiteBeadChoice.png","","","","","","","","","","","","","","",""
"image-keyboard-response","438","498750","0.0-4.0-6.0-1.0-2.119","null","","null","","","","","","","","./tasks/HMM-beads/Images/WhiteBeadChoiceWrong.png","","","","","","","","","","","","","","",""
"image-keyboard-response","439","499434","0.0-4.0-6.0-1.0-0.120","682","","f","","","","","","","","./tasks/HMM-beads/Images/NewTrialBC.png","highH","120","1","1","1","1","true","","","","","","","",""
"image-keyboard-response","440","499749","0.0-4.0-6.0-1.0-1.120","null","","null","","","","","","","","./tasks/HMM-beads/Images/BlackBeadChoice.png","","","","","","","","","","","","","","",""
"image-keyboard-response","441","500261","0.0-4.0-6.0-1.0-2.120","null","","null","","","","","","","","./tasks/HMM-beads/Images/BlackBeadChoiceCorrect.png","","","","","","","","","","","","","","",""
"image-keyboard-response","442","500879","0.0-4.0-6.0-1.0-0.121","615","","j","","","","","","","","./tasks/HMM-beads/Images/NewTrialBC.png","highH","121","2","1","1","2","false","","","","","","","",""
"image-keyboard-response","443","501180","0.0-4.0-6.0-1.0-1.121","null","","null","","","","","","","","./tasks/HMM-beads/Images/WhiteBeadChoice.png","","","","","","","","","","","","","","",""
"image-keyboard-response","444","501696","0.0-4.0-6.0-1.0-2.121","null","","null","","","","","","","","./tasks/HMM-beads/Images/WhiteBeadChoiceWrong.png","","","","","","","","","","","","","","",""
"image-keyboard-response","445","502473","0.0-4.0-6.0-1.0-0.122","776","","f","","","","","","","","./tasks/HMM-beads/Images/NewTrialBC.png","highH","122","2","2","1","1","false","","","","","","","",""
"image-keyboard-response","446","502785","0.0-4.0-6.0-1.0-1.122","null","","null","","","","","","","","./tasks/HMM-beads/Images/BlackBeadChoice.png","","","","","","","","","","","","","","",""
"image-keyboard-response","447","503298","0.0-4.0-6.0-1.0-2.122","null","","null","","","","","","","","./tasks/HMM-beads/Images/BlackBeadChoiceWrong.png","","","","","","","","","","","","","","",""
"image-keyboard-response","448","503958","0.0-4.0-6.0-1.0-0.123","658","","j","","","","","","","","./tasks/HMM-beads/Images/NewTrialWC.png","highH","123","1","1","2","2","false","","","","","","","",""
"image-keyboard-response","449","504266","0.0-4.0-6.0-1.0-1.123","null","","null","","","","","","","","./tasks/HMM-beads/Images/WhiteBeadChoice.png","","","","","","","","","","","","","","",""
"image-keyboard-response","450","504779","0.0-4.0-6.0-1.0-2.123","null","","null","","","","","","","","./tasks/HMM-beads/Images/WhiteBeadChoiceWrong.png","","","","","","","","","","","","","","",""
"image-keyboard-response","451","505477","0.0-4.0-6.0-1.0-0.124","695","","j","","","","","","","","./tasks/HMM-beads/Images/NewTrialBC.png","highH","124","2","2","1","2","true","","","","","","","",""
"image-keyboard-response","452","505781","0.0-4.0-6.0-1.0-1.124","null","","null","","","","","","","","./tasks/HMM-beads/Images/WhiteBeadChoice.png","","","","","","","","","","","","","","",""
"image-keyboard-response","453","506293","0.0-4.0-6.0-1.0-2.124","null","","null","","","","","","","","./tasks/HMM-beads/Images/WhiteBeadChoiceCorrect.png","","","","","","","","","","","","","","",""
"image-keyboard-response","454","507051","0.0-4.0-6.0-1.0-0.125","757","","f","","","","","","","","./tasks/HMM-beads/Images/NewTrialWC.png","highH","125","1","1","2","1","true","","","","","","","",""
"image-keyboard-response","455","507367","0.0-4.0-6.0-1.0-1.125","null","","null","","","","","","","","./tasks/HMM-beads/Images/BlackBeadChoice.png","","","","","","","","","","","","","","",""
"image-keyboard-response","456","507881","0.0-4.0-6.0-1.0-2.125","null","","null","","","","","","","","./tasks/HMM-beads/Images/BlackBeadChoiceCorrect.png","","","","","","","","","","","","","","",""
"image-keyboard-response","457","508535","0.0-4.0-6.0-1.0-0.126","654","","j","","","","","","","","./tasks/HMM-beads/Images/NewTrialBC.png","highH","126","2","2","1","2","true","","","","","","","",""
"image-keyboard-response","458","508848","0.0-4.0-6.0-1.0-1.126","null","","null","","","","","","","","./tasks/HMM-beads/Images/WhiteBeadChoice.png","","","","","","","","","","","","","","",""
"image-keyboard-response","459","509362","0.0-4.0-6.0-1.0-2.126","null","","null","","","","","","","","./tasks/HMM-beads/Images/WhiteBeadChoiceCorrect.png","","","","","","","","","","","","","","",""
"image-keyboard-response","460","510116","0.0-4.0-6.0-1.0-0.127","753","","f","","","","","","","","./tasks/HMM-beads/Images/NewTrialWC.png","highH","127","1","1","2","1","true","","","","","","","",""
"image-keyboard-response","461","510432","0.0-4.0-6.0-1.0-1.127","null","","null","","","","","","","","./tasks/HMM-beads/Images/BlackBeadChoice.png","","","","","","","","","","","","","","",""
"image-keyboard-response","462","510945","0.0-4.0-6.0-1.0-2.127","null","","null","","","","","","","","./tasks/HMM-beads/Images/BlackBeadChoiceCorrect.png","","","","","","","","","","","","","","",""
"image-keyboard-response","463","511646","0.0-4.0-6.0-1.0-0.128","698","","j","","","","","","","","./tasks/HMM-beads/Images/NewTrialBC.png","highH","128","2","2","1","2","true","","","","","","","",""
"image-keyboard-response","464","511947","0.0-4.0-6.0-1.0-1.128","null","","null","","","","","","","","./tasks/HMM-beads/Images/WhiteBeadChoice.png","","","","","","","","","","","","","","",""
"image-keyboard-response","465","512461","0.0-4.0-6.0-1.0-2.128","null","","null","","","","","","","","./tasks/HMM-beads/Images/WhiteBeadChoiceCorrect.png","","","","","","","","","","","","","","",""
"image-keyboard-response","466","513145","0.0-4.0-6.0-1.0-0.129","684","","f","","","","","","","","./tasks/HMM-beads/Images/NewTrialWC.png","highH","129","1","2","2","1","false","","","","","","","",""
"image-keyboard-response","467","513459","0.0-4.0-6.0-1.0-1.129","null","","null","","","","","","","","./tasks/HMM-beads/Images/BlackBeadChoice.png","","","","","","","","","","","","","","",""
"image-keyboard-response","468","513971","0.0-4.0-6.0-1.0-2.129","null","","null","","","","","","","","./tasks/HMM-beads/Images/BlackBeadChoiceWrong.png","","","","","","","","","","","","","","",""
"image-keyboard-response","469","514620","0.0-4.0-6.0-1.0-0.130","646","","j","","","","","","","","./tasks/HMM-beads/Images/NewTrialWC.png","highH","130","2","2","2","2","true","","","","","","","",""
"image-keyboard-response","470","514925","0.0-4.0-6.0-1.0-1.130","null","","null","","","","","","","","./tasks/HMM-beads/Images/WhiteBeadChoice.png","","","","","","","","","","","","","","",""
"image-keyboard-response","471","515436","0.0-4.0-6.0-1.0-2.130","null","","null","","","","","","","","./tasks/HMM-beads/Images/WhiteBeadChoiceCorrect.png","","","","","","","","","","","","","","",""
"image-keyboard-response","472","516118","0.0-4.0-6.0-1.0-0.131","680","","f","","","","","","","","./tasks/HMM-beads/Images/NewTrialWC.png","highH","131","1","1","2","1","true","","","","","","","",""
"image-keyboard-response","473","516432","0.0-4.0-6.0-1.0-1.131","null","","null","","","","","","","","./tasks/HMM-beads/Images/BlackBeadChoice.png","","","","","","","","","","","","","","",""
"image-keyboard-response","474","516946","0.0-4.0-6.0-1.0-2.131","null","","null","","","","","","","","./tasks/HMM-beads/Images/BlackBeadChoiceCorrect.png","","","","","","","","","","","","","","",""
"image-keyboard-response","475","517579","0.0-4.0-6.0-1.0-0.132","633","","f","","","","","","","","./tasks/HMM-beads/Images/NewTrialBC.png","highH","132","2","2","1","1","false","","","","","","","",""
"image-keyboard-response","476","517896","0.0-4.0-6.0-1.0-1.132","null","","null","","","","","","","","./tasks/HMM-beads/Images/BlackBeadChoice.png","","","","","","","","","","","","","","",""
"image-keyboard-response","477","518408","0.0-4.0-6.0-1.0-2.132","null","","null","","","","","","","","./tasks/HMM-beads/Images/BlackBeadChoiceWrong.png","","","","","","","","","","","","","","",""
"image-keyboard-response","478","519271","0.0-4.0-6.0-1.0-0.133","862","","f","","","","","","","","./tasks/HMM-beads/Images/NewTrialWC.png","highH","133","1","1","2","1","true","","","","","","","",""
"image-keyboard-response","479","519580","0.0-4.0-6.0-1.0-1.133","null","","null","","","","","","","","./tasks/HMM-beads/Images/BlackBeadChoice.png","","","","","","","","","","","","","","",""
"image-keyboard-response","480","520096","0.0-4.0-6.0-1.0-2.133","null","","null","","","","","","","","./tasks/HMM-beads/Images/BlackBeadChoiceCorrect.png","","","","","","","","","","","","","","",""
"image-keyboard-response","481","520734","0.0-4.0-6.0-1.0-0.134","637","","j","","","","","","","","./tasks/HMM-beads/Images/NewTrialBC.png","highH","134","2","2","1","2","true","","","","","","","",""
"image-keyboard-response","482","521043","0.0-4.0-6.0-1.0-1.134","null","","null","","","","","","","","./tasks/HMM-beads/Images/WhiteBeadChoice.png","","","","","","","","","","","","","","",""
"image-keyboard-response","483","521560","0.0-4.0-6.0-1.0-2.134","null","","null","","","","","","","","./tasks/HMM-beads/Images/WhiteBeadChoiceCorrect.png","","","","","","","","","","","","","","",""
"image-keyboard-response","484","522280","0.0-4.0-6.0-1.0-0.135","719","","f","","","","","","","","./tasks/HMM-beads/Images/NewTrialWC.png","highH","135","1","1","2","1","true","","","","","","","",""
"image-keyboard-response","485","522584","0.0-4.0-6.0-1.0-1.135","null","","null","","","","","","","","./tasks/HMM-beads/Images/BlackBeadChoice.png","","","","","","","","","","","","","","",""
"image-keyboard-response","486","523100","0.0-4.0-6.0-1.0-2.135","null","","null","","","","","","","","./tasks/HMM-beads/Images/BlackBeadChoiceCorrect.png","","","","","","","","","","","","","","",""
"image-keyboard-response","487","523675","0.0-4.0-6.0-1.0-0.136","574","","j","","","","","","","","./tasks/HMM-beads/Images/NewTrialBC.png","highH","136","2","2","1","2","true","","","","","","","",""
"image-keyboard-response","488","523984","0.0-4.0-6.0-1.0-1.136","null","","null","","","","","","","","./tasks/HMM-beads/Images/WhiteBeadChoice.png","","","","","","","","","","","","","","",""
"image-keyboard-response","489","524498","0.0-4.0-6.0-1.0-2.136","null","","null","","","","","","","","./tasks/HMM-beads/Images/WhiteBeadChoiceCorrect.png","","","","","","","","","","","","","","",""
"image-keyboard-response","490","524972","0.0-4.0-6.0-1.0-0.137","473","","f","","","","","","","","./tasks/HMM-beads/Images/NewTrialWC.png","highH","137","1","1","2","1","true","","","","","","","",""
"image-keyboard-response","491","525280","0.0-4.0-6.0-1.0-1.137","null","","null","","","","","","","","./tasks/HMM-beads/Images/BlackBeadChoice.png","","","","","","","","","","","","","","",""
"image-keyboard-response","492","525795","0.0-4.0-6.0-1.0-2.137","null","","null","","","","","","","","./tasks/HMM-beads/Images/BlackBeadChoiceCorrect.png","","","","","","","","","","","","","","",""
"image-keyboard-response","493","526383","0.0-4.0-6.0-1.0-0.138","586","","j","","","","","","","","./tasks/HMM-beads/Images/NewTrialBC.png","highH","138","2","2","1","2","true","","","","","","","",""
"image-keyboard-response","494","526685","0.0-4.0-6.0-1.0-1.138","null","","null","","","","","","","","./tasks/HMM-beads/Images/WhiteBeadChoice.png","","","","","","","","","","","","","","",""
"image-keyboard-response","495","527199","0.0-4.0-6.0-1.0-2.138","null","","null","","","","","","","","./tasks/HMM-beads/Images/WhiteBeadChoiceCorrect.png","","","","","","","","","","","","","","",""
"image-keyboard-response","496","527862","0.0-4.0-6.0-1.0-0.139","663","","f","","","","","","","","./tasks/HMM-beads/Images/NewTrialWC.png","highH","139","1","1","2","1","true","","","","","","","",""
"image-keyboard-response","497","528178","0.0-4.0-6.0-1.0-1.139","null","","null","","","","","","","","./tasks/HMM-beads/Images/BlackBeadChoice.png","","","","","","","","","","","","","","",""
"image-keyboard-response","498","528693","0.0-4.0-6.0-1.0-2.139","null","","null","","","","","","","","./tasks/HMM-beads/Images/BlackBeadChoiceCorrect.png","","","","","","","","","","","","","","",""
"image-keyboard-response","499","529237","0.0-4.0-6.0-1.0-0.140","542","","j","","","","","","","","./tasks/HMM-beads/Images/NewTrialBC.png","highH","140","2","2","1","2","true","","","","","","","",""
