"trial_type","trial_index","time_elapsed","internal_node_id","subject_id","study_id","session_id","rt","url","response","question_order","view_history","success","timeout","failed_images","failed_audio","failed_video","stimulus","block","trial_number","state","choice","rewarded","state1_action","state2_visited","state1_key","state2_key","state1_rt","state2_rt","two_arm_score","jar","bead","previous_bead","correct","lowH_score","highH_score","total_bonus"
"pavlovia","0","643","0.0-0.0","60520f7b38610f36b366a806","6359551218e5c682346227eb","0ixb5nh1bzrf","","","","","","","","","","","","","","","","","","","","","","","","","","","","","",""
"external-html","1","4295","0.0-1.0-0.0","60520f7b38610f36b366a806","6359551218e5c682346227eb","0ixb5nh1bzrf","3647","new_consent.html","","","","","","","","","","","","","","","","","","","","","","","","","","","",""
"survey-multi-choice","2","7987","0.0-1.0-1.0","60520f7b38610f36b366a806","6359551218e5c682346227eb","0ixb5nh1bzrf","3690","","{""Q0"":""Agender"",""Q1"":""Hispanic or Latino""}","[0,1]","","","","","","","","","","","","","","","","","","","","","","","","","",""
"survey-text","3","9513","0.0-1.0-2.0","60520f7b38610f36b366a806","6359551218e5c682346227eb","0ixb5nh1bzrf","1523","","{""Q0"":""fe""}","","","","","","","","","","","","","","","","","","","","","","","","","","",""
"instructions","4","10275","0.0-2.0","60520f7b38610f36b366a806","6359551218e5c682346227eb","0ixb5nh1bzrf","656","","","","[{""page_index"":0,""viewing_time"":503},{""page_index"":1,""viewing_time"":153}]","","","","","","","","","","","","","","","","","","","","","","","","",""
"instructions","5","10398","0.0-3.0","60520f7b38610f36b366a806","6359551218e5c682346227eb","0ixb5nh1bzrf","122","","","","[{""page_index"":0,""viewing_time"":122}]","","","","","","","","","","","","","","","","","","","","","","","","",""
"preload","6","10481","0.0-4.0-0.0","60520f7b38610f36b366a806","6359551218e5c682346227eb","0ixb5nh1bzrf","","","","","","true","false","[]","[]","[]","","","","","","","","","","","","","","","","","","","",""
"instructions","7","11504","0.0-4.0-1.0","60520f7b38610f36b366a806","6359551218e5c682346227eb","0ixb5nh1bzrf","1021","","","","[{""page_index"":0,""viewing_time"":27},{""page_index"":1,""viewing_time"":540},{""page_index"":2,""viewing_time"":138},{""page_index"":3,""viewing_time"":178},{""page_index"":4,""viewing_time"":138}]","","","","","","","","","","","","","","","","","","","","","","","","",""
"html-keyboard-response","8","11688","0.0-4.0-2.0-0.0","60520f7b38610f36b366a806","6359551218e5c682346227eb","0ixb5nh1bzrf","185","","j","","","","","","","","<div style=""background-image: url('./tasks/two-arm-new/img/green_planet.png')""><div id=""jspsych-space-daw-top-stim-left"" ></div><div id=""jspsych-space-daw-top-stim-middle"" ></div><div id=""jspsych-space-daw-top-stim-right"" ></div><div style=""clear:both""></div><div id=""jspsych-space-daw-bottom-stim-left"" style=""background-image: url('./tasks/two-arm-new/img/green_stim_2_deact.png')""></div><div id=""jspsych-space-daw-bottom-stim-middle"" ></div><div id=""jspsych-space-daw-bottom-stim-right"" style=""background-image: url('./tasks/two-arm-new/img/green_stim_1.png')""></div></div>","good_alien_practice","0","green","1","1","","","","","","","","","","","","","",""
"html-keyboard-response","9","12191","0.0-4.0-2.0-1.0","60520f7b38610f36b366a806","6359551218e5c682346227eb","0ixb5nh1bzrf","null","","null","","","","","","","","<div style=""background-image: url('./tasks/two-arm-new/img/green_planet.png')""><div id=""jspsych-space-daw-top-stim-left"" ></div><div id=""jspsych-space-daw-top-stim-middle"" ></div><div id=""jspsych-space-daw-top-stim-right"" ></div><div style=""clear:both""></div><div id=""jspsych-space-daw-bottom-stim-left"" style=""background-image: url('./tasks/two-arm-new/img/green_stim_2_deact.png')""></div><div id=""jspsych-space-daw-bottom-stim-middle"" ></div><div id=""jspsych-space-daw-bottom-stim-right"" class=""jspsych-space-daw-bottom-stim-border"" style=""background-image: url('./tasks/two-arm-new/img/green_stim_1.png')""></div></div>","","","","","","","","","","","","","","","","","","",""
"html-keyboard-response","10","13195","0.0-4.0-2.0-2.0","60520f7b38610f36b366a806","6359551218e5c682346227eb","0ixb5nh1bzrf","null","","null","","","","","","","","<div style=""background-image: url('./tasks/two-arm-new/img/green_planet.png')""><div id=""jspsych-space-daw-top-stim-left"" ></div><div id=""jspsych-space-daw-top-stim-middle"" ></div><div id=""jspsych-space-daw-top-stim-right"" style=""background-image: url('./tasks/two-arm-new/img/treasure.png')""></div><div style=""clear:both""></div><div id=""jspsych-space-daw-bottom-stim-left"" style=""background-image: url('./tasks/two-arm-new/img/green_stim_2_deact.png')""></div><div id=""jspsych-space-daw-bottom-stim-middle"" ></div><div id=""jspsych-space-daw-bottom-stim-right"" class=""jspsych-space-daw-bottom-stim-border"" style=""background-image: url('./tasks/two-arm-new/img/green_stim_1.png')""></div></div>","","","","","","","","","","","","","","","","","","",""
"html-keyboard-response","11","13552","0.0-4.0-2.0-0.1","60520f7b38610f36b366a806","6359551218e5c682346227eb","0ixb5nh1bzrf","353","","f","","","","","","","","<div style=""background-image: url('./tasks/two-arm-new/img/green_planet.png')""><div id=""jspsych-space-daw-top-stim-left"" ></div><div id=""jspsych-space-daw-top-stim-middle"" ></div><div id=""jspsych-space-daw-top-stim-right"" ></div><div style=""clear:both""></div><div id=""jspsych-space-daw-bottom-stim-left"" style=""background-image: url('./tasks/two-arm-new/img/green_stim_1.png')""></div><div id=""jspsych-space-daw-bottom-stim-middle"" ></div><div id=""jspsych-space-daw-bottom-stim-right"" style=""background-image: url('./tasks/two-arm-new/img/green_stim_2_deact.png')""></div></div>","good_alien_practice","1","green","1","1","","","","","","","","","","","","","",""
"html-keyboard-response","12","14062","0.0-4.0-2.0-1.1","60520f7b38610f36b366a806","6359551218e5c682346227eb","0ixb5nh1bzrf","null","","null","","","","","","","","<div style=""background-image: url('./tasks/two-arm-new/img/green_planet.png')""><div id=""jspsych-space-daw-top-stim-left"" ></div><div id=""jspsych-space-daw-top-stim-middle"" ></div><div id=""jspsych-space-daw-top-stim-right"" ></div><div style=""clear:both""></div><div id=""jspsych-space-daw-bottom-stim-left"" class=""jspsych-space-daw-bottom-stim-border"" style=""background-image: url('./tasks/two-arm-new/img/green_stim_1.png')""></div><div id=""jspsych-space-daw-bottom-stim-middle"" ></div><div id=""jspsych-space-daw-bottom-stim-right"" style=""background-image: url('./tasks/two-arm-new/img/green_stim_2_deact.png')""></div></div>","","","","","","","","","","","","","","","","","","",""
"html-keyboard-response","13","15071","0.0-4.0-2.0-2.1","60520f7b38610f36b366a806","6359551218e5c682346227eb","0ixb5nh1bzrf","null","","null","","","","","","","","<div style=""background-image: url('./tasks/two-arm-new/img/green_planet.png')""><div id=""jspsych-space-daw-top-stim-left"" style=""background-image: url('./tasks/two-arm-new/img/treasure.png')""></div><div id=""jspsych-space-daw-top-stim-middle"" ></div><div id=""jspsych-space-daw-top-stim-right"" ></div><div style=""clear:both""></div><div id=""jspsych-space-daw-bottom-stim-left"" class=""jspsych-space-daw-bottom-stim-border"" style=""background-image: url('./tasks/two-arm-new/img/green_stim_1.png')""></div><div id=""jspsych-space-daw-bottom-stim-middle"" ></div><div id=""jspsych-space-daw-bottom-stim-right"" style=""background-image: url('./tasks/two-arm-new/img/green_stim_2_deact.png')""></div></div>","","","","","","","","","","","","","","","","","","",""
"html-keyboard-response","14","15074","0.0-4.0-2.0-0.2","60520f7b38610f36b366a806","6359551218e5c682346227eb","0ixb5nh1bzrf","2","","j","","","","","","","","<div style=""background-image: url('./tasks/two-arm-new/img/green_planet.png')""><div id=""jspsych-space-daw-top-stim-left"" ></div><div id=""jspsych-space-daw-top-stim-middle"" ></div><div id=""jspsych-space-daw-top-stim-right"" ></div><div style=""clear:both""></div><div id=""jspsych-space-daw-bottom-stim-left"" style=""background-image: url('./tasks/two-arm-new/img/green_stim_2_deact.png')""></div><div id=""jspsych-space-daw-bottom-stim-middle"" ></div><div id=""jspsych-space-daw-bottom-stim-right"" style=""background-image: url('./tasks/two-arm-new/img/green_stim_1.png')""></div></div>","good_alien_practice","2","green","1","1","","","","","","","","","","","","","",""
"html-keyboard-response","15","15577","0.0-4.0-2.0-1.2","60520f7b38610f36b366a806","6359551218e5c682346227eb","0ixb5nh1bzrf","null","","null","","","","","","","","<div style=""background-image: url('./tasks/two-arm-new/img/green_planet.png')""><div id=""jspsych-space-daw-top-stim-left"" ></div><div id=""jspsych-space-daw-top-stim-middle"" ></div><div id=""jspsych-space-daw-top-stim-right"" ></div><div style=""clear:both""></div><div id=""jspsych-space-daw-bottom-stim-left"" style=""background-image: url('./tasks/two-arm-new/img/green_stim_2_deact.png')""></div><div id=""jspsych-space-daw-bottom-stim-middle"" ></div><div id=""jspsych-space-daw-bottom-stim-right"" class=""jspsych-space-daw-bottom-stim-border"" style=""background-image: url('./tasks/two-arm-new/img/green_stim_1.png')""></div></div>","","","","","","","","","","","","","","","","","","",""
"html-keyboard-response","16","16586","0.0-4.0-2.0-2.2","60520f7b38610f36b366a806","6359551218e5c682346227eb","0ixb5nh1bzrf","null","","null","","","","","","","","<div style=""background-image: url('./tasks/two-arm-new/img/green_planet.png')""><div id=""jspsych-space-daw-top-stim-left"" ></div><div id=""jspsych-space-daw-top-stim-middle"" ></div><div id=""jspsych-space-daw-top-stim-right"" style=""background-image: url('./tasks/two-arm-new/img/treasure.png')""></div><div style=""clear:both""></div><div id=""jspsych-space-daw-bottom-stim-left"" style=""background-image: url('./tasks/two-arm-new/img/green_stim_2_deact.png')""></div><div id=""jspsych-space-daw-bottom-stim-middle"" ></div><div id=""jspsych-space-daw-bottom-stim-right"" class=""jspsych-space-daw-bottom-stim-border"" style=""background-image: url('./tasks/two-arm-new/img/green_stim_1.png')""></div></div>","","","","","","","","","","","","","","","","","","",""
"html-keyboard-response","17","16628","0.0-4.0-2.0-0.3","60520f7b38610f36b366a806","6359551218e5c682346227eb","0ixb5nh1bzrf","40","","j","","","","","","","","<div style=""background-image: url('./tasks/two-arm-new/img/green_planet.png')""><div id=""jspsych-space-daw-top-stim-left"" ></div><div id=""jspsych-space-daw-top-stim-middle"" ></div><div id=""jspsych-space-daw-top-stim-right"" ></div><div style=""clear:both""></div><div id=""jspsych-space-daw-bottom-stim-left"" style=""background-image: url('./tasks/two-arm-new/img/green_stim_2_deact.png')""></div><div id=""jspsych-space-daw-bottom-stim-middle"" ></div><div id=""jspsych-space-daw-bottom-stim-right"" style=""background-image: url('./tasks/two-arm-new/img/green_stim_1.png')""></div></div>","good_alien_practice","3","green","1","0","","","","","","","","","","","","","",""
"html-keyboard-response","18","17129","0.0-4.0-2.0-1.3","60520f7b38610f36b366a806","6359551218e5c682346227eb","0ixb5nh1bzrf","null","","null","","","","","","","","<div style=""background-image: url('./tasks/two-arm-new/img/green_planet.png')""><div id=""jspsych-space-daw-top-stim-left"" ></div><div id=""jspsych-space-daw-top-stim-middle"" ></div><div id=""jspsych-space-daw-top-stim-right"" ></div><div style=""clear:both""></div><div id=""jspsych-space-daw-bottom-stim-left"" style=""background-image: url('./tasks/two-arm-new/img/green_stim_2_deact.png')""></div><div id=""jspsych-space-daw-bottom-stim-middle"" ></div><div id=""jspsych-space-daw-bottom-stim-right"" class=""jspsych-space-daw-bottom-stim-border"" style=""background-image: url('./tasks/two-arm-new/img/green_stim_1.png')""></div></div>","","","","","","","","","","","","","","","","","","",""
"html-keyboard-response","19","18136","0.0-4.0-2.0-2.3","60520f7b38610f36b366a806","6359551218e5c682346227eb","0ixb5nh1bzrf","null","","null","","","","","","","","<div style=""background-image: url('./tasks/two-arm-new/img/green_planet.png')""><div id=""jspsych-space-daw-top-stim-left"" ></div><div id=""jspsych-space-daw-top-stim-middle"" ></div><div id=""jspsych-space-daw-top-stim-right"" style=""background-image: url('./tasks/two-arm-new/img/noreward.png')""></div><div style=""clear:both""></div><div id=""jspsych-space-daw-bottom-stim-left"" style=""background-image: url('./tasks/two-arm-new/img/green_stim_2_deact.png')""></div><div id=""jspsych-space-daw-bottom-stim-middle"" ></div><div id=""jspsych-space-daw-bottom-stim-right"" class=""jspsych-space-daw-bottom-stim-border"" style=""background-image: url('./tasks/two-arm-new/img/green_stim_1_sad.png')""></div></div>","","","","","","","","","","","","","","","","","","",""
"html-keyboard-response","20","18233","0.0-4.0-2.0-0.4","60520f7b38610f36b366a806","6359551218e5c682346227eb","0ixb5nh1bzrf","96","","f","","","","","","","","<div style=""background-image: url('./tasks/two-arm-new/img/green_planet.png')""><div id=""jspsych-space-daw-top-stim-left"" ></div><div id=""jspsych-space-daw-top-stim-middle"" ></div><div id=""jspsych-space-daw-top-stim-right"" ></div><div style=""clear:both""></div><div id=""jspsych-space-daw-bottom-stim-left"" style=""background-image: url('./tasks/two-arm-new/img/green_stim_1.png')""></div><div id=""jspsych-space-daw-bottom-stim-middle"" ></div><div id=""jspsych-space-daw-bottom-stim-right"" style=""background-image: url('./tasks/two-arm-new/img/green_stim_2_deact.png')""></div></div>","good_alien_practice","4","green","1","1","","","","","","","","","","","","","",""
"html-keyboard-response","21","18738","0.0-4.0-2.0-1.4","60520f7b38610f36b366a806","6359551218e5c682346227eb","0ixb5nh1bzrf","null","","null","","","","","","","","<div style=""background-image: url('./tasks/two-arm-new/img/green_planet.png')""><div id=""jspsych-space-daw-top-stim-left"" ></div><div id=""jspsych-space-daw-top-stim-middle"" ></div><div id=""jspsych-space-daw-top-stim-right"" ></div><div style=""clear:both""></div><div id=""jspsych-space-daw-bottom-stim-left"" class=""jspsych-space-daw-bottom-stim-border"" style=""background-image: url('./tasks/two-arm-new/img/green_stim_1.png')""></div><div id=""jspsych-space-daw-bottom-stim-middle"" ></div><div id=""jspsych-space-daw-bottom-stim-right"" style=""background-image: url('./tasks/two-arm-new/img/green_stim_2_deact.png')""></div></div>","","","","","","","","","","","","","","","","","","",""
"html-keyboard-response","22","19741","0.0-4.0-2.0-2.4","60520f7b38610f36b366a806","6359551218e5c682346227eb","0ixb5nh1bzrf","null","","null","","","","","","","","<div style=""background-image: url('./tasks/two-arm-new/img/green_planet.png')""><div id=""jspsych-space-daw-top-stim-left"" style=""background-image: url('./tasks/two-arm-new/img/treasure.png')""></div><div id=""jspsych-space-daw-top-stim-middle"" ></div><div id=""jspsych-space-daw-top-stim-right"" ></div><div style=""clear:both""></div><div id=""jspsych-space-daw-bottom-stim-left"" class=""jspsych-space-daw-bottom-stim-border"" style=""background-image: url('./tasks/two-arm-new/img/green_stim_1.png')""></div><div id=""jspsych-space-daw-bottom-stim-middle"" ></div><div id=""jspsych-space-daw-bottom-stim-right"" style=""background-image: url('./tasks/two-arm-new/img/green_stim_2_deact.png')""></div></div>","","","","","","","","","","","","","","","","","","",""
"instructions","23","19787","0.0-4.0-3.0","60520f7b38610f36b366a806","6359551218e5c682346227eb","0ixb5nh1bzrf","43","","","","[{""page_index"":0,""viewing_time"":43}]","","","","","","","","","","","","","","","","","","","","","","","","",""
"html-keyboard-response","24","20338","0.0-4.0-4.0-0.0","60520f7b38610f36b366a806","6359551218e5c682346227eb","0ixb5nh1bzrf","551","","f","","","","","","","","<div style=""background-image: url('./tasks/two-arm-new/img/yellow_planet.png')""><div id=""jspsych-space-daw-top-stim-left"" ></div><div id=""jspsych-space-daw-top-stim-middle"" ></div><div id=""jspsych-space-daw-top-stim-right"" ></div><div style=""clear:both""></div><div id=""jspsych-space-daw-bottom-stim-left"" style=""background-image: url('./tasks/two-arm-new/img/yellow_stim_1.png')""></div><div id=""jspsych-space-daw-bottom-stim-middle"" ></div><div id=""jspsych-space-daw-bottom-stim-right"" style=""background-image: url('./tasks/two-arm-new/img/yellow_stim_2_deact.png')""></div></div>","bad_alien_practice","0","yellow","1","0","","","","","","","","","","","","","",""
"html-keyboard-response","25","20847","0.0-4.0-4.0-1.0","60520f7b38610f36b366a806","6359551218e5c682346227eb","0ixb5nh1bzrf","null","","null","","","","","","","","<div style=""background-image: url('./tasks/two-arm-new/img/yellow_planet.png')""><div id=""jspsych-space-daw-top-stim-left"" ></div><div id=""jspsych-space-daw-top-stim-middle"" ></div><div id=""jspsych-space-daw-top-stim-right"" ></div><div style=""clear:both""></div><div id=""jspsych-space-daw-bottom-stim-left"" class=""jspsych-space-daw-bottom-stim-border"" style=""background-image: url('./tasks/two-arm-new/img/yellow_stim_1.png')""></div><div id=""jspsych-space-daw-bottom-stim-middle"" ></div><div id=""jspsych-space-daw-bottom-stim-right"" style=""background-image: url('./tasks/two-arm-new/img/yellow_stim_2_deact.png')""></div></div>","","","","","","","","","","","","","","","","","","",""
"html-keyboard-response","26","21849","0.0-4.0-4.0-2.0","60520f7b38610f36b366a806","6359551218e5c682346227eb","0ixb5nh1bzrf","null","","null","","","","","","","","<div style=""background-image: url('./tasks/two-arm-new/img/yellow_planet.png')""><div id=""jspsych-space-daw-top-stim-left"" style=""background-image: url('./tasks/two-arm-new/img/noreward.png')""></div><div id=""jspsych-space-daw-top-stim-middle"" ></div><div id=""jspsych-space-daw-top-stim-right"" ></div><div style=""clear:both""></div><div id=""jspsych-space-daw-bottom-stim-left"" class=""jspsych-space-daw-bottom-stim-border"" style=""background-image: url('./tasks/two-arm-new/img/yellow_stim_1_sad.png')""></div><div id=""jspsych-space-daw-bottom-stim-middle"" ></div><div id=""jspsych-space-daw-bottom-stim-right"" style=""background-image: url('./tasks/two-arm-new/img/yellow_stim_2_deact.png')""></div></div>","","","","","","","","","","","","","","","","","","",""
"html-keyboard-response","27","21973","0.0-4.0-4.0-0.1","60520f7b38610f36b366a806","6359551218e5c682346227eb","0ixb5nh1bzrf","124","","f","","","","","","","","<div style=""background-image: url('./tasks/two-arm-new/img/yellow_planet.png')""><div id=""jspsych-space-daw-top-stim-left"" ></div><div id=""jspsych-space-daw-top-stim-middle"" ></div><div id=""jspsych-space-daw-top-stim-right"" ></div><div style=""clear:both""></div><div id=""jspsych-space-daw-bottom-stim-left"" style=""background-image: url('./tasks/two-arm-new/img/yellow_stim_1.png')""></div><div id=""jspsych-space-daw-bottom-stim-middle"" ></div><div id=""jspsych-space-daw-bottom-stim-right"" style=""background-image: url('./tasks/two-arm-new/img/yellow_stim_2_deact.png')""></div></div>","bad_alien_practice","1","yellow","1","1","","","","","","","","","","","","","",""
"html-keyboard-response","28","22485","0.0-4.0-4.0-1.1","60520f7b38610f36b366a806","6359551218e5c682346227eb","0ixb5nh1bzrf","null","","null","","","","","","","","<div style=""background-image: url('./tasks/two-arm-new/img/yellow_planet.png')""><div id=""jspsych-space-daw-top-stim-left"" ></div><div id=""jspsych-space-daw-top-stim-middle"" ></div><div id=""jspsych-space-daw-top-stim-right"" ></div><div style=""clear:both""></div><div id=""jspsych-space-daw-bottom-stim-left"" class=""jspsych-space-daw-bottom-stim-border"" style=""background-image: url('./tasks/two-arm-new/img/yellow_stim_1.png')""></div><div id=""jspsych-space-daw-bottom-stim-middle"" ></div><div id=""jspsych-space-daw-bottom-stim-right"" style=""background-image: url('./tasks/two-arm-new/img/yellow_stim_2_deact.png')""></div></div>","","","","","","","","","","","","","","","","","","",""
"html-keyboard-response","29","23495","0.0-4.0-4.0-2.1","60520f7b38610f36b366a806","6359551218e5c682346227eb","0ixb5nh1bzrf","null","","null","","","","","","","","<div style=""background-image: url('./tasks/two-arm-new/img/yellow_planet.png')""><div id=""jspsych-space-daw-top-stim-left"" style=""background-image: url('./tasks/two-arm-new/img/treasure.png')""></div><div id=""jspsych-space-daw-top-stim-middle"" ></div><div id=""jspsych-space-daw-top-stim-right"" ></div><div style=""clear:both""></div><div id=""jspsych-space-daw-bottom-stim-left"" class=""jspsych-space-daw-bottom-stim-border"" style=""background-image: url('./tasks/two-arm-new/img/yellow_stim_1.png')""></div><div id=""jspsych-space-daw-bottom-stim-middle"" ></div><div id=""jspsych-space-daw-bottom-stim-right"" style=""background-image: url('./tasks/two-arm-new/img/yellow_stim_2_deact.png')""></div></div>","","","","","","","","","","","","","","","","","","",""
"html-keyboard-response","30","23536","0.0-4.0-4.0-0.2","60520f7b38610f36b366a806","6359551218e5c682346227eb","0ixb5nh1bzrf","40","","j","","","","","","","","<div style=""background-image: url('./tasks/two-arm-new/img/yellow_planet.png')""><div id=""jspsych-space-daw-top-stim-left"" ></div><div id=""jspsych-space-daw-top-stim-middle"" ></div><div id=""jspsych-space-daw-top-stim-right"" ></div><div style=""clear:both""></div><div id=""jspsych-space-daw-bottom-stim-left"" style=""background-image: url('./tasks/two-arm-new/img/yellow_stim_2_deact.png')""></div><div id=""jspsych-space-daw-bottom-stim-middle"" ></div><div id=""jspsych-space-daw-bottom-stim-right"" style=""background-image: url('./tasks/two-arm-new/img/yellow_stim_1.png')""></div></div>","bad_alien_practice","2","yellow","1","0","","","","","","","","","","","","","",""
"html-keyboard-response","31","24040","0.0-4.0-4.0-1.2","60520f7b38610f36b366a806","6359551218e5c682346227eb","0ixb5nh1bzrf","null","","null","","","","","","","","<div style=""background-image: url('./tasks/two-arm-new/img/yellow_planet.png')""><div id=""jspsych-space-daw-top-stim-left"" ></div><div id=""jspsych-space-daw-top-stim-middle"" ></div><div id=""jspsych-space-daw-top-stim-right"" ></div><div style=""clear:both""></div><div id=""jspsych-space-daw-bottom-stim-left"" style=""background-image: url('./tasks/two-arm-new/img/yellow_stim_2_deact.png')""></div><div id=""jspsych-space-daw-bottom-stim-middle"" ></div><div id=""jspsych-space-daw-bottom-stim-right"" class=""jspsych-space-daw-bottom-stim-border"" style=""background-image: url('./tasks/two-arm-new/img/yellow_stim_1.png')""></div></div>","","","","","","","","","","","","","","","","","","",""
"html-keyboard-response","32","25048","0.0-4.0-4.0-2.2","60520f7b38610f36b366a806","6359551218e5c682346227eb","0ixb5nh1bzrf","null","","null","","","","","","","","<div style=""background-image: url('./tasks/two-arm-new/img/yellow_planet.png')""><div id=""jspsych-space-daw-top-stim-left"" ></div><div id=""jspsych-space-daw-top-stim-middle"" ></div><div id=""jspsych-space-daw-top-stim-right"" style=""background-image: url('./tasks/two-arm-new/img/noreward.png')""></div><div style=""clear:both""></div><div id=""jspsych-space-daw-bottom-stim-left"" style=""background-image: url('./tasks/two-arm-new/img/yellow_stim_2_deact.png')""></div><div id=""jspsych-space-daw-bottom-stim-middle"" ></div><div id=""jspsych-space-daw-bottom-stim-right"" class=""jspsych-space-daw-bottom-stim-border"" style=""background-image: url('./tasks/two-arm-new/img/yellow_stim_1_sad.png')""></div></div>","","","","","","","","","","","","","","","","","","",""
"html-keyboard-response","33","25167","0.0-4.0-4.0-0.3","60520f7b38610f36b366a806","6359551218e5c682346227eb","0ixb5nh1bzrf","118","","f","","","","","","","","<div style=""background-image: url('./tasks/two-arm-new/img/yellow_planet.png')""><div id=""jspsych-space-daw-top-stim-left"" ></div><div id=""jspsych-space-daw-top-stim-middle"" ></div><div id=""jspsych-space-daw-top-stim-right"" ></div><div style=""clear:both""></div><div id=""jspsych-space-daw-bottom-stim-left"" style=""background-image: url('./tasks/two-arm-new/img/yellow_stim_1.png')""></div><div id=""jspsych-space-daw-bottom-stim-middle"" ></div><div id=""jspsych-space-daw-bottom-stim-right"" style=""background-image: url('./tasks/two-arm-new/img/yellow_stim_2_deact.png')""></div></div>","bad_alien_practice","3","yellow","1","0","","","","","","","","","","","","","",""
"html-keyboard-response","34","25683","0.0-4.0-4.0-1.3","60520f7b38610f36b366a806","6359551218e5c682346227eb","0ixb5nh1bzrf","null","","null","","","","","","","","<div style=""background-image: url('./tasks/two-arm-new/img/yellow_planet.png')""><div id=""jspsych-space-daw-top-stim-left"" ></div><div id=""jspsych-space-daw-top-stim-middle"" ></div><div id=""jspsych-space-daw-top-stim-right"" ></div><div style=""clear:both""></div><div id=""jspsych-space-daw-bottom-stim-left"" class=""jspsych-space-daw-bottom-stim-border"" style=""background-image: url('./tasks/two-arm-new/img/yellow_stim_1.png')""></div><div id=""jspsych-space-daw-bottom-stim-middle"" ></div><div id=""jspsych-space-daw-bottom-stim-right"" style=""background-image: url('./tasks/two-arm-new/img/yellow_stim_2_deact.png')""></div></div>","","","","","","","","","","","","","","","","","","",""
"html-keyboard-response","35","26693","0.0-4.0-4.0-2.3","60520f7b38610f36b366a806","6359551218e5c682346227eb","0ixb5nh1bzrf","null","","null","","","","","","","","<div style=""background-image: url('./tasks/two-arm-new/img/yellow_planet.png')""><div id=""jspsych-space-daw-top-stim-left"" style=""background-image: url('./tasks/two-arm-new/img/noreward.png')""></div><div id=""jspsych-space-daw-top-stim-middle"" ></div><div id=""jspsych-space-daw-top-stim-right"" ></div><div style=""clear:both""></div><div id=""jspsych-space-daw-bottom-stim-left"" class=""jspsych-space-daw-bottom-stim-border"" style=""background-image: url('./tasks/two-arm-new/img/yellow_stim_1_sad.png')""></div><div id=""jspsych-space-daw-bottom-stim-middle"" ></div><div id=""jspsych-space-daw-bottom-stim-right"" style=""background-image: url('./tasks/two-arm-new/img/yellow_stim_2_deact.png')""></div></div>","","","","","","","","","","","","","","","","","","",""
"html-keyboard-response","36","26805","0.0-4.0-4.0-0.4","60520f7b38610f36b366a806","6359551218e5c682346227eb","0ixb5nh1bzrf","111","","j","","","","","","","","<div style=""background-image: url('./tasks/two-arm-new/img/yellow_planet.png')""><div id=""jspsych-space-daw-top-stim-left"" ></div><div id=""jspsych-space-daw-top-stim-middle"" ></div><div id=""jspsych-space-daw-top-stim-right"" ></div><div style=""clear:both""></div><div id=""jspsych-space-daw-bottom-stim-left"" style=""background-image: url('./tasks/two-arm-new/img/yellow_stim_2_deact.png')""></div><div id=""jspsych-space-daw-bottom-stim-middle"" ></div><div id=""jspsych-space-daw-bottom-stim-right"" style=""background-image: url('./tasks/two-arm-new/img/yellow_stim_1.png')""></div></div>","bad_alien_practice","4","yellow","1","0","","","","","","","","","","","","","",""
"html-keyboard-response","37","27314","0.0-4.0-4.0-1.4","60520f7b38610f36b366a806","6359551218e5c682346227eb","0ixb5nh1bzrf","null","","null","","","","","","","","<div style=""background-image: url('./tasks/two-arm-new/img/yellow_planet.png')""><div id=""jspsych-space-daw-top-stim-left"" ></div><div id=""jspsych-space-daw-top-stim-middle"" ></div><div id=""jspsych-space-daw-top-stim-right"" ></div><div style=""clear:both""></div><div id=""jspsych-space-daw-bottom-stim-left"" style=""background-image: url('./tasks/two-arm-new/img/yellow_stim_2_deact.png')""></div><div id=""jspsych-space-daw-bottom-stim-middle"" ></div><div id=""jspsych-space-daw-bottom-stim-right"" class=""jspsych-space-daw-bottom-stim-border"" style=""background-image: url('./tasks/two-arm-new/img/yellow_stim_1.png')""></div></div>","","","","","","","","","","","","","","","","","","",""
"html-keyboard-response","38","28318","0.0-4.0-4.0-2.4","60520f7b38610f36b366a806","6359551218e5c682346227eb","0ixb5nh1bzrf","null","","null","","","","","","","","<div style=""background-image: url('./tasks/two-arm-new/img/yellow_planet.png')""><div id=""jspsych-space-daw-top-stim-left"" ></div><div id=""jspsych-space-daw-top-stim-middle"" ></div><div id=""jspsych-space-daw-top-stim-right"" style=""background-image: url('./tasks/two-arm-new/img/noreward.png')""></div><div style=""clear:both""></div><div id=""jspsych-space-daw-bottom-stim-left"" style=""background-image: url('./tasks/two-arm-new/img/yellow_stim_2_deact.png')""></div><div id=""jspsych-space-daw-bottom-stim-middle"" ></div><div id=""jspsych-space-daw-bottom-stim-right"" class=""jspsych-space-daw-bottom-stim-border"" style=""background-image: url('./tasks/two-arm-new/img/yellow_stim_1_sad.png')""></div></div>","","","","","","","","","","","","","","","","","","",""
"instructions","39","28324","0.0-4.0-5.0","60520f7b38610f36b366a806","6359551218e5c682346227eb","0ixb5nh1bzrf","6","","","","[{""page_index"":0,""viewing_time"":6}]","","","","","","","","","","","","","","","","","","","","","","","","",""
"html-keyboard-response","40","28394","0.0-4.0-6.0-0.0","60520f7b38610f36b366a806","6359551218e5c682346227eb","0ixb5nh1bzrf","69","","f","","","","","","","","<div style=""background-image: url('./tasks/two-arm-new/img/green_planet.png')""><div id=""jspsych-space-daw-top-stim-left"" ></div><div id=""jspsych-space-daw-top-stim-middle"" ></div><div id=""jspsych-space-daw-top-stim-right"" ></div><div style=""clear:both""></div><div id=""jspsych-space-daw-bottom-stim-left"" style=""background-image: url('./tasks/two-arm-new/img/green_stim_2.png')""></div><div id=""jspsych-space-daw-bottom-stim-middle"" ></div><div id=""jspsych-space-daw-bottom-stim-right"" style=""background-image: url('./tasks/two-arm-new/img/green_stim_1.png')""></div></div>","aliens_practice","0","green","2","1","","","","","","","","","","","","","",""
"html-keyboard-response","41","28908","0.0-4.0-6.0-1.0","60520f7b38610f36b366a806","6359551218e5c682346227eb","0ixb5nh1bzrf","null","","null","","","","","","","","<div style=""background-image: url('./tasks/two-arm-new/img/green_planet.png')""><div id=""jspsych-space-daw-top-stim-left"" ></div><div id=""jspsych-space-daw-top-stim-middle"" ></div><div id=""jspsych-space-daw-top-stim-right"" ></div><div style=""clear:both""></div><div id=""jspsych-space-daw-bottom-stim-left"" class=""jspsych-space-daw-bottom-stim-border"" style=""background-image: url('./tasks/two-arm-new/img/green_stim_2.png')""></div><div id=""jspsych-space-daw-bottom-stim-middle"" ></div><div id=""jspsych-space-daw-bottom-stim-right"" style=""background-image: url('./tasks/two-arm-new/img/green_stim_1.png')""></div></div>","","","","","","","","","","","","","","","","","","",""
"html-keyboard-response","42","29918","0.0-4.0-6.0-2.0","60520f7b38610f36b366a806","6359551218e5c682346227eb","0ixb5nh1bzrf","null","","null","","","","","","","","<div style=""background-image: url('./tasks/two-arm-new/img/green_planet.png')""><div id=""jspsych-space-daw-top-stim-left"" style=""background-image: url('./tasks/two-arm-new/img/treasure.png')""></div><div id=""jspsych-space-daw-top-stim-middle"" ></div><div id=""jspsych-space-daw-top-stim-right"" ></div><div style=""clear:both""></div><div id=""jspsych-space-daw-bottom-stim-left"" class=""jspsych-space-daw-bottom-stim-border"" style=""background-image: url('./tasks/two-arm-new/img/green_stim_2.png')""></div><div id=""jspsych-space-daw-bottom-stim-middle"" ></div><div id=""jspsych-space-daw-bottom-stim-right"" style=""background-image: url('./tasks/two-arm-new/img/green_stim_1.png')""></div></div>","","","","","","","","","","","","","","","","","","",""
"html-keyboard-response","43","30062","0.0-4.0-6.0-0.1","60520f7b38610f36b366a806","6359551218e5c682346227eb","0ixb5nh1bzrf","143","","j","","","","","","","","<div style=""background-image: url('./tasks/two-arm-new/img/green_planet.png')""><div id=""jspsych-space-daw-top-stim-left"" ></div><div id=""jspsych-space-daw-top-stim-middle"" ></div><div id=""jspsych-space-daw-top-stim-right"" ></div><div style=""clear:both""></div><div id=""jspsych-space-daw-bottom-stim-left"" style=""background-image: url('./tasks/two-arm-new/img/green_stim_2.png')""></div><div id=""jspsych-space-daw-bottom-stim-middle"" ></div><div id=""jspsych-space-daw-bottom-stim-right"" style=""background-image: url('./tasks/two-arm-new/img/green_stim_1.png')""></div></div>","aliens_practice","1","green","1","0","","","","","","","","","","","","","",""
"html-keyboard-response","44","30572","0.0-4.0-6.0-1.1","60520f7b38610f36b366a806","6359551218e5c682346227eb","0ixb5nh1bzrf","null","","null","","","","","","","","<div style=""background-image: url('./tasks/two-arm-new/img/green_planet.png')""><div id=""jspsych-space-daw-top-stim-left"" ></div><div id=""jspsych-space-daw-top-stim-middle"" ></div><div id=""jspsych-space-daw-top-stim-right"" ></div><div style=""clear:both""></div><div id=""jspsych-space-daw-bottom-stim-left"" style=""background-image: url('./tasks/two-arm-new/img/green_stim_2.png')""></div><div id=""jspsych-space-daw-bottom-stim-middle"" ></div><div id=""jspsych-space-daw-bottom-stim-right"" class=""jspsych-space-daw-bottom-stim-border"" style=""background-image: url('./tasks/two-arm-new/img/green_stim_1.png')""></div></div>","","","","","","","","","","","","","","","","","","",""
"html-keyboard-response","45","31575","0.0-4.0-6.0-2.1","60520f7b38610f36b366a806","6359551218e5c682346227eb","0ixb5nh1bzrf","null","","null","","","","","","","","<div style=""background-image: url('./tasks/two-arm-new/img/green_planet.png')""><div id=""jspsych-space-daw-top-stim-left"" ></div><div id=""jspsych-space-daw-top-stim-middle"" ></div><div id=""jspsych-space-daw-top-stim-right"" style=""background-image: url('./tasks/two-arm-new/img/noreward.png')""></div><div style=""clear:both""></div><div id=""jspsych-space-daw-bottom-stim-left"" style=""background-image: url('./tasks/two-arm-new/img/green_stim_2.png')""></div><div id=""jspsych-space-daw-bottom-stim-middle"" ></div><div id=""jspsych-space-daw-bottom-stim-right"" class=""jspsych-space-daw-bottom-stim-border"" style=""background-image: url('./tasks/two-arm-new/img/green_stim_1_sad.png')""></div></div>","","","","","","","","","","","","","","","","","","",""
"html-keyboard-response","46","31593","0.0-4.0-6.0-0.2","60520f7b38610f36b366a806","6359551218e5c682346227eb","0ixb5nh1bzrf","18","","j","","","","","","","","<div style=""background-image: url('./tasks/two-arm-new/img/green_planet.png')""><div id=""jspsych-space-daw-top-stim-left"" ></div><div id=""jspsych-space-daw-top-stim-middle"" ></div><div id=""jspsych-space-daw-top-stim-right"" ></div><div style=""clear:both""></div><div id=""jspsych-space-daw-bottom-stim-left"" style=""background-image: url('./tasks/two-arm-new/img/green_stim_1.png')""></div><div id=""jspsych-space-daw-bottom-stim-middle"" ></div><div id=""jspsych-space-daw-bottom-stim-right"" style=""background-image: url('./tasks/two-arm-new/img/green_stim_2.png')""></div></div>","aliens_practice","2","green","2","1","","","","","","","","","","","","","",""
"html-keyboard-response","47","32106","0.0-4.0-6.0-1.2","60520f7b38610f36b366a806","6359551218e5c682346227eb","0ixb5nh1bzrf","null","","null","","","","","","","","<div style=""background-image: url('./tasks/two-arm-new/img/green_planet.png')""><div id=""jspsych-space-daw-top-stim-left"" ></div><div id=""jspsych-space-daw-top-stim-middle"" ></div><div id=""jspsych-space-daw-top-stim-right"" ></div><div style=""clear:both""></div><div id=""jspsych-space-daw-bottom-stim-left"" style=""background-image: url('./tasks/two-arm-new/img/green_stim_1.png')""></div><div id=""jspsych-space-daw-bottom-stim-middle"" ></div><div id=""jspsych-space-daw-bottom-stim-right"" class=""jspsych-space-daw-bottom-stim-border"" style=""background-image: url('./tasks/two-arm-new/img/green_stim_2.png')""></div></div>","","","","","","","","","","","","","","","","","","",""
"html-keyboard-response","48","33115","0.0-4.0-6.0-2.2","60520f7b38610f36b366a806","6359551218e5c682346227eb","0ixb5nh1bzrf","null","","null","","","","","","","","<div style=""background-image: url('./tasks/two-arm-new/img/green_planet.png')""><div id=""jspsych-space-daw-top-stim-left"" ></div><div id=""jspsych-space-daw-top-stim-middle"" ></div><div id=""jspsych-space-daw-top-stim-right"" style=""background-image: url('./tasks/two-arm-new/img/treasure.png')""></div><div style=""clear:both""></div><div id=""jspsych-space-daw-bottom-stim-left"" style=""background-image: url('./tasks/two-arm-new/img/green_stim_1.png')""></div><div id=""jspsych-space-daw-bottom-stim-middle"" ></div><div id=""jspsych-space-daw-bottom-stim-right"" class=""jspsych-space-daw-bottom-stim-border"" style=""background-image: url('./tasks/two-arm-new/img/green_stim_2.png')""></div></div>","","","","","","","","","","","","","","","","","","",""
"html-keyboard-response","49","33273","0.0-4.0-6.0-0.3","60520f7b38610f36b366a806","6359551218e5c682346227eb","0ixb5nh1bzrf","157","","j","","","","","","","","<div style=""background-image: url('./tasks/two-arm-new/img/green_planet.png')""><div id=""jspsych-space-daw-top-stim-left"" ></div><div id=""jspsych-space-daw-top-stim-middle"" ></div><div id=""jspsych-space-daw-top-stim-right"" ></div><div style=""clear:both""></div><div id=""jspsych-space-daw-bottom-stim-left"" style=""background-image: url('./tasks/two-arm-new/img/green_stim_1.png')""></div><div id=""jspsych-space-daw-bottom-stim-middle"" ></div><div id=""jspsych-space-daw-bottom-stim-right"" style=""background-image: url('./tasks/two-arm-new/img/green_stim_2.png')""></div></div>","aliens_practice","3","green","2","1","","","","","","","","","","","","","",""
"html-keyboard-response","50","33783","0.0-4.0-6.0-1.3","60520f7b38610f36b366a806","6359551218e5c682346227eb","0ixb5nh1bzrf","null","","null","","","","","","","","<div style=""background-image: url('./tasks/two-arm-new/img/green_planet.png')""><div id=""jspsych-space-daw-top-stim-left"" ></div><div id=""jspsych-space-daw-top-stim-middle"" ></div><div id=""jspsych-space-daw-top-stim-right"" ></div><div style=""clear:both""></div><div id=""jspsych-space-daw-bottom-stim-left"" style=""background-image: url('./tasks/two-arm-new/img/green_stim_1.png')""></div><div id=""jspsych-space-daw-bottom-stim-middle"" ></div><div id=""jspsych-space-daw-bottom-stim-right"" class=""jspsych-space-daw-bottom-stim-border"" style=""background-image: url('./tasks/two-arm-new/img/green_stim_2.png')""></div></div>","","","","","","","","","","","","","","","","","","",""
"html-keyboard-response","51","34791","0.0-4.0-6.0-2.3","60520f7b38610f36b366a806","6359551218e5c682346227eb","0ixb5nh1bzrf","null","","null","","","","","","","","<div style=""background-image: url('./tasks/two-arm-new/img/green_planet.png')""><div id=""jspsych-space-daw-top-stim-left"" ></div><div id=""jspsych-space-daw-top-stim-middle"" ></div><div id=""jspsych-space-daw-top-stim-right"" style=""background-image: url('./tasks/two-arm-new/img/treasure.png')""></div><div style=""clear:both""></div><div id=""jspsych-space-daw-bottom-stim-left"" style=""background-image: url('./tasks/two-arm-new/img/green_stim_1.png')""></div><div id=""jspsych-space-daw-bottom-stim-middle"" ></div><div id=""jspsych-space-daw-bottom-stim-right"" class=""jspsych-space-daw-bottom-stim-border"" style=""background-image: url('./tasks/two-arm-new/img/green_stim_2.png')""></div></div>","","","","","","","","","","","","","","","","","","",""
"html-keyboard-response","52","34909","0.0-4.0-6.0-0.4","60520f7b38610f36b366a806","6359551218e5c682346227eb","0ixb5nh1bzrf","119","","j","","","","","","","","<div style=""background-image: url('./tasks/two-arm-new/img/green_planet.png')""><div id=""jspsych-space-daw-top-stim-left"" ></div><div id=""jspsych-space-daw-top-stim-middle"" ></div><div id=""jspsych-space-daw-top-stim-right"" ></div><div style=""clear:both""></div><div id=""jspsych-space-daw-bottom-stim-left"" style=""background-image: url('./tasks/two-arm-new/img/green_stim_2.png')""></div><div id=""jspsych-space-daw-bottom-stim-middle"" ></div><div id=""jspsych-space-daw-bottom-stim-right"" style=""background-image: url('./tasks/two-arm-new/img/green_stim_1.png')""></div></div>","aliens_practice","4","green","1","0","","","","","","","","","","","","","",""
"html-keyboard-response","53","35411","0.0-4.0-6.0-1.4","60520f7b38610f36b366a806","6359551218e5c682346227eb","0ixb5nh1bzrf","null","","null","","","","","","","","<div style=""background-image: url('./tasks/two-arm-new/img/green_planet.png')""><div id=""jspsych-space-daw-top-stim-left"" ></div><div id=""jspsych-space-daw-top-stim-middle"" ></div><div id=""jspsych-space-daw-top-stim-right"" ></div><div style=""clear:both""></div><div id=""jspsych-space-daw-bottom-stim-left"" style=""background-image: url('./tasks/two-arm-new/img/green_stim_2.png')""></div><div id=""jspsych-space-daw-bottom-stim-middle"" ></div><div id=""jspsych-space-daw-bottom-stim-right"" class=""jspsych-space-daw-bottom-stim-border"" style=""background-image: url('./tasks/two-arm-new/img/green_stim_1.png')""></div></div>","","","","","","","","","","","","","","","","","","",""
"html-keyboard-response","54","36418","0.0-4.0-6.0-2.4","60520f7b38610f36b366a806","6359551218e5c682346227eb","0ixb5nh1bzrf","null","","null","","","","","","","","<div style=""background-image: url('./tasks/two-arm-new/img/green_planet.png')""><div id=""jspsych-space-daw-top-stim-left"" ></div><div id=""jspsych-space-daw-top-stim-middle"" ></div><div id=""jspsych-space-daw-top-stim-right"" style=""background-image: url('./tasks/two-arm-new/img/noreward.png')""></div><div style=""clear:both""></div><div id=""jspsych-space-daw-bottom-stim-left"" style=""background-image: url('./tasks/two-arm-new/img/green_stim_2.png')""></div><div id=""jspsych-space-daw-bottom-stim-middle"" ></div><div id=""jspsych-space-daw-bottom-stim-right"" class=""jspsych-space-daw-bottom-stim-border"" style=""background-image: url('./tasks/two-arm-new/img/green_stim_1_sad.png')""></div></div>","","","","","","","","","","","","","","","","","","",""
"instructions","55","37206","0.0-4.0-7.0","60520f7b38610f36b366a806","6359551218e5c682346227eb","0ixb5nh1bzrf","789","","","","[{""page_index"":0,""viewing_time"":22},{""page_index"":1,""viewing_time"":163},{""page_index"":2,""viewing_time"":159},{""page_index"":3,""viewing_time"":130},{""page_index"":4,""viewing_time"":190},{""page_index"":5,""viewing_time"":125}]","","","","","","","","","","","","","","","","","","","","","","","","",""
"html-keyboard-response","56","37317","0.0-4.0-8.0-0.0","60520f7b38610f36b366a806","6359551218e5c682346227eb","0ixb5nh1bzrf","110","","j","","","","","","","","<div style=""background-image: url('./tasks/two-arm-new/img/earth_planet.png')""><div id=""jspsych-space-daw-top-stim-left"" ></div><div id=""jspsych-space-daw-top-stim-middle"" ></div><div id=""jspsych-space-daw-top-stim-right"" ></div><div style=""clear:both""></div><div id=""jspsych-space-daw-bottom-stim-left"" style=""background-image: url('./tasks/two-arm-new/img/earth_stim_1.png')""></div><div id=""jspsych-space-daw-bottom-stim-middle"" ></div><div id=""jspsych-space-daw-bottom-stim-right"" style=""background-image: url('./tasks/two-arm-new/img/earth_stim_2.png')""></div></div><p>Score: 0</p>","","","","","","","","","","","","","","","","","","",""
"html-keyboard-response","57","37831","0.0-4.0-8.0-1.0","60520f7b38610f36b366a806","6359551218e5c682346227eb","0ixb5nh1bzrf","null","","null","","","","","","","","<div style=""background-image: url('./tasks/two-arm-new/img/earth_planet.png')""><div id=""jspsych-space-daw-top-stim-left"" ></div><div id=""jspsych-space-daw-top-stim-middle"" ></div><div id=""jspsych-space-daw-top-stim-right"" ></div><div style=""clear:both""></div><div id=""jspsych-space-daw-bottom-stim-left"" style=""background-image: url('./tasks/two-arm-new/img/earth_stim_1.png')""></div><div id=""jspsych-space-daw-bottom-stim-middle"" ></div><div id=""jspsych-space-daw-bottom-stim-right"" class=""jspsych-space-daw-bottom-stim-border"" style=""background-image: url('./tasks/two-arm-new/img/earth_stim_2.png')""></div></div><p>Score: 0</p>","","","","","","","","","","","","","","","","","","",""
"html-keyboard-response","58","37861","0.0-4.0-8.0-2.0","60520f7b38610f36b366a806","6359551218e5c682346227eb","0ixb5nh1bzrf","29","","j","","","","","","","","<div style=""background-image: url('./tasks/two-arm-new/img/green_planet.png')""><div id=""jspsych-space-daw-top-stim-left"" ></div><div id=""jspsych-space-daw-top-stim-middle"" style=""background-image: url('./tasks/two-arm-new/img/earth_stim_2_deact.png')""></div><div id=""jspsych-space-daw-top-stim-right"" ></div><div style=""clear:both""></div><div id=""jspsych-space-daw-bottom-stim-left"" style=""background-image: url('./tasks/two-arm-new/img/green_stim_2.png')""></div><div id=""jspsych-space-daw-bottom-stim-middle"" ></div><div id=""jspsych-space-daw-bottom-stim-right"" style=""background-image: url('./tasks/two-arm-new/img/green_stim_1.png')""></div></div><p>Score: 0</p>","","","","","","","","","","","","","","","","","","",""
"html-keyboard-response","59","38370","0.0-4.0-8.0-3.0","60520f7b38610f36b366a806","6359551218e5c682346227eb","0ixb5nh1bzrf","null","","null","","","","","","","","<div style=""background-image: url('./tasks/two-arm-new/img/green_planet.png')""><div id=""jspsych-space-daw-top-stim-left"" ></div><div id=""jspsych-space-daw-top-stim-middle"" style=""background-image: url('./tasks/two-arm-new/img/earth_stim_2_deact.png')""></div><div id=""jspsych-space-daw-top-stim-right"" ></div><div style=""clear:both""></div><div id=""jspsych-space-daw-bottom-stim-left"" style=""background-image: url('./tasks/two-arm-new/img/green_stim_2.png')""></div><div id=""jspsych-space-daw-bottom-stim-middle"" ></div><div id=""jspsych-space-daw-bottom-stim-right"" class=""jspsych-space-daw-bottom-stim-border"" style=""background-image: url('./tasks/two-arm-new/img/green_stim_1.png')""></div></div><p>Score: 0</p>","","","","","","","","","","","","","","","","","","",""
"html-keyboard-response","60","39380","0.0-4.0-8.0-4.0","60520f7b38610f36b366a806","6359551218e5c682346227eb","0ixb5nh1bzrf","null","","null","","","","","","","","<div style=""background-image: url('./tasks/two-arm-new/img/green_planet.png')""><div id=""jspsych-space-daw-top-stim-left"" ></div><div id=""jspsych-space-daw-top-stim-middle"" style=""background-image: url('./tasks/two-arm-new/img/earth_stim_2_deact.png')""></div><div id=""jspsych-space-daw-top-stim-right"" style=""background-image: url('./tasks/two-arm-new/img/noreward.png')""></div><div style=""clear:both""></div><div id=""jspsych-space-daw-bottom-stim-left"" style=""background-image: url('./tasks/two-arm-new/img/green_stim_2.png')""></div><div id=""jspsych-space-daw-bottom-stim-middle"" ></div><div id=""jspsych-space-daw-bottom-stim-right"" class=""jspsych-space-daw-bottom-stim-border"" style=""background-image: url('./tasks/two-arm-new/img/green_stim_1_sad.png')""></div></div><p>Score: 0</p>","two_arm_practice","1","","1","0","2","1","j","j","110","29","","","","","","","",""
"html-keyboard-response","61","39443","0.0-4.0-8.0-0.1","60520f7b38610f36b366a806","6359551218e5c682346227eb","0ixb5nh1bzrf","62","","f","","","","","","","","<div style=""background-image: url('./tasks/two-arm-new/img/earth_planet.png')""><div id=""jspsych-space-daw-top-stim-left"" ></div><div id=""jspsych-space-daw-top-stim-middle"" ></div><div id=""jspsych-space-daw-top-stim-right"" ></div><div style=""clear:both""></div><div id=""jspsych-space-daw-bottom-stim-left"" style=""background-image: url('./tasks/two-arm-new/img/earth_stim_2.png')""></div><div id=""jspsych-space-daw-bottom-stim-middle"" ></div><div id=""jspsych-space-daw-bottom-stim-right"" style=""background-image: url('./tasks/two-arm-new/img/earth_stim_1.png')""></div></div><p>Score: 0</p>","","","","","","","","","","","","","","","","","","",""
"html-keyboard-response","62","39954","0.0-4.0-8.0-1.1","60520f7b38610f36b366a806","6359551218e5c682346227eb","0ixb5nh1bzrf","null","","null","","","","","","","","<div style=""background-image: url('./tasks/two-arm-new/img/earth_planet.png')""><div id=""jspsych-space-daw-top-stim-left"" ></div><div id=""jspsych-space-daw-top-stim-middle"" ></div><div id=""jspsych-space-daw-top-stim-right"" ></div><div style=""clear:both""></div><div id=""jspsych-space-daw-bottom-stim-left"" class=""jspsych-space-daw-bottom-stim-border"" style=""background-image: url('./tasks/two-arm-new/img/earth_stim_2.png')""></div><div id=""jspsych-space-daw-bottom-stim-middle"" ></div><div id=""jspsych-space-daw-bottom-stim-right"" style=""background-image: url('./tasks/two-arm-new/img/earth_stim_1.png')""></div></div><p>Score: 0</p>","","","","","","","","","","","","","","","","","","",""
"html-keyboard-response","63","39962","0.0-4.0-8.0-2.1","60520f7b38610f36b366a806","6359551218e5c682346227eb","0ixb5nh1bzrf","6","","f","","","","","","","","<div style=""background-image: url('./tasks/two-arm-new/img/yellow_planet.png')""><div id=""jspsych-space-daw-top-stim-left"" ></div><div id=""jspsych-space-daw-top-stim-middle"" style=""background-image: url('./tasks/two-arm-new/img/earth_stim_2_deact.png')""></div><div id=""jspsych-space-daw-top-stim-right"" ></div><div style=""clear:both""></div><div id=""jspsych-space-daw-bottom-stim-left"" style=""background-image: url('./tasks/two-arm-new/img/yellow_stim_2.png')""></div><div id=""jspsych-space-daw-bottom-stim-middle"" ></div><div id=""jspsych-space-daw-bottom-stim-right"" style=""background-image: url('./tasks/two-arm-new/img/yellow_stim_1.png')""></div></div><p>Score: 0</p>","","","","","","","","","","","","","","","","","","",""
"html-keyboard-response","64","40467","0.0-4.0-8.0-3.1","60520f7b38610f36b366a806","6359551218e5c682346227eb","0ixb5nh1bzrf","null","","null","","","","","","","","<div style=""background-image: url('./tasks/two-arm-new/img/yellow_planet.png')""><div id=""jspsych-space-daw-top-stim-left"" ></div><div id=""jspsych-space-daw-top-stim-middle"" style=""background-image: url('./tasks/two-arm-new/img/earth_stim_2_deact.png')""></div><div id=""jspsych-space-daw-top-stim-right"" ></div><div style=""clear:both""></div><div id=""jspsych-space-daw-bottom-stim-left"" class=""jspsych-space-daw-bottom-stim-border"" style=""background-image: url('./tasks/two-arm-new/img/yellow_stim_2.png')""></div><div id=""jspsych-space-daw-bottom-stim-middle"" ></div><div id=""jspsych-space-daw-bottom-stim-right"" style=""background-image: url('./tasks/two-arm-new/img/yellow_stim_1.png')""></div></div><p>Score: 0</p>","","","","","","","","","","","","","","","","","","",""
"html-keyboard-response","65","41476","0.0-4.0-8.0-4.1","60520f7b38610f36b366a806","6359551218e5c682346227eb","0ixb5nh1bzrf","null","","null","","","","","","","","<div style=""background-image: url('./tasks/two-arm-new/img/yellow_planet.png')""><div id=""jspsych-space-daw-top-stim-left"" style=""background-image: url('./tasks/two-arm-new/img/treasure.png')""></div><div id=""jspsych-space-daw-top-stim-middle"" style=""background-image: url('./tasks/two-arm-new/img/earth_stim_2_deact.png')""></div><div id=""jspsych-space-daw-top-stim-right"" ></div><div style=""clear:both""></div><div id=""jspsych-space-daw-bottom-stim-left"" class=""jspsych-space-daw-bottom-stim-border"" style=""background-image: url('./tasks/two-arm-new/img/yellow_stim_2.png')""></div><div id=""jspsych-space-daw-bottom-stim-middle"" ></div><div id=""jspsych-space-daw-bottom-stim-right"" style=""background-image: url('./tasks/two-arm-new/img/yellow_stim_1.png')""></div></div><p>Score: 1</p>","two_arm_practice","2","","4","1","2","2","f","f","62","6","","","","","","","",""
"html-keyboard-response","66","41565","0.0-4.0-8.0-0.2","60520f7b38610f36b366a806","6359551218e5c682346227eb","0ixb5nh1bzrf","88","","f","","","","","","","","<div style=""background-image: url('./tasks/two-arm-new/img/earth_planet.png')""><div id=""jspsych-space-daw-top-stim-left"" ></div><div id=""jspsych-space-daw-top-stim-middle"" ></div><div id=""jspsych-space-daw-top-stim-right"" ></div><div style=""clear:both""></div><div id=""jspsych-space-daw-bottom-stim-left"" style=""background-image: url('./tasks/two-arm-new/img/earth_stim_2.png')""></div><div id=""jspsych-space-daw-bottom-stim-middle"" ></div><div id=""jspsych-space-daw-bottom-stim-right"" style=""background-image: url('./tasks/two-arm-new/img/earth_stim_1.png')""></div></div><p>Score: 1</p>","","","","","","","","","","","","","","","","","","",""
"html-keyboard-response","67","42079","0.0-4.0-8.0-1.2","60520f7b38610f36b366a806","6359551218e5c682346227eb","0ixb5nh1bzrf","null","","null","","","","","","","","<div style=""background-image: url('./tasks/two-arm-new/img/earth_planet.png')""><div id=""jspsych-space-daw-top-stim-left"" ></div><div id=""jspsych-space-daw-top-stim-middle"" ></div><div id=""jspsych-space-daw-top-stim-right"" ></div><div style=""clear:both""></div><div id=""jspsych-space-daw-bottom-stim-left"" class=""jspsych-space-daw-bottom-stim-border"" style=""background-image: url('./tasks/two-arm-new/img/earth_stim_2.png')""></div><div id=""jspsych-space-daw-bottom-stim-middle"" ></div><div id=""jspsych-space-daw-bottom-stim-right"" style=""background-image: url('./tasks/two-arm-new/img/earth_stim_1.png')""></div></div><p>Score: 1</p>","","","","","","","","","","","","","","","","","","",""
"html-keyboard-response","68","42115","0.0-4.0-8.0-2.2","60520f7b38610f36b366a806","6359551218e5c682346227eb","0ixb5nh1bzrf","35","","f","","","","","","","","<div style=""background-image: url('./tasks/two-arm-new/img/yellow_planet.png')""><div id=""jspsych-space-daw-top-stim-left"" ></div><div id=""jspsych-space-daw-top-stim-middle"" style=""background-image: url('./tasks/two-arm-new/img/earth_stim_2_deact.png')""></div><div id=""jspsych-space-daw-top-stim-right"" ></div><div style=""clear:both""></div><div id=""jspsych-space-daw-bottom-stim-left"" style=""background-image: url('./tasks/two-arm-new/img/yellow_stim_1.png')""></div><div id=""jspsych-space-daw-bottom-stim-middle"" ></div><div id=""jspsych-space-daw-bottom-stim-right"" style=""background-image: url('./tasks/two-arm-new/img/yellow_stim_2.png')""></div></div><p>Score: 1</p>","","","","","","","","","","","","","","","","","","",""
"html-keyboard-response","69","42619","0.0-4.0-8.0-3.2","60520f7b38610f36b366a806","6359551218e5c682346227eb","0ixb5nh1bzrf","null","","null","","","","","","","","<div style=""background-image: url('./tasks/two-arm-new/img/yellow_planet.png')""><div id=""jspsych-space-daw-top-stim-left"" ></div><div id=""jspsych-space-daw-top-stim-middle"" style=""background-image: url('./tasks/two-arm-new/img/earth_stim_2_deact.png')""></div><div id=""jspsych-space-daw-top-stim-right"" ></div><div style=""clear:both""></div><div id=""jspsych-space-daw-bottom-stim-left"" class=""jspsych-space-daw-bottom-stim-border"" style=""background-image: url('./tasks/two-arm-new/img/yellow_stim_1.png')""></div><div id=""jspsych-space-daw-bottom-stim-middle"" ></div><div id=""jspsych-space-daw-bottom-stim-right"" style=""background-image: url('./tasks/two-arm-new/img/yellow_stim_2.png')""></div></div><p>Score: 1</p>","","","","","","","","","","","","","","","","","","",""
"html-keyboard-response","70","43631","0.0-4.0-8.0-4.2","60520f7b38610f36b366a806","6359551218e5c682346227eb","0ixb5nh1bzrf","null","","null","","","","","","","","<div style=""background-image: url('./tasks/two-arm-new/img/yellow_planet.png')""><div id=""jspsych-space-daw-top-stim-left"" style=""background-image: url('./tasks/two-arm-new/img/noreward.png')""></div><div id=""jspsych-space-daw-top-stim-middle"" style=""background-image: url('./tasks/two-arm-new/img/earth_stim_2_deact.png')""></div><div id=""jspsych-space-daw-top-stim-right"" ></div><div style=""clear:both""></div><div id=""jspsych-space-daw-bottom-stim-left"" class=""jspsych-space-daw-bottom-stim-border"" style=""background-image: url('./tasks/two-arm-new/img/yellow_stim_1_sad.png')""></div><div id=""jspsych-space-daw-bottom-stim-middle"" ></div><div id=""jspsych-space-daw-bottom-stim-right"" style=""background-image: url('./tasks/two-arm-new/img/yellow_stim_2.png')""></div></div><p>Score: 1</p>","two_arm_practice","3","","3","0","2","2","f","f","88","35","","","","","","","",""
"html-keyboard-response","71","43698","0.0-4.0-8.0-0.3","60520f7b38610f36b366a806","6359551218e5c682346227eb","0ixb5nh1bzrf","66","","f","","","","","","","","<div style=""background-image: url('./tasks/two-arm-new/img/earth_planet.png')""><div id=""jspsych-space-daw-top-stim-left"" ></div><div id=""jspsych-space-daw-top-stim-middle"" ></div><div id=""jspsych-space-daw-top-stim-right"" ></div><div style=""clear:both""></div><div id=""jspsych-space-daw-bottom-stim-left"" style=""background-image: url('./tasks/two-arm-new/img/earth_stim_1.png')""></div><div id=""jspsych-space-daw-bottom-stim-middle"" ></div><div id=""jspsych-space-daw-bottom-stim-right"" style=""background-image: url('./tasks/two-arm-new/img/earth_stim_2.png')""></div></div><p>Score: 1</p>","","","","","","","","","","","","","","","","","","",""
"html-keyboard-response","72","44206","0.0-4.0-8.0-1.3","60520f7b38610f36b366a806","6359551218e5c682346227eb","0ixb5nh1bzrf","null","","null","","","","","","","","<div style=""background-image: url('./tasks/two-arm-new/img/earth_planet.png')""><div id=""jspsych-space-daw-top-stim-left"" ></div><div id=""jspsych-space-daw-top-stim-middle"" ></div><div id=""jspsych-space-daw-top-stim-right"" ></div><div style=""clear:both""></div><div id=""jspsych-space-daw-bottom-stim-left"" class=""jspsych-space-daw-bottom-stim-border"" style=""background-image: url('./tasks/two-arm-new/img/earth_stim_1.png')""></div><div id=""jspsych-space-daw-bottom-stim-middle"" ></div><div id=""jspsych-space-daw-bottom-stim-right"" style=""background-image: url('./tasks/two-arm-new/img/earth_stim_2.png')""></div></div><p>Score: 1</p>","","","","","","","","","","","","","","","","","","",""
"html-keyboard-response","73","44259","0.0-4.0-8.0-2.3","60520f7b38610f36b366a806","6359551218e5c682346227eb","0ixb5nh1bzrf","53","","f","","","","","","","","<div style=""background-image: url('./tasks/two-arm-new/img/green_planet.png')""><div id=""jspsych-space-daw-top-stim-left"" ></div><div id=""jspsych-space-daw-top-stim-middle"" style=""background-image: url('./tasks/two-arm-new/img/earth_stim_1_deact.png')""></div><div id=""jspsych-space-daw-top-stim-right"" ></div><div style=""clear:both""></div><div id=""jspsych-space-daw-bottom-stim-left"" style=""background-image: url('./tasks/two-arm-new/img/green_stim_2.png')""></div><div id=""jspsych-space-daw-bottom-stim-middle"" ></div><div id=""jspsych-space-daw-bottom-stim-right"" style=""background-image: url('./tasks/two-arm-new/img/green_stim_1.png')""></div></div><p>Score: 1</p>","","","","","","","","","","","","","","","","","","",""
"html-keyboard-response","74","44768","0.0-4.0-8.0-3.3","60520f7b38610f36b366a806","6359551218e5c682346227eb","0ixb5nh1bzrf","null","","null","","","","","","","","<div style=""background-image: url('./tasks/two-arm-new/img/green_planet.png')""><div id=""jspsych-space-daw-top-stim-left"" ></div><div id=""jspsych-space-daw-top-stim-middle"" style=""background-image: url('./tasks/two-arm-new/img/earth_stim_1_deact.png')""></div><div id=""jspsych-space-daw-top-stim-right"" ></div><div style=""clear:both""></div><div id=""jspsych-space-daw-bottom-stim-left"" class=""jspsych-space-daw-bottom-stim-border"" style=""background-image: url('./tasks/two-arm-new/img/green_stim_2.png')""></div><div id=""jspsych-space-daw-bottom-stim-middle"" ></div><div id=""jspsych-space-daw-bottom-stim-right"" style=""background-image: url('./tasks/two-arm-new/img/green_stim_1.png')""></div></div><p>Score: 1</p>","","","","","","","","","","","","","","","","","","",""
"html-keyboard-response","75","45780","0.0-4.0-8.0-4.3","60520f7b38610f36b366a806","6359551218e5c682346227eb","0ixb5nh1bzrf","null","","null","","","","","","","","<div style=""background-image: url('./tasks/two-arm-new/img/green_planet.png')""><div id=""jspsych-space-daw-top-stim-left"" style=""background-image: url('./tasks/two-arm-new/img/treasure.png')""></div><div id=""jspsych-space-daw-top-stim-middle"" style=""background-image: url('./tasks/two-arm-new/img/earth_stim_1_deact.png')""></div><div id=""jspsych-space-daw-top-stim-right"" ></div><div style=""clear:both""></div><div id=""jspsych-space-daw-bottom-stim-left"" class=""jspsych-space-daw-bottom-stim-border"" style=""background-image: url('./tasks/two-arm-new/img/green_stim_2.png')""></div><div id=""jspsych-space-daw-bottom-stim-middle"" ></div><div id=""jspsych-space-daw-bottom-stim-right"" style=""background-image: url('./tasks/two-arm-new/img/green_stim_1.png')""></div></div><p>Score: 2</p>","two_arm_practice","4","","2","1","1","1","f","f","66","53","","","","","","","",""
"html-keyboard-response","76","45790","0.0-4.0-8.0-0.4","60520f7b38610f36b366a806","6359551218e5c682346227eb","0ixb5nh1bzrf","10","","j","","","","","","","","<div style=""background-image: url('./tasks/two-arm-new/img/earth_planet.png')""><div id=""jspsych-space-daw-top-stim-left"" ></div><div id=""jspsych-space-daw-top-stim-middle"" ></div><div id=""jspsych-space-daw-top-stim-right"" ></div><div style=""clear:both""></div><div id=""jspsych-space-daw-bottom-stim-left"" style=""background-image: url('./tasks/two-arm-new/img/earth_stim_1.png')""></div><div id=""jspsych-space-daw-bottom-stim-middle"" ></div><div id=""jspsych-space-daw-bottom-stim-right"" style=""background-image: url('./tasks/two-arm-new/img/earth_stim_2.png')""></div></div><p>Score: 2</p>","","","","","","","","","","","","","","","","","","",""
"html-keyboard-response","77","46293","0.0-4.0-8.0-1.4","60520f7b38610f36b366a806","6359551218e5c682346227eb","0ixb5nh1bzrf","null","","null","","","","","","","","<div style=""background-image: url('./tasks/two-arm-new/img/earth_planet.png')""><div id=""jspsych-space-daw-top-stim-left"" ></div><div id=""jspsych-space-daw-top-stim-middle"" ></div><div id=""jspsych-space-daw-top-stim-right"" ></div><div style=""clear:both""></div><div id=""jspsych-space-daw-bottom-stim-left"" style=""background-image: url('./tasks/two-arm-new/img/earth_stim_1.png')""></div><div id=""jspsych-space-daw-bottom-stim-middle"" ></div><div id=""jspsych-space-daw-bottom-stim-right"" class=""jspsych-space-daw-bottom-stim-border"" style=""background-image: url('./tasks/two-arm-new/img/earth_stim_2.png')""></div></div><p>Score: 2</p>","","","","","","","","","","","","","","","","","","",""
"html-keyboard-response","78","46393","0.0-4.0-8.0-2.4","60520f7b38610f36b366a806","6359551218e5c682346227eb","0ixb5nh1bzrf","100","","j","","","","","","","","<div style=""background-image: url('./tasks/two-arm-new/img/yellow_planet.png')""><div id=""jspsych-space-daw-top-stim-left"" ></div><div id=""jspsych-space-daw-top-stim-middle"" style=""background-image: url('./tasks/two-arm-new/img/earth_stim_2_deact.png')""></div><div id=""jspsych-space-daw-top-stim-right"" ></div><div style=""clear:both""></div><div id=""jspsych-space-daw-bottom-stim-left"" style=""background-image: url('./tasks/two-arm-new/img/yellow_stim_2.png')""></div><div id=""jspsych-space-daw-bottom-stim-middle"" ></div><div id=""jspsych-space-daw-bottom-stim-right"" style=""background-image: url('./tasks/two-arm-new/img/yellow_stim_1.png')""></div></div><p>Score: 2</p>","","","","","","","","","","","","","","","","","","",""
"html-keyboard-response","79","46896","0.0-4.0-8.0-3.4","60520f7b38610f36b366a806","6359551218e5c682346227eb","0ixb5nh1bzrf","null","","null","","","","","","","","<div style=""background-image: url('./tasks/two-arm-new/img/yellow_planet.png')""><div id=""jspsych-space-daw-top-stim-left"" ></div><div id=""jspsych-space-daw-top-stim-middle"" style=""background-image: url('./tasks/two-arm-new/img/earth_stim_2_deact.png')""></div><div id=""jspsych-space-daw-top-stim-right"" ></div><div style=""clear:both""></div><div id=""jspsych-space-daw-bottom-stim-left"" style=""background-image: url('./tasks/two-arm-new/img/yellow_stim_2.png')""></div><div id=""jspsych-space-daw-bottom-stim-middle"" ></div><div id=""jspsych-space-daw-bottom-stim-right"" class=""jspsych-space-daw-bottom-stim-border"" style=""background-image: url('./tasks/two-arm-new/img/yellow_stim_1.png')""></div></div><p>Score: 2</p>","","","","","","","","","","","","","","","","","","",""
"html-keyboard-response","80","47907","0.0-4.0-8.0-4.4","60520f7b38610f36b366a806","6359551218e5c682346227eb","0ixb5nh1bzrf","null","","null","","","","","","","","<div style=""background-image: url('./tasks/two-arm-new/img/yellow_planet.png')""><div id=""jspsych-space-daw-top-stim-left"" ></div><div id=""jspsych-space-daw-top-stim-middle"" style=""background-image: url('./tasks/two-arm-new/img/earth_stim_2_deact.png')""></div><div id=""jspsych-space-daw-top-stim-right"" style=""background-image: url('./tasks/two-arm-new/img/treasure.png')""></div><div style=""clear:both""></div><div id=""jspsych-space-daw-bottom-stim-left"" style=""background-image: url('./tasks/two-arm-new/img/yellow_stim_2.png')""></div><div id=""jspsych-space-daw-bottom-stim-middle"" ></div><div id=""jspsych-space-daw-bottom-stim-right"" class=""jspsych-space-daw-bottom-stim-border"" style=""background-image: url('./tasks/two-arm-new/img/yellow_stim_1.png')""></div></div><p>Score: 3</p>","two_arm_practice","5","","3","1","2","2","j","j","10","100","","","","","","","",""
"instructions","81","48772","0.0-4.0-9.0","60520f7b38610f36b366a806","6359551218e5c682346227eb","0ixb5nh1bzrf","864","","","","[{""page_index"":0,""viewing_time"":145},{""page_index"":1,""viewing_time"":42},{""page_index"":0,""viewing_time"":135},{""page_index"":1,""viewing_time"":92},{""page_index"":0,""viewing_time"":126},{""page_index"":1,""viewing_time"":49},{""page_index"":0,""viewing_time"":124},{""page_index"":1,""viewing_time"":151}]","","","","","","","","","","","","","","","","","","","","","","","","",""
"html-keyboard-response","82","48923","0.0-4.0-10.0-0.0-0.0","60520f7b38610f36b366a806","6359551218e5c682346227eb","0ixb5nh1bzrf","149","","j","","","","","","","","<div style=""background-image: url('./tasks/two-arm-new/img/earth_planet.png')""><div id=""jspsych-space-daw-top-stim-left"" ></div><div id=""jspsych-space-daw-top-stim-middle"" ></div><div id=""jspsych-space-daw-top-stim-right"" ></div><div style=""clear:both""></div><div id=""jspsych-space-daw-bottom-stim-left"" style=""background-image: url('./tasks/two-arm-new/img/earth_stim_2.png')""></div><div id=""jspsych-space-daw-bottom-stim-middle"" ></div><div id=""jspsych-space-daw-bottom-stim-right"" style=""background-image: url('./tasks/two-arm-new/img/earth_stim_1.png')""></div></div><p>Score: 0</p>","","","","","","","","","","","","","","","","","","",""
"html-keyboard-response","83","49425","0.0-4.0-10.0-0.0-1.0-0.0","60520f7b38610f36b366a806","6359551218e5c682346227eb","0ixb5nh1bzrf","null","","null","","","","","","","","<div style=""background-image: url('./tasks/two-arm-new/img/earth_planet.png')""><div id=""jspsych-space-daw-top-stim-left"" ></div><div id=""jspsych-space-daw-top-stim-middle"" ></div><div id=""jspsych-space-daw-top-stim-right"" ></div><div style=""clear:both""></div><div id=""jspsych-space-daw-bottom-stim-left"" style=""background-image: url('./tasks/two-arm-new/img/earth_stim_2.png')""></div><div id=""jspsych-space-daw-bottom-stim-middle"" ></div><div id=""jspsych-space-daw-bottom-stim-right"" class=""jspsych-space-daw-bottom-stim-border"" style=""background-image: url('./tasks/two-arm-new/img/earth_stim_1.png')""></div></div><p>Score: 0</p>","","","","","","","","","","","","","","","","","","",""
"html-keyboard-response","84","49630","0.0-4.0-10.0-0.0-1.0-1.0","60520f7b38610f36b366a806","6359551218e5c682346227eb","0ixb5nh1bzrf","205","","j","","","","","","","","<div style=""background-image: url('./tasks/two-arm-new/img/purple_planet.png')""><div id=""jspsych-space-daw-top-stim-left"" ></div><div id=""jspsych-space-daw-top-stim-middle"" style=""background-image: url('./tasks/two-arm-new/img/earth_stim_1_deact.png')""></div><div id=""jspsych-space-daw-top-stim-right"" ></div><div style=""clear:both""></div><div id=""jspsych-space-daw-bottom-stim-left"" style=""background-image: url('./tasks/two-arm-new/img/purple_stim_1.png')""></div><div id=""jspsych-space-daw-bottom-stim-middle"" ></div><div id=""jspsych-space-daw-bottom-stim-right"" style=""background-image: url('./tasks/two-arm-new/img/purple_stim_2.png')""></div></div><p>Score: 0</p>","","","","","","","","","","","","","","","","","","",""
"html-keyboard-response","85","50143","0.0-4.0-10.0-0.0-1.0-2.0-0.0","60520f7b38610f36b366a806","6359551218e5c682346227eb","0ixb5nh1bzrf","null","","null","","","","","","","","<div style=""background-image: url('./tasks/two-arm-new/img/purple_planet.png')""><div id=""jspsych-space-daw-top-stim-left"" ></div><div id=""jspsych-space-daw-top-stim-middle"" style=""background-image: url('./tasks/two-arm-new/img/earth_stim_1_deact.png')""></div><div id=""jspsych-space-daw-top-stim-right"" ></div><div style=""clear:both""></div><div id=""jspsych-space-daw-bottom-stim-left"" style=""background-image: url('./tasks/two-arm-new/img/purple_stim_1.png')""></div><div id=""jspsych-space-daw-bottom-stim-middle"" ></div><div id=""jspsych-space-daw-bottom-stim-right"" class=""jspsych-space-daw-bottom-stim-border"" style=""background-image: url('./tasks/two-arm-new/img/purple_stim_2.png')""></div></div><p>Score: 0</p>","","","","","","","","","","","","","","","","","","",""
"html-keyboard-response","86","51154","0.0-4.0-10.0-0.0-1.0-2.0-1.0","60520f7b38610f36b366a806","6359551218e5c682346227eb","0ixb5nh1bzrf","null","","null","","","","","","","","<div style=""background-image: url('./tasks/two-arm-new/img/purple_planet.png')""><div id=""jspsych-space-daw-top-stim-left"" ></div><div id=""jspsych-space-daw-top-stim-middle"" style=""background-image: url('./tasks/two-arm-new/img/earth_stim_1_deact.png')""></div><div id=""jspsych-space-daw-top-stim-right"" style=""background-image: url('./tasks/two-arm-new/img/noreward.png')""></div><div style=""clear:both""></div><div id=""jspsych-space-daw-bottom-stim-left"" style=""background-image: url('./tasks/two-arm-new/img/purple_stim_1.png')""></div><div id=""jspsych-space-daw-bottom-stim-middle"" ></div><div id=""jspsych-space-daw-bottom-stim-right"" class=""jspsych-space-daw-bottom-stim-border"" style=""background-image: url('./tasks/two-arm-new/img/purple_stim_2_sad.png')""></div></div><p>Score: 0</p>","two_arm_exp","1","","2","0","1","1","j","j","149","205","","","","","","","",""
"html-keyboard-response","87","51195","0.0-4.0-10.1-0.1-0.1","60520f7b38610f36b366a806","6359551218e5c682346227eb","0ixb5nh1bzrf","40","","f","","","","","","","","<div style=""background-image: url('./tasks/two-arm-new/img/earth_planet.png')""><div id=""jspsych-space-daw-top-stim-left"" ></div><div id=""jspsych-space-daw-top-stim-middle"" ></div><div id=""jspsych-space-daw-top-stim-right"" ></div><div style=""clear:both""></div><div id=""jspsych-space-daw-bottom-stim-left"" style=""background-image: url('./tasks/two-arm-new/img/earth_stim_2.png')""></div><div id=""jspsych-space-daw-bottom-stim-middle"" ></div><div id=""jspsych-space-daw-bottom-stim-right"" style=""background-image: url('./tasks/two-arm-new/img/earth_stim_1.png')""></div></div><p>Score: 0</p>","","","","","","","","","","","","","","","","","","",""
"html-keyboard-response","88","51698","0.0-4.0-10.1-0.1-1.1-0.1","60520f7b38610f36b366a806","6359551218e5c682346227eb","0ixb5nh1bzrf","null","","null","","","","","","","","<div style=""background-image: url('./tasks/two-arm-new/img/earth_planet.png')""><div id=""jspsych-space-daw-top-stim-left"" ></div><div id=""jspsych-space-daw-top-stim-middle"" ></div><div id=""jspsych-space-daw-top-stim-right"" ></div><div style=""clear:both""></div><div id=""jspsych-space-daw-bottom-stim-left"" class=""jspsych-space-daw-bottom-stim-border"" style=""background-image: url('./tasks/two-arm-new/img/earth_stim_2.png')""></div><div id=""jspsych-space-daw-bottom-stim-middle"" ></div><div id=""jspsych-space-daw-bottom-stim-right"" style=""background-image: url('./tasks/two-arm-new/img/earth_stim_1.png')""></div></div><p>Score: 0</p>","","","","","","","","","","","","","","","","","","",""
"html-keyboard-response","89","51733","0.0-4.0-10.1-0.1-1.1-1.1","60520f7b38610f36b366a806","6359551218e5c682346227eb","0ixb5nh1bzrf","33","","f","","","","","","","","<div style=""background-image: url('./tasks/two-arm-new/img/red_planet.png')""><div id=""jspsych-space-daw-top-stim-left"" ></div><div id=""jspsych-space-daw-top-stim-middle"" style=""background-image: url('./tasks/two-arm-new/img/earth_stim_2_deact.png')""></div><div id=""jspsych-space-daw-top-stim-right"" ></div><div style=""clear:both""></div><div id=""jspsych-space-daw-bottom-stim-left"" style=""background-image: url('./tasks/two-arm-new/img/red_stim_1.png')""></div><div id=""jspsych-space-daw-bottom-stim-middle"" ></div><div id=""jspsych-space-daw-bottom-stim-right"" style=""background-image: url('./tasks/two-arm-new/img/red_stim_2.png')""></div></div><p>Score: 0</p>","","","","","","","","","","","","","","","","","","",""
"html-keyboard-response","90","52244","0.0-4.0-10.1-0.1-1.1-2.1-0.1","60520f7b38610f36b366a806","6359551218e5c682346227eb","0ixb5nh1bzrf","null","","null","","","","","","","","<div style=""background-image: url('./tasks/two-arm-new/img/red_planet.png')""><div id=""jspsych-space-daw-top-stim-left"" ></div><div id=""jspsych-space-daw-top-stim-middle"" style=""background-image: url('./tasks/two-arm-new/img/earth_stim_2_deact.png')""></div><div id=""jspsych-space-daw-top-stim-right"" ></div><div style=""clear:both""></div><div id=""jspsych-space-daw-bottom-stim-left"" class=""jspsych-space-daw-bottom-stim-border"" style=""background-image: url('./tasks/two-arm-new/img/red_stim_1.png')""></div><div id=""jspsych-space-daw-bottom-stim-middle"" ></div><div id=""jspsych-space-daw-bottom-stim-right"" style=""background-image: url('./tasks/two-arm-new/img/red_stim_2.png')""></div></div><p>Score: 0</p>","","","","","","","","","","","","","","","","","","",""
"html-keyboard-response","91","53256","0.0-4.0-10.1-0.1-1.1-2.1-1.1","60520f7b38610f36b366a806","6359551218e5c682346227eb","0ixb5nh1bzrf","null","","null","","","","","","","","<div style=""background-image: url('./tasks/two-arm-new/img/red_planet.png')""><div id=""jspsych-space-daw-top-stim-left"" style=""background-image: url('./tasks/two-arm-new/img/noreward.png')""></div><div id=""jspsych-space-daw-top-stim-middle"" style=""background-image: url('./tasks/two-arm-new/img/earth_stim_2_deact.png')""></div><div id=""jspsych-space-daw-top-stim-right"" ></div><div style=""clear:both""></div><div id=""jspsych-space-daw-bottom-stim-left"" class=""jspsych-space-daw-bottom-stim-border"" style=""background-image: url('./tasks/two-arm-new/img/red_stim_1_sad.png')""></div><div id=""jspsych-space-daw-bottom-stim-middle"" ></div><div id=""jspsych-space-daw-bottom-stim-right"" style=""background-image: url('./tasks/two-arm-new/img/red_stim_2.png')""></div></div><p>Score: 0</p>","two_arm_exp","2","","3","0","2","2","f","f","40","33","","","","","","","",""
"html-keyboard-response","92","53270","0.0-4.0-10.2-0.2-0.2","60520f7b38610f36b366a806","6359551218e5c682346227eb","0ixb5nh1bzrf","13","","j","","","","","","","","<div style=""background-image: url('./tasks/two-arm-new/img/earth_planet.png')""><div id=""jspsych-space-daw-top-stim-left"" ></div><div id=""jspsych-space-daw-top-stim-middle"" ></div><div id=""jspsych-space-daw-top-stim-right"" ></div><div style=""clear:both""></div><div id=""jspsych-space-daw-bottom-stim-left"" style=""background-image: url('./tasks/two-arm-new/img/earth_stim_1.png')""></div><div id=""jspsych-space-daw-bottom-stim-middle"" ></div><div id=""jspsych-space-daw-bottom-stim-right"" style=""background-image: url('./tasks/two-arm-new/img/earth_stim_2.png')""></div></div><p>Score: 0</p>","","","","","","","","","","","","","","","","","","",""
"html-keyboard-response","93","53785","0.0-4.0-10.2-0.2-1.2-0.2","60520f7b38610f36b366a806","6359551218e5c682346227eb","0ixb5nh1bzrf","null","","null","","","","","","","","<div style=""background-image: url('./tasks/two-arm-new/img/earth_planet.png')""><div id=""jspsych-space-daw-top-stim-left"" ></div><div id=""jspsych-space-daw-top-stim-middle"" ></div><div id=""jspsych-space-daw-top-stim-right"" ></div><div style=""clear:both""></div><div id=""jspsych-space-daw-bottom-stim-left"" style=""background-image: url('./tasks/two-arm-new/img/earth_stim_1.png')""></div><div id=""jspsych-space-daw-bottom-stim-middle"" ></div><div id=""jspsych-space-daw-bottom-stim-right"" class=""jspsych-space-daw-bottom-stim-border"" style=""background-image: url('./tasks/two-arm-new/img/earth_stim_2.png')""></div></div><p>Score: 0</p>","","","","","","","","","","","","","","","","","","",""
"html-keyboard-response","94","53825","0.0-4.0-10.2-0.2-1.2-1.2","60520f7b38610f36b366a806","6359551218e5c682346227eb","0ixb5nh1bzrf","40","","f","","","","","","","","<div style=""background-image: url('./tasks/two-arm-new/img/purple_planet.png')""><div id=""jspsych-space-daw-top-stim-left"" ></div><div id=""jspsych-space-daw-top-stim-middle"" style=""background-image: url('./tasks/two-arm-new/img/earth_stim_2_deact.png')""></div><div id=""jspsych-space-daw-top-stim-right"" ></div><div style=""clear:both""></div><div id=""jspsych-space-daw-bottom-stim-left"" style=""background-image: url('./tasks/two-arm-new/img/purple_stim_1.png')""></div><div id=""jspsych-space-daw-bottom-stim-middle"" ></div><div id=""jspsych-space-daw-bottom-stim-right"" style=""background-image: url('./tasks/two-arm-new/img/purple_stim_2.png')""></div></div><p>Score: 0</p>","","","","","","","","","","","","","","","","","","",""
"html-keyboard-response","95","54326","0.0-4.0-10.2-0.2-1.2-2.2-0.2","60520f7b38610f36b366a806","6359551218e5c682346227eb","0ixb5nh1bzrf","null","","null","","","","","","","","<div style=""background-image: url('./tasks/two-arm-new/img/purple_planet.png')""><div id=""jspsych-space-daw-top-stim-left"" ></div><div id=""jspsych-space-daw-top-stim-middle"" style=""background-image: url('./tasks/two-arm-new/img/earth_stim_2_deact.png')""></div><div id=""jspsych-space-daw-top-stim-right"" ></div><div style=""clear:both""></div><div id=""jspsych-space-daw-bottom-stim-left"" class=""jspsych-space-daw-bottom-stim-border"" style=""background-image: url('./tasks/two-arm-new/img/purple_stim_1.png')""></div><div id=""jspsych-space-daw-bottom-stim-middle"" ></div><div id=""jspsych-space-daw-bottom-stim-right"" style=""background-image: url('./tasks/two-arm-new/img/purple_stim_2.png')""></div></div><p>Score: 0</p>","","","","","","","","","","","","","","","","","","",""
"html-keyboard-response","96","55338","0.0-4.0-10.2-0.2-1.2-2.2-1.2","60520f7b38610f36b366a806","6359551218e5c682346227eb","0ixb5nh1bzrf","null","","null","","","","","","","","<div style=""background-image: url('./tasks/two-arm-new/img/purple_planet.png')""><div id=""jspsych-space-daw-top-stim-left"" style=""background-image: url('./tasks/two-arm-new/img/noreward.png')""></div><div id=""jspsych-space-daw-top-stim-middle"" style=""background-image: url('./tasks/two-arm-new/img/earth_stim_2_deact.png')""></div><div id=""jspsych-space-daw-top-stim-right"" ></div><div style=""clear:both""></div><div id=""jspsych-space-daw-bottom-stim-left"" class=""jspsych-space-daw-bottom-stim-border"" style=""background-image: url('./tasks/two-arm-new/img/purple_stim_1_sad.png')""></div><div id=""jspsych-space-daw-bottom-stim-middle"" ></div><div id=""jspsych-space-daw-bottom-stim-right"" style=""background-image: url('./tasks/two-arm-new/img/purple_stim_2.png')""></div></div><p>Score: 0</p>","two_arm_exp","3","","1","0","2","1","j","f","13","40","","","","","","","",""
"html-keyboard-response","97","55442","0.0-4.0-10.3-0.3-0.3","60520f7b38610f36b366a806","6359551218e5c682346227eb","0ixb5nh1bzrf","102","","j","","","","","","","","<div style=""background-image: url('./tasks/two-arm-new/img/earth_planet.png')""><div id=""jspsych-space-daw-top-stim-left"" ></div><div id=""jspsych-space-daw-top-stim-middle"" ></div><div id=""jspsych-space-daw-top-stim-right"" ></div><div style=""clear:both""></div><div id=""jspsych-space-daw-bottom-stim-left"" style=""background-image: url('./tasks/two-arm-new/img/earth_stim_1.png')""></div><div id=""jspsych-space-daw-bottom-stim-middle"" ></div><div id=""jspsych-space-daw-bottom-stim-right"" style=""background-image: url('./tasks/two-arm-new/img/earth_stim_2.png')""></div></div><p>Score: 0</p>","","","","","","","","","","","","","","","","","","",""
"html-keyboard-response","98","55943","0.0-4.0-10.3-0.3-1.3-0.3","60520f7b38610f36b366a806","6359551218e5c682346227eb","0ixb5nh1bzrf","null","","null","","","","","","","","<div style=""background-image: url('./tasks/two-arm-new/img/earth_planet.png')""><div id=""jspsych-space-daw-top-stim-left"" ></div><div id=""jspsych-space-daw-top-stim-middle"" ></div><div id=""jspsych-space-daw-top-stim-right"" ></div><div style=""clear:both""></div><div id=""jspsych-space-daw-bottom-stim-left"" style=""background-image: url('./tasks/two-arm-new/img/earth_stim_1.png')""></div><div id=""jspsych-space-daw-bottom-stim-middle"" ></div><div id=""jspsych-space-daw-bottom-stim-right"" class=""jspsych-space-daw-bottom-stim-border"" style=""background-image: url('./tasks/two-arm-new/img/earth_stim_2.png')""></div></div><p>Score: 0</p>","","","","","","","","","","","","","","","","","","",""
"html-keyboard-response","99","55980","0.0-4.0-10.3-0.3-1.3-1.3","60520f7b38610f36b366a806","6359551218e5c682346227eb","0ixb5nh1bzrf","37","","f","","","","","","","","<div style=""background-image: url('./tasks/two-arm-new/img/red_planet.png')""><div id=""jspsych-space-daw-top-stim-left"" ></div><div id=""jspsych-space-daw-top-stim-middle"" style=""background-image: url('./tasks/two-arm-new/img/earth_stim_2_deact.png')""></div><div id=""jspsych-space-daw-top-stim-right"" ></div><div style=""clear:both""></div><div id=""jspsych-space-daw-bottom-stim-left"" style=""background-image: url('./tasks/two-arm-new/img/red_stim_2.png')""></div><div id=""jspsych-space-daw-bottom-stim-middle"" ></div><div id=""jspsych-space-daw-bottom-stim-right"" style=""background-image: url('./tasks/two-arm-new/img/red_stim_1.png')""></div></div><p>Score: 0</p>","","","","","","","","","","","","","","","","","","",""
"html-keyboard-response","100","56489","0.0-4.0-10.3-0.3-1.3-2.3-0.3","60520f7b38610f36b366a806","6359551218e5c682346227eb","0ixb5nh1bzrf","null","","null","","","","","","","","<div style=""background-image: url('./tasks/two-arm-new/img/red_planet.png')""><div id=""jspsych-space-daw-top-stim-left"" ></div><div id=""jspsych-space-daw-top-stim-middle"" style=""background-image: url('./tasks/two-arm-new/img/earth_stim_2_deact.png')""></div><div id=""jspsych-space-daw-top-stim-right"" ></div><div style=""clear:both""></div><div id=""jspsych-space-daw-bottom-stim-left"" class=""jspsych-space-daw-bottom-stim-border"" style=""background-image: url('./tasks/two-arm-new/img/red_stim_2.png')""></div><div id=""jspsych-space-daw-bottom-stim-middle"" ></div><div id=""jspsych-space-daw-bottom-stim-right"" style=""background-image: url('./tasks/two-arm-new/img/red_stim_1.png')""></div></div><p>Score: 0</p>","","","","","","","","","","","","","","","","","","",""
"html-keyboard-response","101","57498","0.0-4.0-10.3-0.3-1.3-2.3-1.3","60520f7b38610f36b366a806","6359551218e5c682346227eb","0ixb5nh1bzrf","null","","null","","","","","","","","<div style=""background-image: url('./tasks/two-arm-new/img/red_planet.png')""><div id=""jspsych-space-daw-top-stim-left"" style=""background-image: url('./tasks/two-arm-new/img/treasure.png')""></div><div id=""jspsych-space-daw-top-stim-middle"" style=""background-image: url('./tasks/two-arm-new/img/earth_stim_2_deact.png')""></div><div id=""jspsych-space-daw-top-stim-right"" ></div><div style=""clear:both""></div><div id=""jspsych-space-daw-bottom-stim-left"" class=""jspsych-space-daw-bottom-stim-border"" style=""background-image: url('./tasks/two-arm-new/img/red_stim_2.png')""></div><div id=""jspsych-space-daw-bottom-stim-middle"" ></div><div id=""jspsych-space-daw-bottom-stim-right"" style=""background-image: url('./tasks/two-arm-new/img/red_stim_1.png')""></div></div><p>Score: 1</p>","two_arm_exp","4","","4","1","2","2","j","f","102","37","","","","","","","",""
"html-keyboard-response","102","57550","0.0-4.0-10.4-0.4-0.4","60520f7b38610f36b366a806","6359551218e5c682346227eb","0ixb5nh1bzrf","53","","f","","","","","","","","<div style=""background-image: url('./tasks/two-arm-new/img/earth_planet.png')""><div id=""jspsych-space-daw-top-stim-left"" ></div><div id=""jspsych-space-daw-top-stim-middle"" ></div><div id=""jspsych-space-daw-top-stim-right"" ></div><div style=""clear:both""></div><div id=""jspsych-space-daw-bottom-stim-left"" style=""background-image: url('./tasks/two-arm-new/img/earth_stim_2.png')""></div><div id=""jspsych-space-daw-bottom-stim-middle"" ></div><div id=""jspsych-space-daw-bottom-stim-right"" style=""background-image: url('./tasks/two-arm-new/img/earth_stim_1.png')""></div></div><p>Score: 1</p>","","","","","","","","","","","","","","","","","","",""
"html-keyboard-response","103","58054","0.0-4.0-10.4-0.4-1.4-0.4","60520f7b38610f36b366a806","6359551218e5c682346227eb","0ixb5nh1bzrf","null","","null","","","","","","","","<div style=""background-image: url('./tasks/two-arm-new/img/earth_planet.png')""><div id=""jspsych-space-daw-top-stim-left"" ></div><div id=""jspsych-space-daw-top-stim-middle"" ></div><div id=""jspsych-space-daw-top-stim-right"" ></div><div style=""clear:both""></div><div id=""jspsych-space-daw-bottom-stim-left"" class=""jspsych-space-daw-bottom-stim-border"" style=""background-image: url('./tasks/two-arm-new/img/earth_stim_2.png')""></div><div id=""jspsych-space-daw-bottom-stim-middle"" ></div><div id=""jspsych-space-daw-bottom-stim-right"" style=""background-image: url('./tasks/two-arm-new/img/earth_stim_1.png')""></div></div><p>Score: 1</p>","","","","","","","","","","","","","","","","","","",""
"html-keyboard-response","104","58102","0.0-4.0-10.4-0.4-1.4-1.4","60520f7b38610f36b366a806","6359551218e5c682346227eb","0ixb5nh1bzrf","49","","j","","","","","","","","<div style=""background-image: url('./tasks/two-arm-new/img/red_planet.png')""><div id=""jspsych-space-daw-top-stim-left"" ></div><div id=""jspsych-space-daw-top-stim-middle"" style=""background-image: url('./tasks/two-arm-new/img/earth_stim_2_deact.png')""></div><div id=""jspsych-space-daw-top-stim-right"" ></div><div style=""clear:both""></div><div id=""jspsych-space-daw-bottom-stim-left"" style=""background-image: url('./tasks/two-arm-new/img/red_stim_2.png')""></div><div id=""jspsych-space-daw-bottom-stim-middle"" ></div><div id=""jspsych-space-daw-bottom-stim-right"" style=""background-image: url('./tasks/two-arm-new/img/red_stim_1.png')""></div></div><p>Score: 1</p>","","","","","","","","","","","","","","","","","","",""
"html-keyboard-response","105","58613","0.0-4.0-10.4-0.4-1.4-2.4-0.4","60520f7b38610f36b366a806","6359551218e5c682346227eb","0ixb5nh1bzrf","null","","null","","","","","","","","<div style=""background-image: url('./tasks/two-arm-new/img/red_planet.png')""><div id=""jspsych-space-daw-top-stim-left"" ></div><div id=""jspsych-space-daw-top-stim-middle"" style=""background-image: url('./tasks/two-arm-new/img/earth_stim_2_deact.png')""></div><div id=""jspsych-space-daw-top-stim-right"" ></div><div style=""clear:both""></div><div id=""jspsych-space-daw-bottom-stim-left"" style=""background-image: url('./tasks/two-arm-new/img/red_stim_2.png')""></div><div id=""jspsych-space-daw-bottom-stim-middle"" ></div><div id=""jspsych-space-daw-bottom-stim-right"" class=""jspsych-space-daw-bottom-stim-border"" style=""background-image: url('./tasks/two-arm-new/img/red_stim_1.png')""></div></div><p>Score: 1</p>","","","","","","","","","","","","","","","","","","",""
"html-keyboard-response","106","59621","0.0-4.0-10.4-0.4-1.4-2.4-1.4","60520f7b38610f36b366a806","6359551218e5c682346227eb","0ixb5nh1bzrf","null","","null","","","","","","","","<div style=""background-image: url('./tasks/two-arm-new/img/red_planet.png')""><div id=""jspsych-space-daw-top-stim-left"" ></div><div id=""jspsych-space-daw-top-stim-middle"" style=""background-image: url('./tasks/two-arm-new/img/earth_stim_2_deact.png')""></div><div id=""jspsych-space-daw-top-stim-right"" style=""background-image: url('./tasks/two-arm-new/img/noreward.png')""></div><div style=""clear:both""></div><div id=""jspsych-space-daw-bottom-stim-left"" style=""background-image: url('./tasks/two-arm-new/img/red_stim_2.png')""></div><div id=""jspsych-space-daw-bottom-stim-middle"" ></div><div id=""jspsych-space-daw-bottom-stim-right"" class=""jspsych-space-daw-bottom-stim-border"" style=""background-image: url('./tasks/two-arm-new/img/red_stim_1_sad.png')""></div></div><p>Score: 1</p>","two_arm_exp","5","","3","0","2","2","f","j","53","49","","","","","","","",""
"html-keyboard-response","107","59669","0.0-4.0-10.5-0.5-0.5","60520f7b38610f36b366a806","6359551218e5c682346227eb","0ixb5nh1bzrf","47","","j","","","","","","","","<div style=""background-image: url('./tasks/two-arm-new/img/earth_planet.png')""><div id=""jspsych-space-daw-top-stim-left"" ></div><div id=""jspsych-space-daw-top-stim-middle"" ></div><div id=""jspsych-space-daw-top-stim-right"" ></div><div style=""clear:both""></div><div id=""jspsych-space-daw-bottom-stim-left"" style=""background-image: url('./tasks/two-arm-new/img/earth_stim_2.png')""></div><div id=""jspsych-space-daw-bottom-stim-middle"" ></div><div id=""jspsych-space-daw-bottom-stim-right"" style=""background-image: url('./tasks/two-arm-new/img/earth_stim_1.png')""></div></div><p>Score: 1</p>","","","","","","","","","","","","","","","","","","",""
"html-keyboard-response","108","60181","0.0-4.0-10.5-0.5-1.5-0.5","60520f7b38610f36b366a806","6359551218e5c682346227eb","0ixb5nh1bzrf","null","","null","","","","","","","","<div style=""background-image: url('./tasks/two-arm-new/img/earth_planet.png')""><div id=""jspsych-space-daw-top-stim-left"" ></div><div id=""jspsych-space-daw-top-stim-middle"" ></div><div id=""jspsych-space-daw-top-stim-right"" ></div><div style=""clear:both""></div><div id=""jspsych-space-daw-bottom-stim-left"" style=""background-image: url('./tasks/two-arm-new/img/earth_stim_2.png')""></div><div id=""jspsych-space-daw-bottom-stim-middle"" ></div><div id=""jspsych-space-daw-bottom-stim-right"" class=""jspsych-space-daw-bottom-stim-border"" style=""background-image: url('./tasks/two-arm-new/img/earth_stim_1.png')""></div></div><p>Score: 1</p>","","","","","","","","","","","","","","","","","","",""
"html-keyboard-response","109","60197","0.0-4.0-10.5-0.5-1.5-1.5","60520f7b38610f36b366a806","6359551218e5c682346227eb","0ixb5nh1bzrf","15","","f","","","","","","","","<div style=""background-image: url('./tasks/two-arm-new/img/red_planet.png')""><div id=""jspsych-space-daw-top-stim-left"" ></div><div id=""jspsych-space-daw-top-stim-middle"" style=""background-image: url('./tasks/two-arm-new/img/earth_stim_1_deact.png')""></div><div id=""jspsych-space-daw-top-stim-right"" ></div><div style=""clear:both""></div><div id=""jspsych-space-daw-bottom-stim-left"" style=""background-image: url('./tasks/two-arm-new/img/red_stim_1.png')""></div><div id=""jspsych-space-daw-bottom-stim-middle"" ></div><div id=""jspsych-space-daw-bottom-stim-right"" style=""background-image: url('./tasks/two-arm-new/img/red_stim_2.png')""></div></div><p>Score: 1</p>","","","","","","","","","","","","","","","","","","",""
"html-keyboard-response","110","60709","0.0-4.0-10.5-0.5-1.5-2.5-0.5","60520f7b38610f36b366a806","6359551218e5c682346227eb","0ixb5nh1bzrf","null","","null","","","","","","","","<div style=""background-image: url('./tasks/two-arm-new/img/red_planet.png')""><div id=""jspsych-space-daw-top-stim-left"" ></div><div id=""jspsych-space-daw-top-stim-middle"" style=""background-image: url('./tasks/two-arm-new/img/earth_stim_1_deact.png')""></div><div id=""jspsych-space-daw-top-stim-right"" ></div><div style=""clear:both""></div><div id=""jspsych-space-daw-bottom-stim-left"" class=""jspsych-space-daw-bottom-stim-border"" style=""background-image: url('./tasks/two-arm-new/img/red_stim_1.png')""></div><div id=""jspsych-space-daw-bottom-stim-middle"" ></div><div id=""jspsych-space-daw-bottom-stim-right"" style=""background-image: url('./tasks/two-arm-new/img/red_stim_2.png')""></div></div><p>Score: 1</p>","","","","","","","","","","","","","","","","","","",""
"html-keyboard-response","111","61719","0.0-4.0-10.5-0.5-1.5-2.5-1.5","60520f7b38610f36b366a806","6359551218e5c682346227eb","0ixb5nh1bzrf","null","","null","","","","","","","","<div style=""background-image: url('./tasks/two-arm-new/img/red_planet.png')""><div id=""jspsych-space-daw-top-stim-left"" style=""background-image: url('./tasks/two-arm-new/img/noreward.png')""></div><div id=""jspsych-space-daw-top-stim-middle"" style=""background-image: url('./tasks/two-arm-new/img/earth_stim_1_deact.png')""></div><div id=""jspsych-space-daw-top-stim-right"" ></div><div style=""clear:both""></div><div id=""jspsych-space-daw-bottom-stim-left"" class=""jspsych-space-daw-bottom-stim-border"" style=""background-image: url('./tasks/two-arm-new/img/red_stim_1_sad.png')""></div><div id=""jspsych-space-daw-bottom-stim-middle"" ></div><div id=""jspsych-space-daw-bottom-stim-right"" style=""background-image: url('./tasks/two-arm-new/img/red_stim_2.png')""></div></div><p>Score: 1</p>","two_arm_exp","6","","3","0","1","2","j","f","47","15","","","","","","","",""
"html-keyboard-response","112","61786","0.0-4.0-10.6-0.6-0.6","60520f7b38610f36b366a806","6359551218e5c682346227eb","0ixb5nh1bzrf","67","","j","","","","","","","","<div style=""background-image: url('./tasks/two-arm-new/img/earth_planet.png')""><div id=""jspsych-space-daw-top-stim-left"" ></div><div id=""jspsych-space-daw-top-stim-middle"" ></div><div id=""jspsych-space-daw-top-stim-right"" ></div><div style=""clear:both""></div><div id=""jspsych-space-daw-bottom-stim-left"" style=""background-image: url('./tasks/two-arm-new/img/earth_stim_2.png')""></div><div id=""jspsych-space-daw-bottom-stim-middle"" ></div><div id=""jspsych-space-daw-bottom-stim-right"" style=""background-image: url('./tasks/two-arm-new/img/earth_stim_1.png')""></div></div><p>Score: 1</p>","","","","","","","","","","","","","","","","","","",""
"html-keyboard-response","113","62294","0.0-4.0-10.6-0.6-1.6-0.6","60520f7b38610f36b366a806","6359551218e5c682346227eb","0ixb5nh1bzrf","null","","null","","","","","","","","<div style=""background-image: url('./tasks/two-arm-new/img/earth_planet.png')""><div id=""jspsych-space-daw-top-stim-left"" ></div><div id=""jspsych-space-daw-top-stim-middle"" ></div><div id=""jspsych-space-daw-top-stim-right"" ></div><div style=""clear:both""></div><div id=""jspsych-space-daw-bottom-stim-left"" style=""background-image: url('./tasks/two-arm-new/img/earth_stim_2.png')""></div><div id=""jspsych-space-daw-bottom-stim-middle"" ></div><div id=""jspsych-space-daw-bottom-stim-right"" class=""jspsych-space-daw-bottom-stim-border"" style=""background-image: url('./tasks/two-arm-new/img/earth_stim_1.png')""></div></div><p>Score: 1</p>","","","","","","","","","","","","","","","","","","",""
"html-keyboard-response","114","62336","0.0-4.0-10.6-0.6-1.6-1.6","60520f7b38610f36b366a806","6359551218e5c682346227eb","0ixb5nh1bzrf","42","","f","","","","","","","","<div style=""background-image: url('./tasks/two-arm-new/img/purple_planet.png')""><div id=""jspsych-space-daw-top-stim-left"" ></div><div id=""jspsych-space-daw-top-stim-middle"" style=""background-image: url('./tasks/two-arm-new/img/earth_stim_1_deact.png')""></div><div id=""jspsych-space-daw-top-stim-right"" ></div><div style=""clear:both""></div><div id=""jspsych-space-daw-bottom-stim-left"" style=""background-image: url('./tasks/two-arm-new/img/purple_stim_1.png')""></div><div id=""jspsych-space-daw-bottom-stim-middle"" ></div><div id=""jspsych-space-daw-bottom-stim-right"" style=""background-image: url('./tasks/two-arm-new/img/purple_stim_2.png')""></div></div><p>Score: 1</p>","","","","","","","","","","","","","","","","","","",""
"html-keyboard-response","115","62841","0.0-4.0-10.6-0.6-1.6-2.6-0.6","60520f7b38610f36b366a806","6359551218e5c682346227eb","0ixb5nh1bzrf","null","","null","","","","","","","","<div style=""background-image: url('./tasks/two-arm-new/img/purple_planet.png')""><div id=""jspsych-space-daw-top-stim-left"" ></div><div id=""jspsych-space-daw-top-stim-middle"" style=""background-image: url('./tasks/two-arm-new/img/earth_stim_1_deact.png')""></div><div id=""jspsych-space-daw-top-stim-right"" ></div><div style=""clear:both""></div><div id=""jspsych-space-daw-bottom-stim-left"" class=""jspsych-space-daw-bottom-stim-border"" style=""background-image: url('./tasks/two-arm-new/img/purple_stim_1.png')""></div><div id=""jspsych-space-daw-bottom-stim-middle"" ></div><div id=""jspsych-space-daw-bottom-stim-right"" style=""background-image: url('./tasks/two-arm-new/img/purple_stim_2.png')""></div></div><p>Score: 1</p>","","","","","","","","","","","","","","","","","","",""
"html-keyboard-response","116","63851","0.0-4.0-10.6-0.6-1.6-2.6-1.6","60520f7b38610f36b366a806","6359551218e5c682346227eb","0ixb5nh1bzrf","null","","null","","","","","","","","<div style=""background-image: url('./tasks/two-arm-new/img/purple_planet.png')""><div id=""jspsych-space-daw-top-stim-left"" style=""background-image: url('./tasks/two-arm-new/img/noreward.png')""></div><div id=""jspsych-space-daw-top-stim-middle"" style=""background-image: url('./tasks/two-arm-new/img/earth_stim_1_deact.png')""></div><div id=""jspsych-space-daw-top-stim-right"" ></div><div style=""clear:both""></div><div id=""jspsych-space-daw-bottom-stim-left"" class=""jspsych-space-daw-bottom-stim-border"" style=""background-image: url('./tasks/two-arm-new/img/purple_stim_1_sad.png')""></div><div id=""jspsych-space-daw-bottom-stim-middle"" ></div><div id=""jspsych-space-daw-bottom-stim-right"" style=""background-image: url('./tasks/two-arm-new/img/purple_stim_2.png')""></div></div><p>Score: 1</p>","two_arm_exp","7","","1","0","1","1","j","f","67","42","","","","","","","",""
