"trial_type","trial_index","time_elapsed","internal_node_id","subject_id","study_id","session_id","rt","url","response","question_order","view_history","success","timeout","failed_images","failed_audio","failed_video","stimulus","block","trial_number","jar","bead","previous_bead","choice","correct","highH_score","lowH_score","state","rewarded","state1_action","state2_visited","state1_key","state2_key","state1_rt","state2_rt","block_num","seq_file","trial_seq_info","two_arm_score_block1","two_arm_score_block2","two_arm_score_total","total_bonus"
"pavlovia","0","1412","0.0-0.0","63168f4d57bf8e3c1a5cf056","63690f60c96a0a9a64b48fbc","63691970d5695b837e9fbf9b","","","","","","","","","","","","","","","","","","","","","","","","","","","","","","","","","","",""
"external-html","1","62172","0.0-1.0-0.0","63168f4d57bf8e3c1a5cf056","63690f60c96a0a9a64b48fbc","63691970d5695b837e9fbf9b","60570","new_consent.html","","","","","","","","","","","","","","","","","","","","","","","","","","","","","","","","",""
"survey-multi-choice","2","69474","0.0-1.0-1.0","63168f4d57bf8e3c1a5cf056","63690f60c96a0a9a64b48fbc","63691970d5695b837e9fbf9b","7298","","{""Q0"":""Male"",""Q1"":""Hispanic or Latino""}","[0,1]","","","","","","","","","","","","","","","","","","","","","","","","","","","","","","",""
"survey-text","3","74107","0.0-1.0-2.0","63168f4d57bf8e3c1a5cf056","63690f60c96a0a9a64b48fbc","63691970d5695b837e9fbf9b","4627","","{""Q0"":""26""}","","","","","","","","","","","","","","","","","","","","","","","","","","","","","","","",""
"instructions","4","95249","0.0-2.0","63168f4d57bf8e3c1a5cf056","63690f60c96a0a9a64b48fbc","63691970d5695b837e9fbf9b","21029","","","","[{""page_index"":0,""viewing_time"":17977},{""page_index"":1,""viewing_time"":3051}]","","","","","","","","","","","","","","","","","","","","","","","","","","","","","",""
"instructions","5","96983","0.0-3.0","63168f4d57bf8e3c1a5cf056","63690f60c96a0a9a64b48fbc","63691970d5695b837e9fbf9b","1733","","","","[{""page_index"":0,""viewing_time"":1733}]","","","","","","","","","","","","","","","","","","","","","","","","","","","","","",""
"preload","6","98776","0.0-4.0-0.0","63168f4d57bf8e3c1a5cf056","63690f60c96a0a9a64b48fbc","63691970d5695b837e9fbf9b","","","","","","true","false","[]","[]","[]","","","","","","","","","","","","","","","","","","","","","","","","",""
"instructions","7","275284","0.0-4.0-1.0","63168f4d57bf8e3c1a5cf056","63690f60c96a0a9a64b48fbc","63691970d5695b837e9fbf9b","176508","","","","[{""page_index"":0,""viewing_time"":14547},{""page_index"":1,""viewing_time"":14121},{""page_index"":2,""viewing_time"":7568},{""page_index"":3,""viewing_time"":2888},{""page_index"":4,""viewing_time"":36935},{""page_index"":5,""viewing_time"":34290},{""page_index"":6,""viewing_time"":7335},{""page_index"":7,""viewing_time"":23477},{""page_index"":6,""viewing_time"":5135},{""page_index"":7,""viewing_time"":1605},{""page_index"":8,""viewing_time"":11638},{""page_index"":9,""viewing_time"":7965},{""page_index"":10,""viewing_time"":6735},{""page_index"":11,""viewing_time"":2268}]","","","","","","","","","","","","","","","","","","","","","","","","","","","","","",""
"html-button-response","8","279301","0.0-4.0-2.0-0.0-0.0","63168f4d57bf8e3c1a5cf056","63690f60c96a0a9a64b48fbc","63691970d5695b837e9fbf9b","4016","","1","","","","","","","","<div align=center>Your goal is to predict…?<br><br></div>","","","","","","","","","","","","","","","","","","","","","","","",""
"html-button-response","9","287070","0.0-4.0-2.0-1.0-0.0","63168f4d57bf8e3c1a5cf056","63690f60c96a0a9a64b48fbc","63691970d5695b837e9fbf9b","5712","","2","","","","","","","","<div align=center>In the jar with mostly white beads, there are ___% white beads and ___% black beads?<br><br></div>","","","","","","","","","","","","","","","","","","","","","","","",""
"html-button-response","10","296407","0.0-4.0-2.0-2.0-0.0","63168f4d57bf8e3c1a5cf056","63690f60c96a0a9a64b48fbc","63691970d5695b837e9fbf9b","7631","","0","","","","","","","","<div align=center>When there is a 1% probability that the jars will switch, the next bead will most likely be drawn from the…<br><br></div>","","","","","","","","","","","","","","","","","","","","","","","",""
"html-button-response","11","302593","0.0-4.0-2.0-3.0-0.0","63168f4d57bf8e3c1a5cf056","63690f60c96a0a9a64b48fbc","63691970d5695b837e9fbf9b","4657","","1","","","","","","","","<div align=center>When there is a 99% probability that the jars will switch, the next bead will most likely be drawn from the…<br><br></div>","","","","","","","","","","","","","","","","","","","","","","","",""
"instructions","12","318781","0.0-4.0-3.0","63168f4d57bf8e3c1a5cf056","63690f60c96a0a9a64b48fbc","63691970d5695b837e9fbf9b","14833","","","","[{""page_index"":0,""viewing_time"":14832}]","","","","","","","","","","","","","","","","","","","","","","","","","","","","","",""
"html-keyboard-response","13","334748","0.0-4.0-4.0-0.0","63168f4d57bf8e3c1a5cf056","63690f60c96a0a9a64b48fbc","63691970d5695b837e9fbf9b","15966",""," ","","","","","","","","<div align=center>In this practice block, there will be a <b>10% chance</b> that the jar on the next trial will be different from the jar on the current trial.<br><br></div>","","","","","","","","","","","","","","","","","","","","","","","",""
"image-keyboard-response","14","351785","0.0-4.0-4.0-1.0-0.0","63168f4d57bf8e3c1a5cf056","63690f60c96a0a9a64b48fbc","63691970d5695b837e9fbf9b","17027","","f","","","","","","","","./tasks/HMM-beads/Images/NoChoice.png","practice","0","1","1","0","1","true","","","","","","","","","","","","","","","","",""
"image-keyboard-response","15","352088","0.0-4.0-4.0-1.0-1.0","63168f4d57bf8e3c1a5cf056","63690f60c96a0a9a64b48fbc","63691970d5695b837e9fbf9b","null","","null","","","","","","","","./tasks/HMM-beads/Images/BlackBeadChoice.png","","","","","","","","","","","","","","","","","","","","","","","",""
"image-keyboard-response","16","352599","0.0-4.0-4.0-1.0-2.0","63168f4d57bf8e3c1a5cf056","63690f60c96a0a9a64b48fbc","63691970d5695b837e9fbf9b","null","","null","","","","","","","","./tasks/HMM-beads/Images/BlackBeadChoiceCorrect.png","","","","","","","","","","","","","","","","","","","","","","","",""
"image-keyboard-response","17","359911","0.0-4.0-4.0-1.0-0.1","63168f4d57bf8e3c1a5cf056","63690f60c96a0a9a64b48fbc","63691970d5695b837e9fbf9b","7310","","f","","","","","","","","./tasks/HMM-beads/Images/NewTrialBC.png","practice","1","1","1","1","1","true","","","","","","","","","","","","","","","","",""
"image-keyboard-response","18","360224","0.0-4.0-4.0-1.0-1.1","63168f4d57bf8e3c1a5cf056","63690f60c96a0a9a64b48fbc","63691970d5695b837e9fbf9b","null","","null","","","","","","","","./tasks/HMM-beads/Images/BlackBeadChoice.png","","","","","","","","","","","","","","","","","","","","","","","",""
"image-keyboard-response","19","360745","0.0-4.0-4.0-1.0-2.1","63168f4d57bf8e3c1a5cf056","63690f60c96a0a9a64b48fbc","63691970d5695b837e9fbf9b","null","","null","","","","","","","","./tasks/HMM-beads/Images/BlackBeadChoiceCorrect.png","","","","","","","","","","","","","","","","","","","","","","","",""
"image-keyboard-response","20","377312","0.0-4.0-4.0-1.0-0.2","63168f4d57bf8e3c1a5cf056","63690f60c96a0a9a64b48fbc","63691970d5695b837e9fbf9b","16565","","f","","","","","","","","./tasks/HMM-beads/Images/NewTrialBC.png","practice","2","1","2","1","1","false","","","","","","","","","","","","","","","","",""
"image-keyboard-response","21","377632","0.0-4.0-4.0-1.0-1.2","63168f4d57bf8e3c1a5cf056","63690f60c96a0a9a64b48fbc","63691970d5695b837e9fbf9b","null","","null","","","","","","","","./tasks/HMM-beads/Images/BlackBeadChoice.png","","","","","","","","","","","","","","","","","","","","","","","",""
"image-keyboard-response","22","378151","0.0-4.0-4.0-1.0-2.2","63168f4d57bf8e3c1a5cf056","63690f60c96a0a9a64b48fbc","63691970d5695b837e9fbf9b","null","","null","","","","","","","","./tasks/HMM-beads/Images/BlackBeadChoiceWrong.png","","","","","","","","","","","","","","","","","","","","","","","",""
"image-keyboard-response","23","379923","0.0-4.0-4.0-1.0-0.3","63168f4d57bf8e3c1a5cf056","63690f60c96a0a9a64b48fbc","63691970d5695b837e9fbf9b","1771","","j","","","","","","","","./tasks/HMM-beads/Images/NewTrialWC.png","practice","3","1","1","2","2","false","","","","","","","","","","","","","","","","",""
"image-keyboard-response","24","380232","0.0-4.0-4.0-1.0-1.3","63168f4d57bf8e3c1a5cf056","63690f60c96a0a9a64b48fbc","63691970d5695b837e9fbf9b","null","","null","","","","","","","","./tasks/HMM-beads/Images/WhiteBeadChoice.png","","","","","","","","","","","","","","","","","","","","","","","",""
"image-keyboard-response","25","380740","0.0-4.0-4.0-1.0-2.3","63168f4d57bf8e3c1a5cf056","63690f60c96a0a9a64b48fbc","63691970d5695b837e9fbf9b","null","","null","","","","","","","","./tasks/HMM-beads/Images/WhiteBeadChoiceWrong.png","","","","","","","","","","","","","","","","","","","","","","","",""
"image-keyboard-response","26","383039","0.0-4.0-4.0-1.0-0.4","63168f4d57bf8e3c1a5cf056","63690f60c96a0a9a64b48fbc","63691970d5695b837e9fbf9b","2298","","f","","","","","","","","./tasks/HMM-beads/Images/NewTrialBC.png","practice","4","1","2","1","1","false","","","","","","","","","","","","","","","","",""
"image-keyboard-response","27","383353","0.0-4.0-4.0-1.0-1.4","63168f4d57bf8e3c1a5cf056","63690f60c96a0a9a64b48fbc","63691970d5695b837e9fbf9b","null","","null","","","","","","","","./tasks/HMM-beads/Images/BlackBeadChoice.png","","","","","","","","","","","","","","","","","","","","","","","",""
"image-keyboard-response","28","383873","0.0-4.0-4.0-1.0-2.4","63168f4d57bf8e3c1a5cf056","63690f60c96a0a9a64b48fbc","63691970d5695b837e9fbf9b","null","","null","","","","","","","","./tasks/HMM-beads/Images/BlackBeadChoiceWrong.png","","","","","","","","","","","","","","","","","","","","","","","",""
"image-keyboard-response","29","385145","0.0-4.0-4.0-1.0-0.5","63168f4d57bf8e3c1a5cf056","63690f60c96a0a9a64b48fbc","63691970d5695b837e9fbf9b","1270","","j","","","","","","","","./tasks/HMM-beads/Images/NewTrialWC.png","practice","5","1","1","2","2","false","","","","","","","","","","","","","","","","",""
"image-keyboard-response","30","385466","0.0-4.0-4.0-1.0-1.5","63168f4d57bf8e3c1a5cf056","63690f60c96a0a9a64b48fbc","63691970d5695b837e9fbf9b","null","","null","","","","","","","","./tasks/HMM-beads/Images/WhiteBeadChoice.png","","","","","","","","","","","","","","","","","","","","","","","",""
"image-keyboard-response","31","385985","0.0-4.0-4.0-1.0-2.5","63168f4d57bf8e3c1a5cf056","63690f60c96a0a9a64b48fbc","63691970d5695b837e9fbf9b","null","","null","","","","","","","","./tasks/HMM-beads/Images/WhiteBeadChoiceWrong.png","","","","","","","","","","","","","","","","","","","","","","","",""
"image-keyboard-response","32","386442","0.0-4.0-4.0-1.0-0.6","63168f4d57bf8e3c1a5cf056","63690f60c96a0a9a64b48fbc","63691970d5695b837e9fbf9b","451","","f","","","","","","","","./tasks/HMM-beads/Images/NewTrialBC.png","practice","6","1","2","1","1","false","","","","","","","","","","","","","","","","",""
"image-keyboard-response","33","386750","0.0-4.0-4.0-1.0-1.6","63168f4d57bf8e3c1a5cf056","63690f60c96a0a9a64b48fbc","63691970d5695b837e9fbf9b","null","","null","","","","","","","","./tasks/HMM-beads/Images/BlackBeadChoice.png","","","","","","","","","","","","","","","","","","","","","","","",""
"image-keyboard-response","34","387260","0.0-4.0-4.0-1.0-2.6","63168f4d57bf8e3c1a5cf056","63690f60c96a0a9a64b48fbc","63691970d5695b837e9fbf9b","null","","null","","","","","","","","./tasks/HMM-beads/Images/BlackBeadChoiceWrong.png","","","","","","","","","","","","","","","","","","","","","","","",""
"image-keyboard-response","35","387601","0.0-4.0-4.0-1.0-0.7","63168f4d57bf8e3c1a5cf056","63690f60c96a0a9a64b48fbc","63691970d5695b837e9fbf9b","339","","j","","","","","","","","./tasks/HMM-beads/Images/NewTrialWC.png","practice","7","1","1","2","2","false","","","","","","","","","","","","","","","","",""
"image-keyboard-response","36","387918","0.0-4.0-4.0-1.0-1.7","63168f4d57bf8e3c1a5cf056","63690f60c96a0a9a64b48fbc","63691970d5695b837e9fbf9b","null","","null","","","","","","","","./tasks/HMM-beads/Images/WhiteBeadChoice.png","","","","","","","","","","","","","","","","","","","","","","","",""
"image-keyboard-response","37","388439","0.0-4.0-4.0-1.0-2.7","63168f4d57bf8e3c1a5cf056","63690f60c96a0a9a64b48fbc","63691970d5695b837e9fbf9b","null","","null","","","","","","","","./tasks/HMM-beads/Images/WhiteBeadChoiceWrong.png","","","","","","","","","","","","","","","","","","","","","","","",""
"image-keyboard-response","38","388977","0.0-4.0-4.0-1.0-0.8","63168f4d57bf8e3c1a5cf056","63690f60c96a0a9a64b48fbc","63691970d5695b837e9fbf9b","536","","f","","","","","","","","./tasks/HMM-beads/Images/NewTrialBC.png","practice","8","1","1","1","1","true","","","","","","","","","","","","","","","","",""
"image-keyboard-response","39","389283","0.0-4.0-4.0-1.0-1.8","63168f4d57bf8e3c1a5cf056","63690f60c96a0a9a64b48fbc","63691970d5695b837e9fbf9b","null","","null","","","","","","","","./tasks/HMM-beads/Images/BlackBeadChoice.png","","","","","","","","","","","","","","","","","","","","","","","",""
"image-keyboard-response","40","389792","0.0-4.0-4.0-1.0-2.8","63168f4d57bf8e3c1a5cf056","63690f60c96a0a9a64b48fbc","63691970d5695b837e9fbf9b","null","","null","","","","","","","","./tasks/HMM-beads/Images/BlackBeadChoiceCorrect.png","","","","","","","","","","","","","","","","","","","","","","","",""
"image-keyboard-response","41","392872","0.0-4.0-4.0-1.0-0.9","63168f4d57bf8e3c1a5cf056","63690f60c96a0a9a64b48fbc","63691970d5695b837e9fbf9b","3078","","f","","","","","","","","./tasks/HMM-beads/Images/NewTrialBC.png","practice","9","2","2","1","1","false","","","","","","","","","","","","","","","","",""
"image-keyboard-response","42","393186","0.0-4.0-4.0-1.0-1.9","63168f4d57bf8e3c1a5cf056","63690f60c96a0a9a64b48fbc","63691970d5695b837e9fbf9b","null","","null","","","","","","","","./tasks/HMM-beads/Images/BlackBeadChoice.png","","","","","","","","","","","","","","","","","","","","","","","",""
"image-keyboard-response","43","393694","0.0-4.0-4.0-1.0-2.9","63168f4d57bf8e3c1a5cf056","63690f60c96a0a9a64b48fbc","63691970d5695b837e9fbf9b","null","","null","","","","","","","","./tasks/HMM-beads/Images/BlackBeadChoiceWrong.png","","","","","","","","","","","","","","","","","","","","","","","",""
"image-keyboard-response","44","394267","0.0-4.0-4.0-1.0-0.10","63168f4d57bf8e3c1a5cf056","63690f60c96a0a9a64b48fbc","63691970d5695b837e9fbf9b","572","","j","","","","","","","","./tasks/HMM-beads/Images/NewTrialWC.png","practice","10","2","1","2","2","false","","","","","","","","","","","","","","","","",""
"image-keyboard-response","45","394586","0.0-4.0-4.0-1.0-1.10","63168f4d57bf8e3c1a5cf056","63690f60c96a0a9a64b48fbc","63691970d5695b837e9fbf9b","null","","null","","","","","","","","./tasks/HMM-beads/Images/WhiteBeadChoice.png","","","","","","","","","","","","","","","","","","","","","","","",""
"image-keyboard-response","46","395091","0.0-4.0-4.0-1.0-2.10","63168f4d57bf8e3c1a5cf056","63690f60c96a0a9a64b48fbc","63691970d5695b837e9fbf9b","null","","null","","","","","","","","./tasks/HMM-beads/Images/WhiteBeadChoiceWrong.png","","","","","","","","","","","","","","","","","","","","","","","",""
"image-keyboard-response","47","395635","0.0-4.0-4.0-1.0-0.11","63168f4d57bf8e3c1a5cf056","63690f60c96a0a9a64b48fbc","63691970d5695b837e9fbf9b","543","","f","","","","","","","","./tasks/HMM-beads/Images/NewTrialBC.png","practice","11","2","2","1","1","false","","","","","","","","","","","","","","","","",""
"image-keyboard-response","48","395941","0.0-4.0-4.0-1.0-1.11","63168f4d57bf8e3c1a5cf056","63690f60c96a0a9a64b48fbc","63691970d5695b837e9fbf9b","null","","null","","","","","","","","./tasks/HMM-beads/Images/BlackBeadChoice.png","","","","","","","","","","","","","","","","","","","","","","","",""
"image-keyboard-response","49","396461","0.0-4.0-4.0-1.0-2.11","63168f4d57bf8e3c1a5cf056","63690f60c96a0a9a64b48fbc","63691970d5695b837e9fbf9b","null","","null","","","","","","","","./tasks/HMM-beads/Images/BlackBeadChoiceWrong.png","","","","","","","","","","","","","","","","","","","","","","","",""
"image-keyboard-response","50","396773","0.0-4.0-4.0-1.0-0.12","63168f4d57bf8e3c1a5cf056","63690f60c96a0a9a64b48fbc","63691970d5695b837e9fbf9b","311","","j","","","","","","","","./tasks/HMM-beads/Images/NewTrialWC.png","practice","12","2","2","2","2","true","","","","","","","","","","","","","","","","",""
"image-keyboard-response","51","397088","0.0-4.0-4.0-1.0-1.12","63168f4d57bf8e3c1a5cf056","63690f60c96a0a9a64b48fbc","63691970d5695b837e9fbf9b","null","","null","","","","","","","","./tasks/HMM-beads/Images/WhiteBeadChoice.png","","","","","","","","","","","","","","","","","","","","","","","",""
"image-keyboard-response","52","397608","0.0-4.0-4.0-1.0-2.12","63168f4d57bf8e3c1a5cf056","63690f60c96a0a9a64b48fbc","63691970d5695b837e9fbf9b","null","","null","","","","","","","","./tasks/HMM-beads/Images/WhiteBeadChoiceCorrect.png","","","","","","","","","","","","","","","","","","","","","","","",""
"image-keyboard-response","53","397995","0.0-4.0-4.0-1.0-0.13","63168f4d57bf8e3c1a5cf056","63690f60c96a0a9a64b48fbc","63691970d5695b837e9fbf9b","386","","j","","","","","","","","./tasks/HMM-beads/Images/NewTrialWC.png","practice","13","2","2","2","2","true","","","","","","","","","","","","","","","","",""
"image-keyboard-response","54","398305","0.0-4.0-4.0-1.0-1.13","63168f4d57bf8e3c1a5cf056","63690f60c96a0a9a64b48fbc","63691970d5695b837e9fbf9b","null","","null","","","","","","","","./tasks/HMM-beads/Images/WhiteBeadChoice.png","","","","","","","","","","","","","","","","","","","","","","","",""
"image-keyboard-response","55","398823","0.0-4.0-4.0-1.0-2.13","63168f4d57bf8e3c1a5cf056","63690f60c96a0a9a64b48fbc","63691970d5695b837e9fbf9b","null","","null","","","","","","","","./tasks/HMM-beads/Images/WhiteBeadChoiceCorrect.png","","","","","","","","","","","","","","","","","","","","","","","",""
"image-keyboard-response","56","399937","0.0-4.0-4.0-1.0-0.14","63168f4d57bf8e3c1a5cf056","63690f60c96a0a9a64b48fbc","63691970d5695b837e9fbf9b","1113","","j","","","","","","","","./tasks/HMM-beads/Images/NewTrialWC.png","practice","14","2","2","2","2","true","","","","","","","","","","","","","","","","",""
"image-keyboard-response","57","400243","0.0-4.0-4.0-1.0-1.14","63168f4d57bf8e3c1a5cf056","63690f60c96a0a9a64b48fbc","63691970d5695b837e9fbf9b","null","","null","","","","","","","","./tasks/HMM-beads/Images/WhiteBeadChoice.png","","","","","","","","","","","","","","","","","","","","","","","",""
"image-keyboard-response","58","400746","0.0-4.0-4.0-1.0-2.14","63168f4d57bf8e3c1a5cf056","63690f60c96a0a9a64b48fbc","63691970d5695b837e9fbf9b","null","","null","","","","","","","","./tasks/HMM-beads/Images/WhiteBeadChoiceCorrect.png","","","","","","","","","","","","","","","","","","","","","","","",""
"image-keyboard-response","59","401294","0.0-4.0-4.0-1.0-0.15","63168f4d57bf8e3c1a5cf056","63690f60c96a0a9a64b48fbc","63691970d5695b837e9fbf9b","546","","j","","","","","","","","./tasks/HMM-beads/Images/NewTrialWC.png","practice","15","1","1","2","2","false","","","","","","","","","","","","","","","","",""
"image-keyboard-response","60","401608","0.0-4.0-4.0-1.0-1.15","63168f4d57bf8e3c1a5cf056","63690f60c96a0a9a64b48fbc","63691970d5695b837e9fbf9b","null","","null","","","","","","","","./tasks/HMM-beads/Images/WhiteBeadChoice.png","","","","","","","","","","","","","","","","","","","","","","","",""
"image-keyboard-response","61","402126","0.0-4.0-4.0-1.0-2.15","63168f4d57bf8e3c1a5cf056","63690f60c96a0a9a64b48fbc","63691970d5695b837e9fbf9b","null","","null","","","","","","","","./tasks/HMM-beads/Images/WhiteBeadChoiceWrong.png","","","","","","","","","","","","","","","","","","","","","","","",""
"image-keyboard-response","62","402402","0.0-4.0-4.0-1.0-0.16","63168f4d57bf8e3c1a5cf056","63690f60c96a0a9a64b48fbc","63691970d5695b837e9fbf9b","275","","f","","","","","","","","./tasks/HMM-beads/Images/NewTrialBC.png","practice","16","1","2","1","1","false","","","","","","","","","","","","","","","","",""
"image-keyboard-response","63","402706","0.0-4.0-4.0-1.0-1.16","63168f4d57bf8e3c1a5cf056","63690f60c96a0a9a64b48fbc","63691970d5695b837e9fbf9b","null","","null","","","","","","","","./tasks/HMM-beads/Images/BlackBeadChoice.png","","","","","","","","","","","","","","","","","","","","","","","",""
"image-keyboard-response","64","403216","0.0-4.0-4.0-1.0-2.16","63168f4d57bf8e3c1a5cf056","63690f60c96a0a9a64b48fbc","63691970d5695b837e9fbf9b","null","","null","","","","","","","","./tasks/HMM-beads/Images/BlackBeadChoiceWrong.png","","","","","","","","","","","","","","","","","","","","","","","",""
"image-keyboard-response","65","405478","0.0-4.0-4.0-1.0-0.17","63168f4d57bf8e3c1a5cf056","63690f60c96a0a9a64b48fbc","63691970d5695b837e9fbf9b","2261","","j","","","","","","","","./tasks/HMM-beads/Images/NewTrialWC.png","practice","17","1","1","2","2","false","","","","","","","","","","","","","","","","",""
"image-keyboard-response","66","405791","0.0-4.0-4.0-1.0-1.17","63168f4d57bf8e3c1a5cf056","63690f60c96a0a9a64b48fbc","63691970d5695b837e9fbf9b","null","","null","","","","","","","","./tasks/HMM-beads/Images/WhiteBeadChoice.png","","","","","","","","","","","","","","","","","","","","","","","",""
"image-keyboard-response","67","406301","0.0-4.0-4.0-1.0-2.17","63168f4d57bf8e3c1a5cf056","63690f60c96a0a9a64b48fbc","63691970d5695b837e9fbf9b","null","","null","","","","","","","","./tasks/HMM-beads/Images/WhiteBeadChoiceWrong.png","","","","","","","","","","","","","","","","","","","","","","","",""
"image-keyboard-response","68","406637","0.0-4.0-4.0-1.0-0.18","63168f4d57bf8e3c1a5cf056","63690f60c96a0a9a64b48fbc","63691970d5695b837e9fbf9b","334","","f","","","","","","","","./tasks/HMM-beads/Images/NewTrialBC.png","practice","18","1","1","1","1","true","","","","","","","","","","","","","","","","",""
"image-keyboard-response","69","406942","0.0-4.0-4.0-1.0-1.18","63168f4d57bf8e3c1a5cf056","63690f60c96a0a9a64b48fbc","63691970d5695b837e9fbf9b","null","","null","","","","","","","","./tasks/HMM-beads/Images/BlackBeadChoice.png","","","","","","","","","","","","","","","","","","","","","","","",""
"image-keyboard-response","70","407465","0.0-4.0-4.0-1.0-2.18","63168f4d57bf8e3c1a5cf056","63690f60c96a0a9a64b48fbc","63691970d5695b837e9fbf9b","null","","null","","","","","","","","./tasks/HMM-beads/Images/BlackBeadChoiceCorrect.png","","","","","","","","","","","","","","","","","","","","","","","",""
"image-keyboard-response","71","407781","0.0-4.0-4.0-1.0-0.19","63168f4d57bf8e3c1a5cf056","63690f60c96a0a9a64b48fbc","63691970d5695b837e9fbf9b","314","","f","","","","","","","","./tasks/HMM-beads/Images/NewTrialBC.png","practice","19","1","1","1","1","true","","","","","","","","","","","","","","","","",""
"image-keyboard-response","72","408082","0.0-4.0-4.0-1.0-1.19","63168f4d57bf8e3c1a5cf056","63690f60c96a0a9a64b48fbc","63691970d5695b837e9fbf9b","null","","null","","","","","","","","./tasks/HMM-beads/Images/BlackBeadChoice.png","","","","","","","","","","","","","","","","","","","","","","","",""
"image-keyboard-response","73","408596","0.0-4.0-4.0-1.0-2.19","63168f4d57bf8e3c1a5cf056","63690f60c96a0a9a64b48fbc","63691970d5695b837e9fbf9b","null","","null","","","","","","","","./tasks/HMM-beads/Images/BlackBeadChoiceCorrect.png","","","","","","","","","","","","","","","","","","","","","","","",""
"html-keyboard-response","74","412726","0.0-4.0-4.0-2.0","63168f4d57bf8e3c1a5cf056","63690f60c96a0a9a64b48fbc","63691970d5695b837e9fbf9b","4129",""," ","","","","","","","","","","","","","","","","","","","","","","","","","","","","","","","",""
"instructions","75","432626","0.0-4.0-5.0","63168f4d57bf8e3c1a5cf056","63690f60c96a0a9a64b48fbc","63691970d5695b837e9fbf9b","19900","","","","[{""page_index"":0,""viewing_time"":17130},{""page_index"":1,""viewing_time"":2769}]","","","","","","","","","","","","","","","","","","","","","","","","","","","","","",""
"html-keyboard-response","76","437420","0.0-4.0-6.0-0.0","63168f4d57bf8e3c1a5cf056","63690f60c96a0a9a64b48fbc","63691970d5695b837e9fbf9b","4793",""," ","","","","","","","","<div align=center>In this block, there will be a <b>99%</b> chance that the jar on the next trial will be different from the jar on the current trial.<br><br></div>","","","","","","","","","","","","","","","","","","","","","","","",""
"image-keyboard-response","77","451075","0.0-4.0-6.0-1.0-0.0","63168f4d57bf8e3c1a5cf056","63690f60c96a0a9a64b48fbc","63691970d5695b837e9fbf9b","13654","","j","","","","","","","","./tasks/HMM-beads/Images/NoChoice.png","highH","0","1","1","0","2","false","","","","","","","","","","","","","","","","",""
"image-keyboard-response","78","451391","0.0-4.0-6.0-1.0-1.0","63168f4d57bf8e3c1a5cf056","63690f60c96a0a9a64b48fbc","63691970d5695b837e9fbf9b","null","","null","","","","","","","","./tasks/HMM-beads/Images/WhiteBeadChoice.png","","","","","","","","","","","","","","","","","","","","","","","",""
"image-keyboard-response","79","451902","0.0-4.0-6.0-1.0-2.0","63168f4d57bf8e3c1a5cf056","63690f60c96a0a9a64b48fbc","63691970d5695b837e9fbf9b","null","","null","","","","","","","","./tasks/HMM-beads/Images/WhiteBeadChoiceWrong.png","","","","","","","","","","","","","","","","","","","","","","","",""
"image-keyboard-response","80","458370","0.0-4.0-6.0-1.0-0.1","63168f4d57bf8e3c1a5cf056","63690f60c96a0a9a64b48fbc","63691970d5695b837e9fbf9b","6471","","j","","","","","","","","./tasks/HMM-beads/Images/NewTrialBC.png","highH","1","2","2","1","2","true","","","","","","","","","","","","","","","","",""
"image-keyboard-response","81","458673","0.0-4.0-6.0-1.0-1.1","63168f4d57bf8e3c1a5cf056","63690f60c96a0a9a64b48fbc","63691970d5695b837e9fbf9b","null","","null","","","","","","","","./tasks/HMM-beads/Images/WhiteBeadChoice.png","","","","","","","","","","","","","","","","","","","","","","","",""
"image-keyboard-response","82","459195","0.0-4.0-6.0-1.0-2.1","63168f4d57bf8e3c1a5cf056","63690f60c96a0a9a64b48fbc","63691970d5695b837e9fbf9b","null","","null","","","","","","","","./tasks/HMM-beads/Images/WhiteBeadChoiceCorrect.png","","","","","","","","","","","","","","","","","","","","","","","",""
"image-keyboard-response","83","460257","0.0-4.0-6.0-1.0-0.2","63168f4d57bf8e3c1a5cf056","63690f60c96a0a9a64b48fbc","63691970d5695b837e9fbf9b","1061","","f","","","","","","","","./tasks/HMM-beads/Images/NewTrialWC.png","highH","2","1","1","2","1","true","","","","","","","","","","","","","","","","",""
"image-keyboard-response","84","460574","0.0-4.0-6.0-1.0-1.2","63168f4d57bf8e3c1a5cf056","63690f60c96a0a9a64b48fbc","63691970d5695b837e9fbf9b","null","","null","","","","","","","","./tasks/HMM-beads/Images/BlackBeadChoice.png","","","","","","","","","","","","","","","","","","","","","","","",""
"image-keyboard-response","85","461094","0.0-4.0-6.0-1.0-2.2","63168f4d57bf8e3c1a5cf056","63690f60c96a0a9a64b48fbc","63691970d5695b837e9fbf9b","null","","null","","","","","","","","./tasks/HMM-beads/Images/BlackBeadChoiceCorrect.png","","","","","","","","","","","","","","","","","","","","","","","",""
"image-keyboard-response","86","461899","0.0-4.0-6.0-1.0-0.3","63168f4d57bf8e3c1a5cf056","63690f60c96a0a9a64b48fbc","63691970d5695b837e9fbf9b","804","","j","","","","","","","","./tasks/HMM-beads/Images/NewTrialBC.png","highH","3","2","2","1","2","true","","","","","","","","","","","","","","","","",""
"image-keyboard-response","87","462208","0.0-4.0-6.0-1.0-1.3","63168f4d57bf8e3c1a5cf056","63690f60c96a0a9a64b48fbc","63691970d5695b837e9fbf9b","null","","null","","","","","","","","./tasks/HMM-beads/Images/WhiteBeadChoice.png","","","","","","","","","","","","","","","","","","","","","","","",""
"image-keyboard-response","88","462712","0.0-4.0-6.0-1.0-2.3","63168f4d57bf8e3c1a5cf056","63690f60c96a0a9a64b48fbc","63691970d5695b837e9fbf9b","null","","null","","","","","","","","./tasks/HMM-beads/Images/WhiteBeadChoiceCorrect.png","","","","","","","","","","","","","","","","","","","","","","","",""
"image-keyboard-response","89","463939","0.0-4.0-6.0-1.0-0.4","63168f4d57bf8e3c1a5cf056","63690f60c96a0a9a64b48fbc","63691970d5695b837e9fbf9b","1226","","f","","","","","","","","./tasks/HMM-beads/Images/NewTrialWC.png","highH","4","1","1","2","1","true","","","","","","","","","","","","","","","","",""
"image-keyboard-response","90","464254","0.0-4.0-6.0-1.0-1.4","63168f4d57bf8e3c1a5cf056","63690f60c96a0a9a64b48fbc","63691970d5695b837e9fbf9b","null","","null","","","","","","","","./tasks/HMM-beads/Images/BlackBeadChoice.png","","","","","","","","","","","","","","","","","","","","","","","",""
"image-keyboard-response","91","464762","0.0-4.0-6.0-1.0-2.4","63168f4d57bf8e3c1a5cf056","63690f60c96a0a9a64b48fbc","63691970d5695b837e9fbf9b","null","","null","","","","","","","","./tasks/HMM-beads/Images/BlackBeadChoiceCorrect.png","","","","","","","","","","","","","","","","","","","","","","","",""
"image-keyboard-response","92","465201","0.0-4.0-6.0-1.0-0.5","63168f4d57bf8e3c1a5cf056","63690f60c96a0a9a64b48fbc","63691970d5695b837e9fbf9b","437","","j","","","","","","","","./tasks/HMM-beads/Images/NewTrialBC.png","highH","5","2","2","1","2","true","","","","","","","","","","","","","","","","",""
"image-keyboard-response","93","465512","0.0-4.0-6.0-1.0-1.5","63168f4d57bf8e3c1a5cf056","63690f60c96a0a9a64b48fbc","63691970d5695b837e9fbf9b","null","","null","","","","","","","","./tasks/HMM-beads/Images/WhiteBeadChoice.png","","","","","","","","","","","","","","","","","","","","","","","",""
"image-keyboard-response","94","466017","0.0-4.0-6.0-1.0-2.5","63168f4d57bf8e3c1a5cf056","63690f60c96a0a9a64b48fbc","63691970d5695b837e9fbf9b","null","","null","","","","","","","","./tasks/HMM-beads/Images/WhiteBeadChoiceCorrect.png","","","","","","","","","","","","","","","","","","","","","","","",""
"image-keyboard-response","95","466467","0.0-4.0-6.0-1.0-0.6","63168f4d57bf8e3c1a5cf056","63690f60c96a0a9a64b48fbc","63691970d5695b837e9fbf9b","449","","f","","","","","","","","./tasks/HMM-beads/Images/NewTrialWC.png","highH","6","1","1","2","1","true","","","","","","","","","","","","","","","","",""
"image-keyboard-response","96","466776","0.0-4.0-6.0-1.0-1.6","63168f4d57bf8e3c1a5cf056","63690f60c96a0a9a64b48fbc","63691970d5695b837e9fbf9b","null","","null","","","","","","","","./tasks/HMM-beads/Images/BlackBeadChoice.png","","","","","","","","","","","","","","","","","","","","","","","",""
"image-keyboard-response","97","467280","0.0-4.0-6.0-1.0-2.6","63168f4d57bf8e3c1a5cf056","63690f60c96a0a9a64b48fbc","63691970d5695b837e9fbf9b","null","","null","","","","","","","","./tasks/HMM-beads/Images/BlackBeadChoiceCorrect.png","","","","","","","","","","","","","","","","","","","","","","","",""
"image-keyboard-response","98","467948","0.0-4.0-6.0-1.0-0.7","63168f4d57bf8e3c1a5cf056","63690f60c96a0a9a64b48fbc","63691970d5695b837e9fbf9b","666","","j","","","","","","","","./tasks/HMM-beads/Images/NewTrialBC.png","highH","7","2","1","1","2","false","","","","","","","","","","","","","","","","",""
"image-keyboard-response","99","468260","0.0-4.0-6.0-1.0-1.7","63168f4d57bf8e3c1a5cf056","63690f60c96a0a9a64b48fbc","63691970d5695b837e9fbf9b","null","","null","","","","","","","","./tasks/HMM-beads/Images/WhiteBeadChoice.png","","","","","","","","","","","","","","","","","","","","","","","",""
"image-keyboard-response","100","468780","0.0-4.0-6.0-1.0-2.7","63168f4d57bf8e3c1a5cf056","63690f60c96a0a9a64b48fbc","63691970d5695b837e9fbf9b","null","","null","","","","","","","","./tasks/HMM-beads/Images/WhiteBeadChoiceWrong.png","","","","","","","","","","","","","","","","","","","","","","","",""
"image-keyboard-response","101","469758","0.0-4.0-6.0-1.0-0.8","63168f4d57bf8e3c1a5cf056","63690f60c96a0a9a64b48fbc","63691970d5695b837e9fbf9b","977","","j","","","","","","","","./tasks/HMM-beads/Images/NewTrialBC.png","highH","8","1","1","1","2","false","","","","","","","","","","","","","","","","",""
"image-keyboard-response","102","470076","0.0-4.0-6.0-1.0-1.8","63168f4d57bf8e3c1a5cf056","63690f60c96a0a9a64b48fbc","63691970d5695b837e9fbf9b","null","","null","","","","","","","","./tasks/HMM-beads/Images/WhiteBeadChoice.png","","","","","","","","","","","","","","","","","","","","","","","",""
"image-keyboard-response","103","470585","0.0-4.0-6.0-1.0-2.8","63168f4d57bf8e3c1a5cf056","63690f60c96a0a9a64b48fbc","63691970d5695b837e9fbf9b","null","","null","","","","","","","","./tasks/HMM-beads/Images/WhiteBeadChoiceWrong.png","","","","","","","","","","","","","","","","","","","","","","","",""
"image-keyboard-response","104","471012","0.0-4.0-6.0-1.0-0.9","63168f4d57bf8e3c1a5cf056","63690f60c96a0a9a64b48fbc","63691970d5695b837e9fbf9b","426","","j","","","","","","","","./tasks/HMM-beads/Images/NewTrialBC.png","highH","9","2","2","1","2","true","","","","","","","","","","","","","","","","",""
"image-keyboard-response","105","471328","0.0-4.0-6.0-1.0-1.9","63168f4d57bf8e3c1a5cf056","63690f60c96a0a9a64b48fbc","63691970d5695b837e9fbf9b","null","","null","","","","","","","","./tasks/HMM-beads/Images/WhiteBeadChoice.png","","","","","","","","","","","","","","","","","","","","","","","",""
"image-keyboard-response","106","471846","0.0-4.0-6.0-1.0-2.9","63168f4d57bf8e3c1a5cf056","63690f60c96a0a9a64b48fbc","63691970d5695b837e9fbf9b","null","","null","","","","","","","","./tasks/HMM-beads/Images/WhiteBeadChoiceCorrect.png","","","","","","","","","","","","","","","","","","","","","","","",""
"image-keyboard-response","107","472135","0.0-4.0-6.0-1.0-0.10","63168f4d57bf8e3c1a5cf056","63690f60c96a0a9a64b48fbc","63691970d5695b837e9fbf9b","288","","f","","","","","","","","./tasks/HMM-beads/Images/NewTrialWC.png","highH","10","1","1","2","1","true","","","","","","","","","","","","","","","","",""
"image-keyboard-response","108","472445","0.0-4.0-6.0-1.0-1.10","63168f4d57bf8e3c1a5cf056","63690f60c96a0a9a64b48fbc","63691970d5695b837e9fbf9b","null","","null","","","","","","","","./tasks/HMM-beads/Images/BlackBeadChoice.png","","","","","","","","","","","","","","","","","","","","","","","",""
"image-keyboard-response","109","472961","0.0-4.0-6.0-1.0-2.10","63168f4d57bf8e3c1a5cf056","63690f60c96a0a9a64b48fbc","63691970d5695b837e9fbf9b","null","","null","","","","","","","","./tasks/HMM-beads/Images/BlackBeadChoiceCorrect.png","","","","","","","","","","","","","","","","","","","","","","","",""
"image-keyboard-response","110","473356","0.0-4.0-6.0-1.0-0.11","63168f4d57bf8e3c1a5cf056","63690f60c96a0a9a64b48fbc","63691970d5695b837e9fbf9b","393","","j","","","","","","","","./tasks/HMM-beads/Images/NewTrialBC.png","highH","11","2","2","1","2","true","","","","","","","","","","","","","","","","",""
"image-keyboard-response","111","473662","0.0-4.0-6.0-1.0-1.11","63168f4d57bf8e3c1a5cf056","63690f60c96a0a9a64b48fbc","63691970d5695b837e9fbf9b","null","","null","","","","","","","","./tasks/HMM-beads/Images/WhiteBeadChoice.png","","","","","","","","","","","","","","","","","","","","","","","",""
"image-keyboard-response","112","474181","0.0-4.0-6.0-1.0-2.11","63168f4d57bf8e3c1a5cf056","63690f60c96a0a9a64b48fbc","63691970d5695b837e9fbf9b","null","","null","","","","","","","","./tasks/HMM-beads/Images/WhiteBeadChoiceCorrect.png","","","","","","","","","","","","","","","","","","","","","","","",""
"image-keyboard-response","113","475311","0.0-4.0-6.0-1.0-0.12","63168f4d57bf8e3c1a5cf056","63690f60c96a0a9a64b48fbc","63691970d5695b837e9fbf9b","1128","","f","","","","","","","","./tasks/HMM-beads/Images/NewTrialWC.png","highH","12","1","1","2","1","true","","","","","","","","","","","","","","","","",""
"image-keyboard-response","114","475615","0.0-4.0-6.0-1.0-1.12","63168f4d57bf8e3c1a5cf056","63690f60c96a0a9a64b48fbc","63691970d5695b837e9fbf9b","null","","null","","","","","","","","./tasks/HMM-beads/Images/BlackBeadChoice.png","","","","","","","","","","","","","","","","","","","","","","","",""
"image-keyboard-response","115","476120","0.0-4.0-6.0-1.0-2.12","63168f4d57bf8e3c1a5cf056","63690f60c96a0a9a64b48fbc","63691970d5695b837e9fbf9b","null","","null","","","","","","","","./tasks/HMM-beads/Images/BlackBeadChoiceCorrect.png","","","","","","","","","","","","","","","","","","","","","","","",""
"image-keyboard-response","116","476474","0.0-4.0-6.0-1.0-0.13","63168f4d57bf8e3c1a5cf056","63690f60c96a0a9a64b48fbc","63691970d5695b837e9fbf9b","353","","j","","","","","","","","./tasks/HMM-beads/Images/NewTrialBC.png","highH","13","2","1","1","2","false","","","","","","","","","","","","","","","","",""
"image-keyboard-response","117","476784","0.0-4.0-6.0-1.0-1.13","63168f4d57bf8e3c1a5cf056","63690f60c96a0a9a64b48fbc","63691970d5695b837e9fbf9b","null","","null","","","","","","","","./tasks/HMM-beads/Images/WhiteBeadChoice.png","","","","","","","","","","","","","","","","","","","","","","","",""
"image-keyboard-response","118","477301","0.0-4.0-6.0-1.0-2.13","63168f4d57bf8e3c1a5cf056","63690f60c96a0a9a64b48fbc","63691970d5695b837e9fbf9b","null","","null","","","","","","","","./tasks/HMM-beads/Images/WhiteBeadChoiceWrong.png","","","","","","","","","","","","","","","","","","","","","","","",""
"image-keyboard-response","119","477887","0.0-4.0-6.0-1.0-0.14","63168f4d57bf8e3c1a5cf056","63690f60c96a0a9a64b48fbc","63691970d5695b837e9fbf9b","581","","j","","","","","","","","./tasks/HMM-beads/Images/NewTrialBC.png","highH","14","1","2","1","2","true","","","","","","","","","","","","","","","","",""
"image-keyboard-response","120","478197","0.0-4.0-6.0-1.0-1.14","63168f4d57bf8e3c1a5cf056","63690f60c96a0a9a64b48fbc","63691970d5695b837e9fbf9b","null","","null","","","","","","","","./tasks/HMM-beads/Images/WhiteBeadChoice.png","","","","","","","","","","","","","","","","","","","","","","","",""
"image-keyboard-response","121","478705","0.0-4.0-6.0-1.0-2.14","63168f4d57bf8e3c1a5cf056","63690f60c96a0a9a64b48fbc","63691970d5695b837e9fbf9b","null","","null","","","","","","","","./tasks/HMM-beads/Images/WhiteBeadChoiceCorrect.png","","","","","","","","","","","","","","","","","","","","","","","",""
"image-keyboard-response","122","479288","0.0-4.0-6.0-1.0-0.15","63168f4d57bf8e3c1a5cf056","63690f60c96a0a9a64b48fbc","63691970d5695b837e9fbf9b","582","","f","","","","","","","","./tasks/HMM-beads/Images/NewTrialWC.png","highH","15","2","2","2","1","false","","","","","","","","","","","","","","","","",""
"image-keyboard-response","123","479598","0.0-4.0-6.0-1.0-1.15","63168f4d57bf8e3c1a5cf056","63690f60c96a0a9a64b48fbc","63691970d5695b837e9fbf9b","null","","null","","","","","","","","./tasks/HMM-beads/Images/BlackBeadChoice.png","","","","","","","","","","","","","","","","","","","","","","","",""
"image-keyboard-response","124","480117","0.0-4.0-6.0-1.0-2.15","63168f4d57bf8e3c1a5cf056","63690f60c96a0a9a64b48fbc","63691970d5695b837e9fbf9b","null","","null","","","","","","","","./tasks/HMM-beads/Images/BlackBeadChoiceWrong.png","","","","","","","","","","","","","","","","","","","","","","","",""
"image-keyboard-response","125","480851","0.0-4.0-6.0-1.0-0.16","63168f4d57bf8e3c1a5cf056","63690f60c96a0a9a64b48fbc","63691970d5695b837e9fbf9b","732","","f","","","","","","","","./tasks/HMM-beads/Images/NewTrialWC.png","highH","16","1","1","2","1","true","","","","","","","","","","","","","","","","",""
"image-keyboard-response","126","481172","0.0-4.0-6.0-1.0-1.16","63168f4d57bf8e3c1a5cf056","63690f60c96a0a9a64b48fbc","63691970d5695b837e9fbf9b","null","","null","","","","","","","","./tasks/HMM-beads/Images/BlackBeadChoice.png","","","","","","","","","","","","","","","","","","","","","","","",""
"image-keyboard-response","127","481686","0.0-4.0-6.0-1.0-2.16","63168f4d57bf8e3c1a5cf056","63690f60c96a0a9a64b48fbc","63691970d5695b837e9fbf9b","null","","null","","","","","","","","./tasks/HMM-beads/Images/BlackBeadChoiceCorrect.png","","","","","","","","","","","","","","","","","","","","","","","",""
"image-keyboard-response","128","481960","0.0-4.0-6.0-1.0-0.17","63168f4d57bf8e3c1a5cf056","63690f60c96a0a9a64b48fbc","63691970d5695b837e9fbf9b","272","","j","","","","","","","","./tasks/HMM-beads/Images/NewTrialBC.png","highH","17","2","2","1","2","true","","","","","","","","","","","","","","","","",""
"image-keyboard-response","129","482266","0.0-4.0-6.0-1.0-1.17","63168f4d57bf8e3c1a5cf056","63690f60c96a0a9a64b48fbc","63691970d5695b837e9fbf9b","null","","null","","","","","","","","./tasks/HMM-beads/Images/WhiteBeadChoice.png","","","","","","","","","","","","","","","","","","","","","","","",""
"image-keyboard-response","130","482789","0.0-4.0-6.0-1.0-2.17","63168f4d57bf8e3c1a5cf056","63690f60c96a0a9a64b48fbc","63691970d5695b837e9fbf9b","null","","null","","","","","","","","./tasks/HMM-beads/Images/WhiteBeadChoiceCorrect.png","","","","","","","","","","","","","","","","","","","","","","","",""
"image-keyboard-response","131","484100","0.0-4.0-6.0-1.0-0.18","63168f4d57bf8e3c1a5cf056","63690f60c96a0a9a64b48fbc","63691970d5695b837e9fbf9b","1309","","f","","","","","","","","./tasks/HMM-beads/Images/NewTrialWC.png","highH","18","1","2","2","1","false","","","","","","","","","","","","","","","","",""
"image-keyboard-response","132","484416","0.0-4.0-6.0-1.0-1.18","63168f4d57bf8e3c1a5cf056","63690f60c96a0a9a64b48fbc","63691970d5695b837e9fbf9b","null","","null","","","","","","","","./tasks/HMM-beads/Images/BlackBeadChoice.png","","","","","","","","","","","","","","","","","","","","","","","",""
"image-keyboard-response","133","484927","0.0-4.0-6.0-1.0-2.18","63168f4d57bf8e3c1a5cf056","63690f60c96a0a9a64b48fbc","63691970d5695b837e9fbf9b","null","","null","","","","","","","","./tasks/HMM-beads/Images/BlackBeadChoiceWrong.png","","","","","","","","","","","","","","","","","","","","","","","",""
"image-keyboard-response","134","485390","0.0-4.0-6.0-1.0-0.19","63168f4d57bf8e3c1a5cf056","63690f60c96a0a9a64b48fbc","63691970d5695b837e9fbf9b","461","","f","","","","","","","","./tasks/HMM-beads/Images/NewTrialWC.png","highH","19","2","2","2","1","false","","","","","","","","","","","","","","","","",""
"image-keyboard-response","135","485700","0.0-4.0-6.0-1.0-1.19","63168f4d57bf8e3c1a5cf056","63690f60c96a0a9a64b48fbc","63691970d5695b837e9fbf9b","null","","null","","","","","","","","./tasks/HMM-beads/Images/BlackBeadChoice.png","","","","","","","","","","","","","","","","","","","","","","","",""
"image-keyboard-response","136","486221","0.0-4.0-6.0-1.0-2.19","63168f4d57bf8e3c1a5cf056","63690f60c96a0a9a64b48fbc","63691970d5695b837e9fbf9b","null","","null","","","","","","","","./tasks/HMM-beads/Images/BlackBeadChoiceWrong.png","","","","","","","","","","","","","","","","","","","","","","","",""
"image-keyboard-response","137","486657","0.0-4.0-6.0-1.0-0.20","63168f4d57bf8e3c1a5cf056","63690f60c96a0a9a64b48fbc","63691970d5695b837e9fbf9b","435","","f","","","","","","","","./tasks/HMM-beads/Images/NewTrialWC.png","highH","20","1","1","2","1","true","","","","","","","","","","","","","","","","",""
"image-keyboard-response","138","486967","0.0-4.0-6.0-1.0-1.20","63168f4d57bf8e3c1a5cf056","63690f60c96a0a9a64b48fbc","63691970d5695b837e9fbf9b","null","","null","","","","","","","","./tasks/HMM-beads/Images/BlackBeadChoice.png","","","","","","","","","","","","","","","","","","","","","","","",""
"image-keyboard-response","139","487475","0.0-4.0-6.0-1.0-2.20","63168f4d57bf8e3c1a5cf056","63690f60c96a0a9a64b48fbc","63691970d5695b837e9fbf9b","null","","null","","","","","","","","./tasks/HMM-beads/Images/BlackBeadChoiceCorrect.png","","","","","","","","","","","","","","","","","","","","","","","",""
"image-keyboard-response","140","487811","0.0-4.0-6.0-1.0-0.21","63168f4d57bf8e3c1a5cf056","63690f60c96a0a9a64b48fbc","63691970d5695b837e9fbf9b","334","","j","","","","","","","","./tasks/HMM-beads/Images/NewTrialBC.png","highH","21","2","1","1","2","false","","","","","","","","","","","","","","","","",""
"image-keyboard-response","141","488133","0.0-4.0-6.0-1.0-1.21","63168f4d57bf8e3c1a5cf056","63690f60c96a0a9a64b48fbc","63691970d5695b837e9fbf9b","null","","null","","","","","","","","./tasks/HMM-beads/Images/WhiteBeadChoice.png","","","","","","","","","","","","","","","","","","","","","","","",""
"image-keyboard-response","142","488654","0.0-4.0-6.0-1.0-2.21","63168f4d57bf8e3c1a5cf056","63690f60c96a0a9a64b48fbc","63691970d5695b837e9fbf9b","null","","null","","","","","","","","./tasks/HMM-beads/Images/WhiteBeadChoiceWrong.png","","","","","","","","","","","","","","","","","","","","","","","",""
"image-keyboard-response","143","488975","0.0-4.0-6.0-1.0-0.22","63168f4d57bf8e3c1a5cf056","63690f60c96a0a9a64b48fbc","63691970d5695b837e9fbf9b","315","","j","","","","","","","","./tasks/HMM-beads/Images/NewTrialBC.png","highH","22","1","1","1","2","false","","","","","","","","","","","","","","","","",""
"image-keyboard-response","144","489300","0.0-4.0-6.0-1.0-1.22","63168f4d57bf8e3c1a5cf056","63690f60c96a0a9a64b48fbc","63691970d5695b837e9fbf9b","null","","null","","","","","","","","./tasks/HMM-beads/Images/WhiteBeadChoice.png","","","","","","","","","","","","","","","","","","","","","","","",""
"image-keyboard-response","145","489813","0.0-4.0-6.0-1.0-2.22","63168f4d57bf8e3c1a5cf056","63690f60c96a0a9a64b48fbc","63691970d5695b837e9fbf9b","null","","null","","","","","","","","./tasks/HMM-beads/Images/WhiteBeadChoiceWrong.png","","","","","","","","","","","","","","","","","","","","","","","",""
"image-keyboard-response","146","490021","0.0-4.0-6.0-1.0-0.23","63168f4d57bf8e3c1a5cf056","63690f60c96a0a9a64b48fbc","63691970d5695b837e9fbf9b","207","","j","","","","","","","","./tasks/HMM-beads/Images/NewTrialBC.png","highH","23","2","2","1","2","true","","","","","","","","","","","","","","","","",""
"image-keyboard-response","147","490335","0.0-4.0-6.0-1.0-1.23","63168f4d57bf8e3c1a5cf056","63690f60c96a0a9a64b48fbc","63691970d5695b837e9fbf9b","null","","null","","","","","","","","./tasks/HMM-beads/Images/WhiteBeadChoice.png","","","","","","","","","","","","","","","","","","","","","","","",""
"image-keyboard-response","148","490839","0.0-4.0-6.0-1.0-2.23","63168f4d57bf8e3c1a5cf056","63690f60c96a0a9a64b48fbc","63691970d5695b837e9fbf9b","null","","null","","","","","","","","./tasks/HMM-beads/Images/WhiteBeadChoiceCorrect.png","","","","","","","","","","","","","","","","","","","","","","","",""
"image-keyboard-response","149","491711","0.0-4.0-6.0-1.0-0.24","63168f4d57bf8e3c1a5cf056","63690f60c96a0a9a64b48fbc","63691970d5695b837e9fbf9b","871","","f","","","","","","","","./tasks/HMM-beads/Images/NewTrialWC.png","highH","24","1","1","2","1","true","","","","","","","","","","","","","","","","",""
"image-keyboard-response","150","492020","0.0-4.0-6.0-1.0-1.24","63168f4d57bf8e3c1a5cf056","63690f60c96a0a9a64b48fbc","63691970d5695b837e9fbf9b","null","","null","","","","","","","","./tasks/HMM-beads/Images/BlackBeadChoice.png","","","","","","","","","","","","","","","","","","","","","","","",""
"image-keyboard-response","151","492538","0.0-4.0-6.0-1.0-2.24","63168f4d57bf8e3c1a5cf056","63690f60c96a0a9a64b48fbc","63691970d5695b837e9fbf9b","null","","null","","","","","","","","./tasks/HMM-beads/Images/BlackBeadChoiceCorrect.png","","","","","","","","","","","","","","","","","","","","","","","",""
"image-keyboard-response","152","492984","0.0-4.0-6.0-1.0-0.25","63168f4d57bf8e3c1a5cf056","63690f60c96a0a9a64b48fbc","63691970d5695b837e9fbf9b","445","","j","","","","","","","","./tasks/HMM-beads/Images/NewTrialBC.png","highH","25","2","1","1","2","false","","","","","","","","","","","","","","","","",""
"image-keyboard-response","153","493287","0.0-4.0-6.0-1.0-1.25","63168f4d57bf8e3c1a5cf056","63690f60c96a0a9a64b48fbc","63691970d5695b837e9fbf9b","null","","null","","","","","","","","./tasks/HMM-beads/Images/WhiteBeadChoice.png","","","","","","","","","","","","","","","","","","","","","","","",""
"image-keyboard-response","154","493806","0.0-4.0-6.0-1.0-2.25","63168f4d57bf8e3c1a5cf056","63690f60c96a0a9a64b48fbc","63691970d5695b837e9fbf9b","null","","null","","","","","","","","./tasks/HMM-beads/Images/WhiteBeadChoiceWrong.png","","","","","","","","","","","","","","","","","","","","","","","",""
"image-keyboard-response","155","494733","0.0-4.0-6.0-1.0-0.26","63168f4d57bf8e3c1a5cf056","63690f60c96a0a9a64b48fbc","63691970d5695b837e9fbf9b","926","","j","","","","","","","","./tasks/HMM-beads/Images/NewTrialBC.png","highH","26","1","1","1","2","false","","","","","","","","","","","","","","","","",""
"image-keyboard-response","156","495052","0.0-4.0-6.0-1.0-1.26","63168f4d57bf8e3c1a5cf056","63690f60c96a0a9a64b48fbc","63691970d5695b837e9fbf9b","null","","null","","","","","","","","./tasks/HMM-beads/Images/WhiteBeadChoice.png","","","","","","","","","","","","","","","","","","","","","","","",""
"image-keyboard-response","157","495564","0.0-4.0-6.0-1.0-2.26","63168f4d57bf8e3c1a5cf056","63690f60c96a0a9a64b48fbc","63691970d5695b837e9fbf9b","null","","null","","","","","","","","./tasks/HMM-beads/Images/WhiteBeadChoiceWrong.png","","","","","","","","","","","","","","","","","","","","","","","",""
"image-keyboard-response","158","495824","0.0-4.0-6.0-1.0-0.27","63168f4d57bf8e3c1a5cf056","63690f60c96a0a9a64b48fbc","63691970d5695b837e9fbf9b","258","","j","","","","","","","","./tasks/HMM-beads/Images/NewTrialBC.png","highH","27","2","2","1","2","true","","","","","","","","","","","","","","","","",""
"image-keyboard-response","159","496137","0.0-4.0-6.0-1.0-1.27","63168f4d57bf8e3c1a5cf056","63690f60c96a0a9a64b48fbc","63691970d5695b837e9fbf9b","null","","null","","","","","","","","./tasks/HMM-beads/Images/WhiteBeadChoice.png","","","","","","","","","","","","","","","","","","","","","","","",""
"image-keyboard-response","160","496661","0.0-4.0-6.0-1.0-2.27","63168f4d57bf8e3c1a5cf056","63690f60c96a0a9a64b48fbc","63691970d5695b837e9fbf9b","null","","null","","","","","","","","./tasks/HMM-beads/Images/WhiteBeadChoiceCorrect.png","","","","","","","","","","","","","","","","","","","","","","","",""
"image-keyboard-response","161","496946","0.0-4.0-6.0-1.0-0.28","63168f4d57bf8e3c1a5cf056","63690f60c96a0a9a64b48fbc","63691970d5695b837e9fbf9b","284","","f","","","","","","","","./tasks/HMM-beads/Images/NewTrialWC.png","highH","28","2","1","2","1","true","","","","","","","","","","","","","","","","",""
"image-keyboard-response","162","497257","0.0-4.0-6.0-1.0-1.28","63168f4d57bf8e3c1a5cf056","63690f60c96a0a9a64b48fbc","63691970d5695b837e9fbf9b","null","","null","","","","","","","","./tasks/HMM-beads/Images/BlackBeadChoice.png","","","","","","","","","","","","","","","","","","","","","","","",""
"image-keyboard-response","163","497778","0.0-4.0-6.0-1.0-2.28","63168f4d57bf8e3c1a5cf056","63690f60c96a0a9a64b48fbc","63691970d5695b837e9fbf9b","null","","null","","","","","","","","./tasks/HMM-beads/Images/BlackBeadChoiceCorrect.png","","","","","","","","","","","","","","","","","","","","","","","",""
"image-keyboard-response","164","499042","0.0-4.0-6.0-1.0-0.29","63168f4d57bf8e3c1a5cf056","63690f60c96a0a9a64b48fbc","63691970d5695b837e9fbf9b","1262","","j","","","","","","","","./tasks/HMM-beads/Images/NewTrialBC.png","highH","29","1","1","1","2","false","","","","","","","","","","","","","","","","",""
"image-keyboard-response","165","499359","0.0-4.0-6.0-1.0-1.29","63168f4d57bf8e3c1a5cf056","63690f60c96a0a9a64b48fbc","63691970d5695b837e9fbf9b","null","","null","","","","","","","","./tasks/HMM-beads/Images/WhiteBeadChoice.png","","","","","","","","","","","","","","","","","","","","","","","",""
"image-keyboard-response","166","499866","0.0-4.0-6.0-1.0-2.29","63168f4d57bf8e3c1a5cf056","63690f60c96a0a9a64b48fbc","63691970d5695b837e9fbf9b","null","","null","","","","","","","","./tasks/HMM-beads/Images/WhiteBeadChoiceWrong.png","","","","","","","","","","","","","","","","","","","","","","","",""
"image-keyboard-response","167","500103","0.0-4.0-6.0-1.0-0.30","63168f4d57bf8e3c1a5cf056","63690f60c96a0a9a64b48fbc","63691970d5695b837e9fbf9b","236","","j","","","","","","","","./tasks/HMM-beads/Images/NewTrialBC.png","highH","30","2","1","1","2","false","","","","","","","","","","","","","","","","",""
"image-keyboard-response","168","500407","0.0-4.0-6.0-1.0-1.30","63168f4d57bf8e3c1a5cf056","63690f60c96a0a9a64b48fbc","63691970d5695b837e9fbf9b","null","","null","","","","","","","","./tasks/HMM-beads/Images/WhiteBeadChoice.png","","","","","","","","","","","","","","","","","","","","","","","",""
"image-keyboard-response","169","500925","0.0-4.0-6.0-1.0-2.30","63168f4d57bf8e3c1a5cf056","63690f60c96a0a9a64b48fbc","63691970d5695b837e9fbf9b","null","","null","","","","","","","","./tasks/HMM-beads/Images/WhiteBeadChoiceWrong.png","","","","","","","","","","","","","","","","","","","","","","","",""
"image-keyboard-response","170","501186","0.0-4.0-6.0-1.0-0.31","63168f4d57bf8e3c1a5cf056","63690f60c96a0a9a64b48fbc","63691970d5695b837e9fbf9b","259","","j","","","","","","","","./tasks/HMM-beads/Images/NewTrialBC.png","highH","31","1","1","1","2","false","","","","","","","","","","","","","","","","",""
"image-keyboard-response","171","501505","0.0-4.0-6.0-1.0-1.31","63168f4d57bf8e3c1a5cf056","63690f60c96a0a9a64b48fbc","63691970d5695b837e9fbf9b","null","","null","","","","","","","","./tasks/HMM-beads/Images/WhiteBeadChoice.png","","","","","","","","","","","","","","","","","","","","","","","",""
"image-keyboard-response","172","502017","0.0-4.0-6.0-1.0-2.31","63168f4d57bf8e3c1a5cf056","63690f60c96a0a9a64b48fbc","63691970d5695b837e9fbf9b","null","","null","","","","","","","","./tasks/HMM-beads/Images/WhiteBeadChoiceWrong.png","","","","","","","","","","","","","","","","","","","","","","","",""
"image-keyboard-response","173","502294","0.0-4.0-6.0-1.0-0.32","63168f4d57bf8e3c1a5cf056","63690f60c96a0a9a64b48fbc","63691970d5695b837e9fbf9b","276","","j","","","","","","","","./tasks/HMM-beads/Images/NewTrialBC.png","highH","32","2","2","1","2","true","","","","","","","","","","","","","","","","",""
"image-keyboard-response","174","502606","0.0-4.0-6.0-1.0-1.32","63168f4d57bf8e3c1a5cf056","63690f60c96a0a9a64b48fbc","63691970d5695b837e9fbf9b","null","","null","","","","","","","","./tasks/HMM-beads/Images/WhiteBeadChoice.png","","","","","","","","","","","","","","","","","","","","","","","",""
"image-keyboard-response","175","503116","0.0-4.0-6.0-1.0-2.32","63168f4d57bf8e3c1a5cf056","63690f60c96a0a9a64b48fbc","63691970d5695b837e9fbf9b","null","","null","","","","","","","","./tasks/HMM-beads/Images/WhiteBeadChoiceCorrect.png","","","","","","","","","","","","","","","","","","","","","","","",""
"image-keyboard-response","176","503377","0.0-4.0-6.0-1.0-0.33","63168f4d57bf8e3c1a5cf056","63690f60c96a0a9a64b48fbc","63691970d5695b837e9fbf9b","260","","f","","","","","","","","./tasks/HMM-beads/Images/NewTrialWC.png","highH","33","1","1","2","1","true","","","","","","","","","","","","","","","","",""
"image-keyboard-response","177","503690","0.0-4.0-6.0-1.0-1.33","63168f4d57bf8e3c1a5cf056","63690f60c96a0a9a64b48fbc","63691970d5695b837e9fbf9b","null","","null","","","","","","","","./tasks/HMM-beads/Images/BlackBeadChoice.png","","","","","","","","","","","","","","","","","","","","","","","",""
"image-keyboard-response","178","504203","0.0-4.0-6.0-1.0-2.33","63168f4d57bf8e3c1a5cf056","63690f60c96a0a9a64b48fbc","63691970d5695b837e9fbf9b","null","","null","","","","","","","","./tasks/HMM-beads/Images/BlackBeadChoiceCorrect.png","","","","","","","","","","","","","","","","","","","","","","","",""
"image-keyboard-response","179","504464","0.0-4.0-6.0-1.0-0.34","63168f4d57bf8e3c1a5cf056","63690f60c96a0a9a64b48fbc","63691970d5695b837e9fbf9b","260","","j","","","","","","","","./tasks/HMM-beads/Images/NewTrialBC.png","highH","34","2","2","1","2","true","","","","","","","","","","","","","","","","",""
"image-keyboard-response","180","504774","0.0-4.0-6.0-1.0-1.34","63168f4d57bf8e3c1a5cf056","63690f60c96a0a9a64b48fbc","63691970d5695b837e9fbf9b","null","","null","","","","","","","","./tasks/HMM-beads/Images/WhiteBeadChoice.png","","","","","","","","","","","","","","","","","","","","","","","",""
"image-keyboard-response","181","505292","0.0-4.0-6.0-1.0-2.34","63168f4d57bf8e3c1a5cf056","63690f60c96a0a9a64b48fbc","63691970d5695b837e9fbf9b","null","","null","","","","","","","","./tasks/HMM-beads/Images/WhiteBeadChoiceCorrect.png","","","","","","","","","","","","","","","","","","","","","","","",""
"image-keyboard-response","182","505800","0.0-4.0-6.0-1.0-0.35","63168f4d57bf8e3c1a5cf056","63690f60c96a0a9a64b48fbc","63691970d5695b837e9fbf9b","507","","f","","","","","","","","./tasks/HMM-beads/Images/NewTrialWC.png","highH","35","1","1","2","1","true","","","","","","","","","","","","","","","","",""
"image-keyboard-response","183","506112","0.0-4.0-6.0-1.0-1.35","63168f4d57bf8e3c1a5cf056","63690f60c96a0a9a64b48fbc","63691970d5695b837e9fbf9b","null","","null","","","","","","","","./tasks/HMM-beads/Images/BlackBeadChoice.png","","","","","","","","","","","","","","","","","","","","","","","",""
"image-keyboard-response","184","506619","0.0-4.0-6.0-1.0-2.35","63168f4d57bf8e3c1a5cf056","63690f60c96a0a9a64b48fbc","63691970d5695b837e9fbf9b","null","","null","","","","","","","","./tasks/HMM-beads/Images/BlackBeadChoiceCorrect.png","","","","","","","","","","","","","","","","","","","","","","","",""
"image-keyboard-response","185","506828","0.0-4.0-6.0-1.0-0.36","63168f4d57bf8e3c1a5cf056","63690f60c96a0a9a64b48fbc","63691970d5695b837e9fbf9b","207","","j","","","","","","","","./tasks/HMM-beads/Images/NewTrialBC.png","highH","36","2","1","1","2","false","","","","","","","","","","","","","","","","",""
"image-keyboard-response","186","507149","0.0-4.0-6.0-1.0-1.36","63168f4d57bf8e3c1a5cf056","63690f60c96a0a9a64b48fbc","63691970d5695b837e9fbf9b","null","","null","","","","","","","","./tasks/HMM-beads/Images/WhiteBeadChoice.png","","","","","","","","","","","","","","","","","","","","","","","",""
"image-keyboard-response","187","507661","0.0-4.0-6.0-1.0-2.36","63168f4d57bf8e3c1a5cf056","63690f60c96a0a9a64b48fbc","63691970d5695b837e9fbf9b","null","","null","","","","","","","","./tasks/HMM-beads/Images/WhiteBeadChoiceWrong.png","","","","","","","","","","","","","","","","","","","","","","","",""
"image-keyboard-response","188","508180","0.0-4.0-6.0-1.0-0.37","63168f4d57bf8e3c1a5cf056","63690f60c96a0a9a64b48fbc","63691970d5695b837e9fbf9b","518","","j","","","","","","","","./tasks/HMM-beads/Images/NewTrialBC.png","highH","37","1","1","1","2","false","","","","","","","","","","","","","","","","",""
"image-keyboard-response","189","508493","0.0-4.0-6.0-1.0-1.37","63168f4d57bf8e3c1a5cf056","63690f60c96a0a9a64b48fbc","63691970d5695b837e9fbf9b","null","","null","","","","","","","","./tasks/HMM-beads/Images/WhiteBeadChoice.png","","","","","","","","","","","","","","","","","","","","","","","",""
"image-keyboard-response","190","509013","0.0-4.0-6.0-1.0-2.37","63168f4d57bf8e3c1a5cf056","63690f60c96a0a9a64b48fbc","63691970d5695b837e9fbf9b","null","","null","","","","","","","","./tasks/HMM-beads/Images/WhiteBeadChoiceWrong.png","","","","","","","","","","","","","","","","","","","","","","","",""
"image-keyboard-response","191","509263","0.0-4.0-6.0-1.0-0.38","63168f4d57bf8e3c1a5cf056","63690f60c96a0a9a64b48fbc","63691970d5695b837e9fbf9b","248","","j","","","","","","","","./tasks/HMM-beads/Images/NewTrialBC.png","highH","38","2","2","1","2","true","","","","","","","","","","","","","","","","",""
"image-keyboard-response","192","509580","0.0-4.0-6.0-1.0-1.38","63168f4d57bf8e3c1a5cf056","63690f60c96a0a9a64b48fbc","63691970d5695b837e9fbf9b","null","","null","","","","","","","","./tasks/HMM-beads/Images/WhiteBeadChoice.png","","","","","","","","","","","","","","","","","","","","","","","",""
"image-keyboard-response","193","510097","0.0-4.0-6.0-1.0-2.38","63168f4d57bf8e3c1a5cf056","63690f60c96a0a9a64b48fbc","63691970d5695b837e9fbf9b","null","","null","","","","","","","","./tasks/HMM-beads/Images/WhiteBeadChoiceCorrect.png","","","","","","","","","","","","","","","","","","","","","","","",""
"image-keyboard-response","194","510481","0.0-4.0-6.0-1.0-0.39","63168f4d57bf8e3c1a5cf056","63690f60c96a0a9a64b48fbc","63691970d5695b837e9fbf9b","382","","f","","","","","","","","./tasks/HMM-beads/Images/NewTrialWC.png","highH","39","1","1","2","1","true","","","","","","","","","","","","","","","","",""
"image-keyboard-response","195","510793","0.0-4.0-6.0-1.0-1.39","63168f4d57bf8e3c1a5cf056","63690f60c96a0a9a64b48fbc","63691970d5695b837e9fbf9b","null","","null","","","","","","","","./tasks/HMM-beads/Images/BlackBeadChoice.png","","","","","","","","","","","","","","","","","","","","","","","",""
"image-keyboard-response","196","511311","0.0-4.0-6.0-1.0-2.39","63168f4d57bf8e3c1a5cf056","63690f60c96a0a9a64b48fbc","63691970d5695b837e9fbf9b","null","","null","","","","","","","","./tasks/HMM-beads/Images/BlackBeadChoiceCorrect.png","","","","","","","","","","","","","","","","","","","","","","","",""
"image-keyboard-response","197","511944","0.0-4.0-6.0-1.0-0.40","63168f4d57bf8e3c1a5cf056","63690f60c96a0a9a64b48fbc","63691970d5695b837e9fbf9b","632","","j","","","","","","","","./tasks/HMM-beads/Images/NewTrialBC.png","highH","40","2","2","1","2","true","","","","","","","","","","","","","","","","",""
"image-keyboard-response","198","512252","0.0-4.0-6.0-1.0-1.40","63168f4d57bf8e3c1a5cf056","63690f60c96a0a9a64b48fbc","63691970d5695b837e9fbf9b","null","","null","","","","","","","","./tasks/HMM-beads/Images/WhiteBeadChoice.png","","","","","","","","","","","","","","","","","","","","","","","",""
"image-keyboard-response","199","512764","0.0-4.0-6.0-1.0-2.40","63168f4d57bf8e3c1a5cf056","63690f60c96a0a9a64b48fbc","63691970d5695b837e9fbf9b","null","","null","","","","","","","","./tasks/HMM-beads/Images/WhiteBeadChoiceCorrect.png","","","","","","","","","","","","","","","","","","","","","","","",""
"image-keyboard-response","200","517108","0.0-4.0-6.0-1.0-0.41","63168f4d57bf8e3c1a5cf056","63690f60c96a0a9a64b48fbc","63691970d5695b837e9fbf9b","4343","","f","","","","","","","","./tasks/HMM-beads/Images/NewTrialWC.png","highH","41","1","2","2","1","false","","","","","","","","","","","","","","","","",""
"image-keyboard-response","201","517428","0.0-4.0-6.0-1.0-1.41","63168f4d57bf8e3c1a5cf056","63690f60c96a0a9a64b48fbc","63691970d5695b837e9fbf9b","null","","null","","","","","","","","./tasks/HMM-beads/Images/BlackBeadChoice.png","","","","","","","","","","","","","","","","","","","","","","","",""
"image-keyboard-response","202","517936","0.0-4.0-6.0-1.0-2.41","63168f4d57bf8e3c1a5cf056","63690f60c96a0a9a64b48fbc","63691970d5695b837e9fbf9b","null","","null","","","","","","","","./tasks/HMM-beads/Images/BlackBeadChoiceWrong.png","","","","","","","","","","","","","","","","","","","","","","","",""
"image-keyboard-response","203","518709","0.0-4.0-6.0-1.0-0.42","63168f4d57bf8e3c1a5cf056","63690f60c96a0a9a64b48fbc","63691970d5695b837e9fbf9b","768","","f","","","","","","","","./tasks/HMM-beads/Images/NewTrialWC.png","highH","42","2","2","2","1","false","","","","","","","","","","","","","","","","",""
"image-keyboard-response","204","519015","0.0-4.0-6.0-1.0-1.42","63168f4d57bf8e3c1a5cf056","63690f60c96a0a9a64b48fbc","63691970d5695b837e9fbf9b","null","","null","","","","","","","","./tasks/HMM-beads/Images/BlackBeadChoice.png","","","","","","","","","","","","","","","","","","","","","","","",""
"image-keyboard-response","205","519526","0.0-4.0-6.0-1.0-2.42","63168f4d57bf8e3c1a5cf056","63690f60c96a0a9a64b48fbc","63691970d5695b837e9fbf9b","null","","null","","","","","","","","./tasks/HMM-beads/Images/BlackBeadChoiceWrong.png","","","","","","","","","","","","","","","","","","","","","","","",""
"image-keyboard-response","206","519732","0.0-4.0-6.0-1.0-0.43","63168f4d57bf8e3c1a5cf056","63690f60c96a0a9a64b48fbc","63691970d5695b837e9fbf9b","205","","f","","","","","","","","./tasks/HMM-beads/Images/NewTrialWC.png","highH","43","1","1","2","1","true","","","","","","","","","","","","","","","","",""
"image-keyboard-response","207","520051","0.0-4.0-6.0-1.0-1.43","63168f4d57bf8e3c1a5cf056","63690f60c96a0a9a64b48fbc","63691970d5695b837e9fbf9b","null","","null","","","","","","","","./tasks/HMM-beads/Images/BlackBeadChoice.png","","","","","","","","","","","","","","","","","","","","","","","",""
"image-keyboard-response","208","520569","0.0-4.0-6.0-1.0-2.43","63168f4d57bf8e3c1a5cf056","63690f60c96a0a9a64b48fbc","63691970d5695b837e9fbf9b","null","","null","","","","","","","","./tasks/HMM-beads/Images/BlackBeadChoiceCorrect.png","","","","","","","","","","","","","","","","","","","","","","","",""
"image-keyboard-response","209","521072","0.0-4.0-6.0-1.0-0.44","63168f4d57bf8e3c1a5cf056","63690f60c96a0a9a64b48fbc","63691970d5695b837e9fbf9b","502","","j","","","","","","","","./tasks/HMM-beads/Images/NewTrialBC.png","highH","44","2","1","1","2","false","","","","","","","","","","","","","","","","",""
"image-keyboard-response","210","521383","0.0-4.0-6.0-1.0-1.44","63168f4d57bf8e3c1a5cf056","63690f60c96a0a9a64b48fbc","63691970d5695b837e9fbf9b","null","","null","","","","","","","","./tasks/HMM-beads/Images/WhiteBeadChoice.png","","","","","","","","","","","","","","","","","","","","","","","",""
"image-keyboard-response","211","521902","0.0-4.0-6.0-1.0-2.44","63168f4d57bf8e3c1a5cf056","63690f60c96a0a9a64b48fbc","63691970d5695b837e9fbf9b","null","","null","","","","","","","","./tasks/HMM-beads/Images/WhiteBeadChoiceWrong.png","","","","","","","","","","","","","","","","","","","","","","","",""
"image-keyboard-response","212","522206","0.0-4.0-6.0-1.0-0.45","63168f4d57bf8e3c1a5cf056","63690f60c96a0a9a64b48fbc","63691970d5695b837e9fbf9b","302","","j","","","","","","","","./tasks/HMM-beads/Images/NewTrialBC.png","highH","45","1","1","1","2","false","","","","","","","","","","","","","","","","",""
"image-keyboard-response","213","522517","0.0-4.0-6.0-1.0-1.45","63168f4d57bf8e3c1a5cf056","63690f60c96a0a9a64b48fbc","63691970d5695b837e9fbf9b","null","","null","","","","","","","","./tasks/HMM-beads/Images/WhiteBeadChoice.png","","","","","","","","","","","","","","","","","","","","","","","",""
"image-keyboard-response","214","523032","0.0-4.0-6.0-1.0-2.45","63168f4d57bf8e3c1a5cf056","63690f60c96a0a9a64b48fbc","63691970d5695b837e9fbf9b","null","","null","","","","","","","","./tasks/HMM-beads/Images/WhiteBeadChoiceWrong.png","","","","","","","","","","","","","","","","","","","","","","","",""
"image-keyboard-response","215","523451","0.0-4.0-6.0-1.0-0.46","63168f4d57bf8e3c1a5cf056","63690f60c96a0a9a64b48fbc","63691970d5695b837e9fbf9b","417","","j","","","","","","","","./tasks/HMM-beads/Images/NewTrialBC.png","highH","46","2","2","1","2","true","","","","","","","","","","","","","","","","",""
"image-keyboard-response","216","523767","0.0-4.0-6.0-1.0-1.46","63168f4d57bf8e3c1a5cf056","63690f60c96a0a9a64b48fbc","63691970d5695b837e9fbf9b","null","","null","","","","","","","","./tasks/HMM-beads/Images/WhiteBeadChoice.png","","","","","","","","","","","","","","","","","","","","","","","",""
"image-keyboard-response","217","524287","0.0-4.0-6.0-1.0-2.46","63168f4d57bf8e3c1a5cf056","63690f60c96a0a9a64b48fbc","63691970d5695b837e9fbf9b","null","","null","","","","","","","","./tasks/HMM-beads/Images/WhiteBeadChoiceCorrect.png","","","","","","","","","","","","","","","","","","","","","","","",""
"image-keyboard-response","218","524557","0.0-4.0-6.0-1.0-0.47","63168f4d57bf8e3c1a5cf056","63690f60c96a0a9a64b48fbc","63691970d5695b837e9fbf9b","269","","f","","","","","","","","./tasks/HMM-beads/Images/NewTrialWC.png","highH","47","1","1","2","1","true","","","","","","","","","","","","","","","","",""
"image-keyboard-response","219","524871","0.0-4.0-6.0-1.0-1.47","63168f4d57bf8e3c1a5cf056","63690f60c96a0a9a64b48fbc","63691970d5695b837e9fbf9b","null","","null","","","","","","","","./tasks/HMM-beads/Images/BlackBeadChoice.png","","","","","","","","","","","","","","","","","","","","","","","",""
"image-keyboard-response","220","525387","0.0-4.0-6.0-1.0-2.47","63168f4d57bf8e3c1a5cf056","63690f60c96a0a9a64b48fbc","63691970d5695b837e9fbf9b","null","","null","","","","","","","","./tasks/HMM-beads/Images/BlackBeadChoiceCorrect.png","","","","","","","","","","","","","","","","","","","","","","","",""
"image-keyboard-response","221","525656","0.0-4.0-6.0-1.0-0.48","63168f4d57bf8e3c1a5cf056","63690f60c96a0a9a64b48fbc","63691970d5695b837e9fbf9b","267","","j","","","","","","","","./tasks/HMM-beads/Images/NewTrialBC.png","highH","48","2","2","1","2","true","","","","","","","","","","","","","","","","",""
"image-keyboard-response","222","525969","0.0-4.0-6.0-1.0-1.48","63168f4d57bf8e3c1a5cf056","63690f60c96a0a9a64b48fbc","63691970d5695b837e9fbf9b","null","","null","","","","","","","","./tasks/HMM-beads/Images/WhiteBeadChoice.png","","","","","","","","","","","","","","","","","","","","","","","",""
"image-keyboard-response","223","526488","0.0-4.0-6.0-1.0-2.48","63168f4d57bf8e3c1a5cf056","63690f60c96a0a9a64b48fbc","63691970d5695b837e9fbf9b","null","","null","","","","","","","","./tasks/HMM-beads/Images/WhiteBeadChoiceCorrect.png","","","","","","","","","","","","","","","","","","","","","","","",""
"image-keyboard-response","224","528743","0.0-4.0-6.0-1.0-0.49","63168f4d57bf8e3c1a5cf056","63690f60c96a0a9a64b48fbc","63691970d5695b837e9fbf9b","2253","","f","","","","","","","","./tasks/HMM-beads/Images/NewTrialWC.png","highH","49","1","1","2","1","true","","","","","","","","","","","","","","","","",""
"image-keyboard-response","225","529055","0.0-4.0-6.0-1.0-1.49","63168f4d57bf8e3c1a5cf056","63690f60c96a0a9a64b48fbc","63691970d5695b837e9fbf9b","null","","null","","","","","","","","./tasks/HMM-beads/Images/BlackBeadChoice.png","","","","","","","","","","","","","","","","","","","","","","","",""
"image-keyboard-response","226","529569","0.0-4.0-6.0-1.0-2.49","63168f4d57bf8e3c1a5cf056","63690f60c96a0a9a64b48fbc","63691970d5695b837e9fbf9b","null","","null","","","","","","","","./tasks/HMM-beads/Images/BlackBeadChoiceCorrect.png","","","","","","","","","","","","","","","","","","","","","","","",""
"image-keyboard-response","227","532416","0.0-4.0-6.0-1.0-0.50","63168f4d57bf8e3c1a5cf056","63690f60c96a0a9a64b48fbc","63691970d5695b837e9fbf9b","2846","","j","","","","","","","","./tasks/HMM-beads/Images/NewTrialBC.png","highH","50","2","1","1","2","false","","","","","","","","","","","","","","","","",""
"image-keyboard-response","228","532736","0.0-4.0-6.0-1.0-1.50","63168f4d57bf8e3c1a5cf056","63690f60c96a0a9a64b48fbc","63691970d5695b837e9fbf9b","null","","null","","","","","","","","./tasks/HMM-beads/Images/WhiteBeadChoice.png","","","","","","","","","","","","","","","","","","","","","","","",""
"image-keyboard-response","229","533243","0.0-4.0-6.0-1.0-2.50","63168f4d57bf8e3c1a5cf056","63690f60c96a0a9a64b48fbc","63691970d5695b837e9fbf9b","null","","null","","","","","","","","./tasks/HMM-beads/Images/WhiteBeadChoiceWrong.png","","","","","","","","","","","","","","","","","","","","","","","",""
"image-keyboard-response","230","533457","0.0-4.0-6.0-1.0-0.51","63168f4d57bf8e3c1a5cf056","63690f60c96a0a9a64b48fbc","63691970d5695b837e9fbf9b","213","","j","","","","","","","","./tasks/HMM-beads/Images/NewTrialBC.png","highH","51","1","1","1","2","false","","","","","","","","","","","","","","","","",""
"image-keyboard-response","231","533771","0.0-4.0-6.0-1.0-1.51","63168f4d57bf8e3c1a5cf056","63690f60c96a0a9a64b48fbc","63691970d5695b837e9fbf9b","null","","null","","","","","","","","./tasks/HMM-beads/Images/WhiteBeadChoice.png","","","","","","","","","","","","","","","","","","","","","","","",""
"image-keyboard-response","232","534275","0.0-4.0-6.0-1.0-2.51","63168f4d57bf8e3c1a5cf056","63690f60c96a0a9a64b48fbc","63691970d5695b837e9fbf9b","null","","null","","","","","","","","./tasks/HMM-beads/Images/WhiteBeadChoiceWrong.png","","","","","","","","","","","","","","","","","","","","","","","",""
"image-keyboard-response","233","534463","0.0-4.0-6.0-1.0-0.52","63168f4d57bf8e3c1a5cf056","63690f60c96a0a9a64b48fbc","63691970d5695b837e9fbf9b","187","","j","","","","","","","","./tasks/HMM-beads/Images/NewTrialBC.png","highH","52","2","2","1","2","true","","","","","","","","","","","","","","","","",""
"image-keyboard-response","234","534771","0.0-4.0-6.0-1.0-1.52","63168f4d57bf8e3c1a5cf056","63690f60c96a0a9a64b48fbc","63691970d5695b837e9fbf9b","null","","null","","","","","","","","./tasks/HMM-beads/Images/WhiteBeadChoice.png","","","","","","","","","","","","","","","","","","","","","","","",""
"image-keyboard-response","235","535275","0.0-4.0-6.0-1.0-2.52","63168f4d57bf8e3c1a5cf056","63690f60c96a0a9a64b48fbc","63691970d5695b837e9fbf9b","null","","null","","","","","","","","./tasks/HMM-beads/Images/WhiteBeadChoiceCorrect.png","","","","","","","","","","","","","","","","","","","","","","","",""
"image-keyboard-response","236","535527","0.0-4.0-6.0-1.0-0.53","63168f4d57bf8e3c1a5cf056","63690f60c96a0a9a64b48fbc","63691970d5695b837e9fbf9b","251","","f","","","","","","","","./tasks/HMM-beads/Images/NewTrialWC.png","highH","53","1","1","2","1","true","","","","","","","","","","","","","","","","",""
"image-keyboard-response","237","535840","0.0-4.0-6.0-1.0-1.53","63168f4d57bf8e3c1a5cf056","63690f60c96a0a9a64b48fbc","63691970d5695b837e9fbf9b","null","","null","","","","","","","","./tasks/HMM-beads/Images/BlackBeadChoice.png","","","","","","","","","","","","","","","","","","","","","","","",""
"image-keyboard-response","238","536354","0.0-4.0-6.0-1.0-2.53","63168f4d57bf8e3c1a5cf056","63690f60c96a0a9a64b48fbc","63691970d5695b837e9fbf9b","null","","null","","","","","","","","./tasks/HMM-beads/Images/BlackBeadChoiceCorrect.png","","","","","","","","","","","","","","","","","","","","","","","",""
"image-keyboard-response","239","536902","0.0-4.0-6.0-1.0-0.54","63168f4d57bf8e3c1a5cf056","63690f60c96a0a9a64b48fbc","63691970d5695b837e9fbf9b","547","","j","","","","","","","","./tasks/HMM-beads/Images/NewTrialBC.png","highH","54","2","2","1","2","true","","","","","","","","","","","","","","","","",""
"image-keyboard-response","240","537222","0.0-4.0-6.0-1.0-1.54","63168f4d57bf8e3c1a5cf056","63690f60c96a0a9a64b48fbc","63691970d5695b837e9fbf9b","null","","null","","","","","","","","./tasks/HMM-beads/Images/WhiteBeadChoice.png","","","","","","","","","","","","","","","","","","","","","","","",""
"image-keyboard-response","241","537745","0.0-4.0-6.0-1.0-2.54","63168f4d57bf8e3c1a5cf056","63690f60c96a0a9a64b48fbc","63691970d5695b837e9fbf9b","null","","null","","","","","","","","./tasks/HMM-beads/Images/WhiteBeadChoiceCorrect.png","","","","","","","","","","","","","","","","","","","","","","","",""
"image-keyboard-response","242","538233","0.0-4.0-6.0-1.0-0.55","63168f4d57bf8e3c1a5cf056","63690f60c96a0a9a64b48fbc","63691970d5695b837e9fbf9b","487","","f","","","","","","","","./tasks/HMM-beads/Images/NewTrialWC.png","highH","55","1","1","2","1","true","","","","","","","","","","","","","","","","",""
"image-keyboard-response","243","538538","0.0-4.0-6.0-1.0-1.55","63168f4d57bf8e3c1a5cf056","63690f60c96a0a9a64b48fbc","63691970d5695b837e9fbf9b","null","","null","","","","","","","","./tasks/HMM-beads/Images/BlackBeadChoice.png","","","","","","","","","","","","","","","","","","","","","","","",""
"image-keyboard-response","244","539050","0.0-4.0-6.0-1.0-2.55","63168f4d57bf8e3c1a5cf056","63690f60c96a0a9a64b48fbc","63691970d5695b837e9fbf9b","null","","null","","","","","","","","./tasks/HMM-beads/Images/BlackBeadChoiceCorrect.png","","","","","","","","","","","","","","","","","","","","","","","",""
"image-keyboard-response","245","541379","0.0-4.0-6.0-1.0-0.56","63168f4d57bf8e3c1a5cf056","63690f60c96a0a9a64b48fbc","63691970d5695b837e9fbf9b","2328","","j","","","","","","","","./tasks/HMM-beads/Images/NewTrialBC.png","highH","56","2","2","1","2","true","","","","","","","","","","","","","","","","",""
"image-keyboard-response","246","541690","0.0-4.0-6.0-1.0-1.56","63168f4d57bf8e3c1a5cf056","63690f60c96a0a9a64b48fbc","63691970d5695b837e9fbf9b","null","","null","","","","","","","","./tasks/HMM-beads/Images/WhiteBeadChoice.png","","","","","","","","","","","","","","","","","","","","","","","",""
"image-keyboard-response","247","542201","0.0-4.0-6.0-1.0-2.56","63168f4d57bf8e3c1a5cf056","63690f60c96a0a9a64b48fbc","63691970d5695b837e9fbf9b","null","","null","","","","","","","","./tasks/HMM-beads/Images/WhiteBeadChoiceCorrect.png","","","","","","","","","","","","","","","","","","","","","","","",""
"image-keyboard-response","248","544236","0.0-4.0-6.0-1.0-0.57","63168f4d57bf8e3c1a5cf056","63690f60c96a0a9a64b48fbc","63691970d5695b837e9fbf9b","2033","","f","","","","","","","","./tasks/HMM-beads/Images/NewTrialWC.png","highH","57","1","1","2","1","true","","","","","","","","","","","","","","","","",""
"image-keyboard-response","249","544556","0.0-4.0-6.0-1.0-1.57","63168f4d57bf8e3c1a5cf056","63690f60c96a0a9a64b48fbc","63691970d5695b837e9fbf9b","null","","null","","","","","","","","./tasks/HMM-beads/Images/BlackBeadChoice.png","","","","","","","","","","","","","","","","","","","","","","","",""
"image-keyboard-response","250","545073","0.0-4.0-6.0-1.0-2.57","63168f4d57bf8e3c1a5cf056","63690f60c96a0a9a64b48fbc","63691970d5695b837e9fbf9b","null","","null","","","","","","","","./tasks/HMM-beads/Images/BlackBeadChoiceCorrect.png","","","","","","","","","","","","","","","","","","","","","","","",""
"image-keyboard-response","251","545371","0.0-4.0-6.0-1.0-0.58","63168f4d57bf8e3c1a5cf056","63690f60c96a0a9a64b48fbc","63691970d5695b837e9fbf9b","296","","j","","","","","","","","./tasks/HMM-beads/Images/NewTrialBC.png","highH","58","2","2","1","2","true","","","","","","","","","","","","","","","","",""
"image-keyboard-response","252","545674","0.0-4.0-6.0-1.0-1.58","63168f4d57bf8e3c1a5cf056","63690f60c96a0a9a64b48fbc","63691970d5695b837e9fbf9b","null","","null","","","","","","","","./tasks/HMM-beads/Images/WhiteBeadChoice.png","","","","","","","","","","","","","","","","","","","","","","","",""
"image-keyboard-response","253","546184","0.0-4.0-6.0-1.0-2.58","63168f4d57bf8e3c1a5cf056","63690f60c96a0a9a64b48fbc","63691970d5695b837e9fbf9b","null","","null","","","","","","","","./tasks/HMM-beads/Images/WhiteBeadChoiceCorrect.png","","","","","","","","","","","","","","","","","","","","","","","",""
"image-keyboard-response","254","546520","0.0-4.0-6.0-1.0-0.59","63168f4d57bf8e3c1a5cf056","63690f60c96a0a9a64b48fbc","63691970d5695b837e9fbf9b","334","","f","","","","","","","","./tasks/HMM-beads/Images/NewTrialWC.png","highH","59","1","1","2","1","true","","","","","","","","","","","","","","","","",""
"image-keyboard-response","255","546840","0.0-4.0-6.0-1.0-1.59","63168f4d57bf8e3c1a5cf056","63690f60c96a0a9a64b48fbc","63691970d5695b837e9fbf9b","null","","null","","","","","","","","./tasks/HMM-beads/Images/BlackBeadChoice.png","","","","","","","","","","","","","","","","","","","","","","","",""
"image-keyboard-response","256","547356","0.0-4.0-6.0-1.0-2.59","63168f4d57bf8e3c1a5cf056","63690f60c96a0a9a64b48fbc","63691970d5695b837e9fbf9b","null","","null","","","","","","","","./tasks/HMM-beads/Images/BlackBeadChoiceCorrect.png","","","","","","","","","","","","","","","","","","","","","","","",""
"image-keyboard-response","257","548203","0.0-4.0-6.0-1.0-0.60","63168f4d57bf8e3c1a5cf056","63690f60c96a0a9a64b48fbc","63691970d5695b837e9fbf9b","845","","j","","","","","","","","./tasks/HMM-beads/Images/NewTrialBC.png","highH","60","2","2","1","2","true","","","","","","","","","","","","","","","","",""
"image-keyboard-response","258","548509","0.0-4.0-6.0-1.0-1.60","63168f4d57bf8e3c1a5cf056","63690f60c96a0a9a64b48fbc","63691970d5695b837e9fbf9b","null","","null","","","","","","","","./tasks/HMM-beads/Images/WhiteBeadChoice.png","","","","","","","","","","","","","","","","","","","","","","","",""
"image-keyboard-response","259","549031","0.0-4.0-6.0-1.0-2.60","63168f4d57bf8e3c1a5cf056","63690f60c96a0a9a64b48fbc","63691970d5695b837e9fbf9b","null","","null","","","","","","","","./tasks/HMM-beads/Images/WhiteBeadChoiceCorrect.png","","","","","","","","","","","","","","","","","","","","","","","",""
"image-keyboard-response","260","549949","0.0-4.0-6.0-1.0-0.61","63168f4d57bf8e3c1a5cf056","63690f60c96a0a9a64b48fbc","63691970d5695b837e9fbf9b","916","","f","","","","","","","","./tasks/HMM-beads/Images/NewTrialWC.png","highH","61","1","2","2","1","false","","","","","","","","","","","","","","","","",""
"image-keyboard-response","261","550259","0.0-4.0-6.0-1.0-1.61","63168f4d57bf8e3c1a5cf056","63690f60c96a0a9a64b48fbc","63691970d5695b837e9fbf9b","null","","null","","","","","","","","./tasks/HMM-beads/Images/BlackBeadChoice.png","","","","","","","","","","","","","","","","","","","","","","","",""
"image-keyboard-response","262","550771","0.0-4.0-6.0-1.0-2.61","63168f4d57bf8e3c1a5cf056","63690f60c96a0a9a64b48fbc","63691970d5695b837e9fbf9b","null","","null","","","","","","","","./tasks/HMM-beads/Images/BlackBeadChoiceWrong.png","","","","","","","","","","","","","","","","","","","","","","","",""
"image-keyboard-response","263","551049","0.0-4.0-6.0-1.0-0.62","63168f4d57bf8e3c1a5cf056","63690f60c96a0a9a64b48fbc","63691970d5695b837e9fbf9b","277","","f","","","","","","","","./tasks/HMM-beads/Images/NewTrialWC.png","highH","62","2","2","2","1","false","","","","","","","","","","","","","","","","",""
"image-keyboard-response","264","551360","0.0-4.0-6.0-1.0-1.62","63168f4d57bf8e3c1a5cf056","63690f60c96a0a9a64b48fbc","63691970d5695b837e9fbf9b","null","","null","","","","","","","","./tasks/HMM-beads/Images/BlackBeadChoice.png","","","","","","","","","","","","","","","","","","","","","","","",""
"image-keyboard-response","265","551867","0.0-4.0-6.0-1.0-2.62","63168f4d57bf8e3c1a5cf056","63690f60c96a0a9a64b48fbc","63691970d5695b837e9fbf9b","null","","null","","","","","","","","./tasks/HMM-beads/Images/BlackBeadChoiceWrong.png","","","","","","","","","","","","","","","","","","","","","","","",""
"image-keyboard-response","266","552098","0.0-4.0-6.0-1.0-0.63","63168f4d57bf8e3c1a5cf056","63690f60c96a0a9a64b48fbc","63691970d5695b837e9fbf9b","230","","f","","","","","","","","./tasks/HMM-beads/Images/NewTrialWC.png","highH","63","1","1","2","1","true","","","","","","","","","","","","","","","","",""
"image-keyboard-response","267","552410","0.0-4.0-6.0-1.0-1.63","63168f4d57bf8e3c1a5cf056","63690f60c96a0a9a64b48fbc","63691970d5695b837e9fbf9b","null","","null","","","","","","","","./tasks/HMM-beads/Images/BlackBeadChoice.png","","","","","","","","","","","","","","","","","","","","","","","",""
"image-keyboard-response","268","552919","0.0-4.0-6.0-1.0-2.63","63168f4d57bf8e3c1a5cf056","63690f60c96a0a9a64b48fbc","63691970d5695b837e9fbf9b","null","","null","","","","","","","","./tasks/HMM-beads/Images/BlackBeadChoiceCorrect.png","","","","","","","","","","","","","","","","","","","","","","","",""
"image-keyboard-response","269","553331","0.0-4.0-6.0-1.0-0.64","63168f4d57bf8e3c1a5cf056","63690f60c96a0a9a64b48fbc","63691970d5695b837e9fbf9b","410","","j","","","","","","","","./tasks/HMM-beads/Images/NewTrialBC.png","highH","64","2","2","1","2","true","","","","","","","","","","","","","","","","",""
"image-keyboard-response","270","553644","0.0-4.0-6.0-1.0-1.64","63168f4d57bf8e3c1a5cf056","63690f60c96a0a9a64b48fbc","63691970d5695b837e9fbf9b","null","","null","","","","","","","","./tasks/HMM-beads/Images/WhiteBeadChoice.png","","","","","","","","","","","","","","","","","","","","","","","",""
"image-keyboard-response","271","554153","0.0-4.0-6.0-1.0-2.64","63168f4d57bf8e3c1a5cf056","63690f60c96a0a9a64b48fbc","63691970d5695b837e9fbf9b","null","","null","","","","","","","","./tasks/HMM-beads/Images/WhiteBeadChoiceCorrect.png","","","","","","","","","","","","","","","","","","","","","","","",""
"image-keyboard-response","272","554428","0.0-4.0-6.0-1.0-0.65","63168f4d57bf8e3c1a5cf056","63690f60c96a0a9a64b48fbc","63691970d5695b837e9fbf9b","274","","f","","","","","","","","./tasks/HMM-beads/Images/NewTrialWC.png","highH","65","1","1","2","1","true","","","","","","","","","","","","","","","","",""
"image-keyboard-response","273","554745","0.0-4.0-6.0-1.0-1.65","63168f4d57bf8e3c1a5cf056","63690f60c96a0a9a64b48fbc","63691970d5695b837e9fbf9b","null","","null","","","","","","","","./tasks/HMM-beads/Images/BlackBeadChoice.png","","","","","","","","","","","","","","","","","","","","","","","",""
"image-keyboard-response","274","555259","0.0-4.0-6.0-1.0-2.65","63168f4d57bf8e3c1a5cf056","63690f60c96a0a9a64b48fbc","63691970d5695b837e9fbf9b","null","","null","","","","","","","","./tasks/HMM-beads/Images/BlackBeadChoiceCorrect.png","","","","","","","","","","","","","","","","","","","","","","","",""
"image-keyboard-response","275","555872","0.0-4.0-6.0-1.0-0.66","63168f4d57bf8e3c1a5cf056","63690f60c96a0a9a64b48fbc","63691970d5695b837e9fbf9b","612","","j","","","","","","","","./tasks/HMM-beads/Images/NewTrialBC.png","highH","66","2","2","1","2","true","","","","","","","","","","","","","","","","",""
"image-keyboard-response","276","556178","0.0-4.0-6.0-1.0-1.66","63168f4d57bf8e3c1a5cf056","63690f60c96a0a9a64b48fbc","63691970d5695b837e9fbf9b","null","","null","","","","","","","","./tasks/HMM-beads/Images/WhiteBeadChoice.png","","","","","","","","","","","","","","","","","","","","","","","",""
"image-keyboard-response","277","556682","0.0-4.0-6.0-1.0-2.66","63168f4d57bf8e3c1a5cf056","63690f60c96a0a9a64b48fbc","63691970d5695b837e9fbf9b","null","","null","","","","","","","","./tasks/HMM-beads/Images/WhiteBeadChoiceCorrect.png","","","","","","","","","","","","","","","","","","","","","","","",""
"image-keyboard-response","278","556992","0.0-4.0-6.0-1.0-0.67","63168f4d57bf8e3c1a5cf056","63690f60c96a0a9a64b48fbc","63691970d5695b837e9fbf9b","308","","f","","","","","","","","./tasks/HMM-beads/Images/NewTrialWC.png","highH","67","1","1","2","1","true","","","","","","","","","","","","","","","","",""
"image-keyboard-response","279","557296","0.0-4.0-6.0-1.0-1.67","63168f4d57bf8e3c1a5cf056","63690f60c96a0a9a64b48fbc","63691970d5695b837e9fbf9b","null","","null","","","","","","","","./tasks/HMM-beads/Images/BlackBeadChoice.png","","","","","","","","","","","","","","","","","","","","","","","",""
"image-keyboard-response","280","557819","0.0-4.0-6.0-1.0-2.67","63168f4d57bf8e3c1a5cf056","63690f60c96a0a9a64b48fbc","63691970d5695b837e9fbf9b","null","","null","","","","","","","","./tasks/HMM-beads/Images/BlackBeadChoiceCorrect.png","","","","","","","","","","","","","","","","","","","","","","","",""
"image-keyboard-response","281","558549","0.0-4.0-6.0-1.0-0.68","63168f4d57bf8e3c1a5cf056","63690f60c96a0a9a64b48fbc","63691970d5695b837e9fbf9b","729","","j","","","","","","","","./tasks/HMM-beads/Images/NewTrialBC.png","highH","68","2","2","1","2","true","","","","","","","","","","","","","","","","",""
"image-keyboard-response","282","558862","0.0-4.0-6.0-1.0-1.68","63168f4d57bf8e3c1a5cf056","63690f60c96a0a9a64b48fbc","63691970d5695b837e9fbf9b","null","","null","","","","","","","","./tasks/HMM-beads/Images/WhiteBeadChoice.png","","","","","","","","","","","","","","","","","","","","","","","",""
"image-keyboard-response","283","559383","0.0-4.0-6.0-1.0-2.68","63168f4d57bf8e3c1a5cf056","63690f60c96a0a9a64b48fbc","63691970d5695b837e9fbf9b","null","","null","","","","","","","","./tasks/HMM-beads/Images/WhiteBeadChoiceCorrect.png","","","","","","","","","","","","","","","","","","","","","","","",""
"image-keyboard-response","284","561008","0.0-4.0-6.0-1.0-0.69","63168f4d57bf8e3c1a5cf056","63690f60c96a0a9a64b48fbc","63691970d5695b837e9fbf9b","1624","","f","","","","","","","","./tasks/HMM-beads/Images/NewTrialWC.png","highH","69","1","2","2","1","false","","","","","","","","","","","","","","","","",""
"image-keyboard-response","285","561317","0.0-4.0-6.0-1.0-1.69","63168f4d57bf8e3c1a5cf056","63690f60c96a0a9a64b48fbc","63691970d5695b837e9fbf9b","null","","null","","","","","","","","./tasks/HMM-beads/Images/BlackBeadChoice.png","","","","","","","","","","","","","","","","","","","","","","","",""
"image-keyboard-response","286","561838","0.0-4.0-6.0-1.0-2.69","63168f4d57bf8e3c1a5cf056","63690f60c96a0a9a64b48fbc","63691970d5695b837e9fbf9b","null","","null","","","","","","","","./tasks/HMM-beads/Images/BlackBeadChoiceWrong.png","","","","","","","","","","","","","","","","","","","","","","","",""
"image-keyboard-response","287","562048","0.0-4.0-6.0-1.0-0.70","63168f4d57bf8e3c1a5cf056","63690f60c96a0a9a64b48fbc","63691970d5695b837e9fbf9b","209","","f","","","","","","","","./tasks/HMM-beads/Images/NewTrialWC.png","highH","70","2","2","2","1","false","","","","","","","","","","","","","","","","",""
"image-keyboard-response","288","562366","0.0-4.0-6.0-1.0-1.70","63168f4d57bf8e3c1a5cf056","63690f60c96a0a9a64b48fbc","63691970d5695b837e9fbf9b","null","","null","","","","","","","","./tasks/HMM-beads/Images/BlackBeadChoice.png","","","","","","","","","","","","","","","","","","","","","","","",""
"image-keyboard-response","289","562885","0.0-4.0-6.0-1.0-2.70","63168f4d57bf8e3c1a5cf056","63690f60c96a0a9a64b48fbc","63691970d5695b837e9fbf9b","null","","null","","","","","","","","./tasks/HMM-beads/Images/BlackBeadChoiceWrong.png","","","","","","","","","","","","","","","","","","","","","","","",""
"image-keyboard-response","290","563037","0.0-4.0-6.0-1.0-0.71","63168f4d57bf8e3c1a5cf056","63690f60c96a0a9a64b48fbc","63691970d5695b837e9fbf9b","151","","f","","","","","","","","./tasks/HMM-beads/Images/NewTrialWC.png","highH","71","1","2","2","1","false","","","","","","","","","","","","","","","","",""
"image-keyboard-response","291","563350","0.0-4.0-6.0-1.0-1.71","63168f4d57bf8e3c1a5cf056","63690f60c96a0a9a64b48fbc","63691970d5695b837e9fbf9b","null","","null","","","","","","","","./tasks/HMM-beads/Images/BlackBeadChoice.png","","","","","","","","","","","","","","","","","","","","","","","",""
"image-keyboard-response","292","563867","0.0-4.0-6.0-1.0-2.71","63168f4d57bf8e3c1a5cf056","63690f60c96a0a9a64b48fbc","63691970d5695b837e9fbf9b","null","","null","","","","","","","","./tasks/HMM-beads/Images/BlackBeadChoiceWrong.png","","","","","","","","","","","","","","","","","","","","","","","",""
"image-keyboard-response","293","564051","0.0-4.0-6.0-1.0-0.72","63168f4d57bf8e3c1a5cf056","63690f60c96a0a9a64b48fbc","63691970d5695b837e9fbf9b","182","","f","","","","","","","","./tasks/HMM-beads/Images/NewTrialWC.png","highH","72","2","2","2","1","false","","","","","","","","","","","","","","","","",""
"image-keyboard-response","294","564364","0.0-4.0-6.0-1.0-1.72","63168f4d57bf8e3c1a5cf056","63690f60c96a0a9a64b48fbc","63691970d5695b837e9fbf9b","null","","null","","","","","","","","./tasks/HMM-beads/Images/BlackBeadChoice.png","","","","","","","","","","","","","","","","","","","","","","","",""
"image-keyboard-response","295","564877","0.0-4.0-6.0-1.0-2.72","63168f4d57bf8e3c1a5cf056","63690f60c96a0a9a64b48fbc","63691970d5695b837e9fbf9b","null","","null","","","","","","","","./tasks/HMM-beads/Images/BlackBeadChoiceWrong.png","","","","","","","","","","","","","","","","","","","","","","","",""
"image-keyboard-response","296","565112","0.0-4.0-6.0-1.0-0.73","63168f4d57bf8e3c1a5cf056","63690f60c96a0a9a64b48fbc","63691970d5695b837e9fbf9b","234","","f","","","","","","","","./tasks/HMM-beads/Images/NewTrialWC.png","highH","73","1","1","2","1","true","","","","","","","","","","","","","","","","",""
"image-keyboard-response","297","565430","0.0-4.0-6.0-1.0-1.73","63168f4d57bf8e3c1a5cf056","63690f60c96a0a9a64b48fbc","63691970d5695b837e9fbf9b","null","","null","","","","","","","","./tasks/HMM-beads/Images/BlackBeadChoice.png","","","","","","","","","","","","","","","","","","","","","","","",""
"image-keyboard-response","298","565944","0.0-4.0-6.0-1.0-2.73","63168f4d57bf8e3c1a5cf056","63690f60c96a0a9a64b48fbc","63691970d5695b837e9fbf9b","null","","null","","","","","","","","./tasks/HMM-beads/Images/BlackBeadChoiceCorrect.png","","","","","","","","","","","","","","","","","","","","","","","",""
"image-keyboard-response","299","566138","0.0-4.0-6.0-1.0-0.74","63168f4d57bf8e3c1a5cf056","63690f60c96a0a9a64b48fbc","63691970d5695b837e9fbf9b","193","","j","","","","","","","","./tasks/HMM-beads/Images/NewTrialBC.png","highH","74","2","2","1","2","true","","","","","","","","","","","","","","","","",""
"image-keyboard-response","300","566448","0.0-4.0-6.0-1.0-1.74","63168f4d57bf8e3c1a5cf056","63690f60c96a0a9a64b48fbc","63691970d5695b837e9fbf9b","null","","null","","","","","","","","./tasks/HMM-beads/Images/WhiteBeadChoice.png","","","","","","","","","","","","","","","","","","","","","","","",""
"image-keyboard-response","301","566954","0.0-4.0-6.0-1.0-2.74","63168f4d57bf8e3c1a5cf056","63690f60c96a0a9a64b48fbc","63691970d5695b837e9fbf9b","null","","null","","","","","","","","./tasks/HMM-beads/Images/WhiteBeadChoiceCorrect.png","","","","","","","","","","","","","","","","","","","","","","","",""
"image-keyboard-response","302","567361","0.0-4.0-6.0-1.0-0.75","63168f4d57bf8e3c1a5cf056","63690f60c96a0a9a64b48fbc","63691970d5695b837e9fbf9b","406","","f","","","","","","","","./tasks/HMM-beads/Images/NewTrialWC.png","highH","75","1","1","2","1","true","","","","","","","","","","","","","","","","",""
"image-keyboard-response","303","567666","0.0-4.0-6.0-1.0-1.75","63168f4d57bf8e3c1a5cf056","63690f60c96a0a9a64b48fbc","63691970d5695b837e9fbf9b","null","","null","","","","","","","","./tasks/HMM-beads/Images/BlackBeadChoice.png","","","","","","","","","","","","","","","","","","","","","","","",""
"image-keyboard-response","304","568170","0.0-4.0-6.0-1.0-2.75","63168f4d57bf8e3c1a5cf056","63690f60c96a0a9a64b48fbc","63691970d5695b837e9fbf9b","null","","null","","","","","","","","./tasks/HMM-beads/Images/BlackBeadChoiceCorrect.png","","","","","","","","","","","","","","","","","","","","","","","",""
"image-keyboard-response","305","568319","0.0-4.0-6.0-1.0-0.76","63168f4d57bf8e3c1a5cf056","63690f60c96a0a9a64b48fbc","63691970d5695b837e9fbf9b","147","","j","","","","","","","","./tasks/HMM-beads/Images/NewTrialBC.png","highH","76","2","2","1","2","true","","","","","","","","","","","","","","","","",""
"image-keyboard-response","306","568637","0.0-4.0-6.0-1.0-1.76","63168f4d57bf8e3c1a5cf056","63690f60c96a0a9a64b48fbc","63691970d5695b837e9fbf9b","null","","null","","","","","","","","./tasks/HMM-beads/Images/WhiteBeadChoice.png","","","","","","","","","","","","","","","","","","","","","","","",""
"image-keyboard-response","307","569158","0.0-4.0-6.0-1.0-2.76","63168f4d57bf8e3c1a5cf056","63690f60c96a0a9a64b48fbc","63691970d5695b837e9fbf9b","null","","null","","","","","","","","./tasks/HMM-beads/Images/WhiteBeadChoiceCorrect.png","","","","","","","","","","","","","","","","","","","","","","","",""
"image-keyboard-response","308","569483","0.0-4.0-6.0-1.0-0.77","63168f4d57bf8e3c1a5cf056","63690f60c96a0a9a64b48fbc","63691970d5695b837e9fbf9b","323","","f","","","","","","","","./tasks/HMM-beads/Images/NewTrialWC.png","highH","77","1","1","2","1","true","","","","","","","","","","","","","","","","",""
"image-keyboard-response","309","569786","0.0-4.0-6.0-1.0-1.77","63168f4d57bf8e3c1a5cf056","63690f60c96a0a9a64b48fbc","63691970d5695b837e9fbf9b","null","","null","","","","","","","","./tasks/HMM-beads/Images/BlackBeadChoice.png","","","","","","","","","","","","","","","","","","","","","","","",""
"image-keyboard-response","310","570303","0.0-4.0-6.0-1.0-2.77","63168f4d57bf8e3c1a5cf056","63690f60c96a0a9a64b48fbc","63691970d5695b837e9fbf9b","null","","null","","","","","","","","./tasks/HMM-beads/Images/BlackBeadChoiceCorrect.png","","","","","","","","","","","","","","","","","","","","","","","",""
"image-keyboard-response","311","570782","0.0-4.0-6.0-1.0-0.78","63168f4d57bf8e3c1a5cf056","63690f60c96a0a9a64b48fbc","63691970d5695b837e9fbf9b","478","","j","","","","","","","","./tasks/HMM-beads/Images/NewTrialBC.png","highH","78","2","2","1","2","true","","","","","","","","","","","","","","","","",""
"image-keyboard-response","312","571100","0.0-4.0-6.0-1.0-1.78","63168f4d57bf8e3c1a5cf056","63690f60c96a0a9a64b48fbc","63691970d5695b837e9fbf9b","null","","null","","","","","","","","./tasks/HMM-beads/Images/WhiteBeadChoice.png","","","","","","","","","","","","","","","","","","","","","","","",""
"image-keyboard-response","313","571620","0.0-4.0-6.0-1.0-2.78","63168f4d57bf8e3c1a5cf056","63690f60c96a0a9a64b48fbc","63691970d5695b837e9fbf9b","null","","null","","","","","","","","./tasks/HMM-beads/Images/WhiteBeadChoiceCorrect.png","","","","","","","","","","","","","","","","","","","","","","","",""
"image-keyboard-response","314","571883","0.0-4.0-6.0-1.0-0.79","63168f4d57bf8e3c1a5cf056","63690f60c96a0a9a64b48fbc","63691970d5695b837e9fbf9b","261","","f","","","","","","","","./tasks/HMM-beads/Images/NewTrialWC.png","highH","79","1","1","2","1","true","","","","","","","","","","","","","","","","",""
"image-keyboard-response","315","572186","0.0-4.0-6.0-1.0-1.79","63168f4d57bf8e3c1a5cf056","63690f60c96a0a9a64b48fbc","63691970d5695b837e9fbf9b","null","","null","","","","","","","","./tasks/HMM-beads/Images/BlackBeadChoice.png","","","","","","","","","","","","","","","","","","","","","","","",""
"image-keyboard-response","316","572706","0.0-4.0-6.0-1.0-2.79","63168f4d57bf8e3c1a5cf056","63690f60c96a0a9a64b48fbc","63691970d5695b837e9fbf9b","null","","null","","","","","","","","./tasks/HMM-beads/Images/BlackBeadChoiceCorrect.png","","","","","","","","","","","","","","","","","","","","","","","",""
"image-keyboard-response","317","573462","0.0-4.0-6.0-1.0-0.80","63168f4d57bf8e3c1a5cf056","63690f60c96a0a9a64b48fbc","63691970d5695b837e9fbf9b","755","","j","","","","","","","","./tasks/HMM-beads/Images/NewTrialBC.png","highH","80","2","1","1","2","false","","","","","","","","","","","","","","","","",""
"image-keyboard-response","318","573784","0.0-4.0-6.0-1.0-1.80","63168f4d57bf8e3c1a5cf056","63690f60c96a0a9a64b48fbc","63691970d5695b837e9fbf9b","null","","null","","","","","","","","./tasks/HMM-beads/Images/WhiteBeadChoice.png","","","","","","","","","","","","","","","","","","","","","","","",""
"image-keyboard-response","319","574293","0.0-4.0-6.0-1.0-2.80","63168f4d57bf8e3c1a5cf056","63690f60c96a0a9a64b48fbc","63691970d5695b837e9fbf9b","null","","null","","","","","","","","./tasks/HMM-beads/Images/WhiteBeadChoiceWrong.png","","","","","","","","","","","","","","","","","","","","","","","",""
"image-keyboard-response","320","574475","0.0-4.0-6.0-1.0-0.81","63168f4d57bf8e3c1a5cf056","63690f60c96a0a9a64b48fbc","63691970d5695b837e9fbf9b","180","","j","","","","","","","","./tasks/HMM-beads/Images/NewTrialBC.png","highH","81","1","1","1","2","false","","","","","","","","","","","","","","","","",""
"image-keyboard-response","321","574785","0.0-4.0-6.0-1.0-1.81","63168f4d57bf8e3c1a5cf056","63690f60c96a0a9a64b48fbc","63691970d5695b837e9fbf9b","null","","null","","","","","","","","./tasks/HMM-beads/Images/WhiteBeadChoice.png","","","","","","","","","","","","","","","","","","","","","","","",""
