"trial_type","trial_index","time_elapsed","internal_node_id","subject_id","study_id","session_id","rt","url","response","question_order","view_history","success","timeout","failed_images","failed_audio","failed_video","stimulus","block","trial_number","state","choice","rewarded","state1_action","state2_visited","state1_key","state2_key","state1_rt","state2_rt","two_arm_score","jar","bead","previous_bead","correct","lowH_score","highH_score","total_bonus"
"pavlovia","0","4979","0.0-0.0","6102c843811b2ec9d92767ad","635ab8fc87ce89828e04cd4d","635ac4c6ac6515f784d6b491","","","","","","","","","","","","","","","","","","","","","","","","","","","","","",""
"external-html","1","19214","0.0-1.0-0.0","6102c843811b2ec9d92767ad","635ab8fc87ce89828e04cd4d","635ac4c6ac6515f784d6b491","13547","new_consent.html","","","","","","","","","","","","","","","","","","","","","","","","","","","",""
"survey-multi-choice","2","29713","0.0-1.0-1.0","6102c843811b2ec9d92767ad","635ab8fc87ce89828e04cd4d","635ac4c6ac6515f784d6b491","10495","","{""Q0"":""Male"",""Q1"":""White""}","[0,1]","","","","","","","","","","","","","","","","","","","","","","","","","",""
"survey-text","3","35166","0.0-1.0-2.0","6102c843811b2ec9d92767ad","635ab8fc87ce89828e04cd4d","635ac4c6ac6515f784d6b491","5443","","{""Q0"":""35""}","","","","","","","","","","","","","","","","","","","","","","","","","","",""
"instructions","4","1249165","0.0-2.0","6102c843811b2ec9d92767ad","635ab8fc87ce89828e04cd4d","635ac4c6ac6515f784d6b491","1213885","","","","[{""page_index"":0,""viewing_time"":1204469},{""page_index"":1,""viewing_time"":9416}]","","","","","","","","","","","","","","","","","","","","","","","","",""
"instructions","5","1251598","0.0-3.0","6102c843811b2ec9d92767ad","635ab8fc87ce89828e04cd4d","635ac4c6ac6515f784d6b491","2431","","","","[{""page_index"":0,""viewing_time"":2430}]","","","","","","","","","","","","","","","","","","","","","","","","",""
"preload","6","1259269","0.0-4.0-0.0","6102c843811b2ec9d92767ad","635ab8fc87ce89828e04cd4d","635ac4c6ac6515f784d6b491","","","","","","true","false","[]","[]","[]","","","","","","","","","","","","","","","","","","","",""
"instructions","7","1363884","0.0-4.0-1.0","6102c843811b2ec9d92767ad","635ab8fc87ce89828e04cd4d","635ac4c6ac6515f784d6b491","104612","","","","[{""page_index"":0,""viewing_time"":20644},{""page_index"":1,""viewing_time"":19184},{""page_index"":2,""viewing_time"":16008},{""page_index"":3,""viewing_time"":28480},{""page_index"":4,""viewing_time"":20296}]","","","","","","","","","","","","","","","","","","","","","","","","",""
"html-keyboard-response","8","1370246","0.0-4.0-2.0-0.0","6102c843811b2ec9d92767ad","635ab8fc87ce89828e04cd4d","635ac4c6ac6515f784d6b491","6360","","f","","","","","","","","<div style=""background-image: url('./tasks/two-arm-new/img/green_planet.png')""><div id=""jspsych-space-daw-top-stim-left"" ></div><div id=""jspsych-space-daw-top-stim-middle"" ></div><div id=""jspsych-space-daw-top-stim-right"" ></div><div style=""clear:both""></div><div id=""jspsych-space-daw-bottom-stim-left"" style=""background-image: url('./tasks/two-arm-new/img/green_stim_1.png')""></div><div id=""jspsych-space-daw-bottom-stim-middle"" ></div><div id=""jspsych-space-daw-bottom-stim-right"" style=""background-image: url('./tasks/two-arm-new/img/green_stim_2_deact.png')""></div></div>","good_alien_practice","0","green","1","1","","","","","","","","","","","","","",""
"html-keyboard-response","9","1370752","0.0-4.0-2.0-1.0","6102c843811b2ec9d92767ad","635ab8fc87ce89828e04cd4d","635ac4c6ac6515f784d6b491","null","","null","","","","","","","","<div style=""background-image: url('./tasks/two-arm-new/img/green_planet.png')""><div id=""jspsych-space-daw-top-stim-left"" ></div><div id=""jspsych-space-daw-top-stim-middle"" ></div><div id=""jspsych-space-daw-top-stim-right"" ></div><div style=""clear:both""></div><div id=""jspsych-space-daw-bottom-stim-left"" class=""jspsych-space-daw-bottom-stim-border"" style=""background-image: url('./tasks/two-arm-new/img/green_stim_1.png')""></div><div id=""jspsych-space-daw-bottom-stim-middle"" ></div><div id=""jspsych-space-daw-bottom-stim-right"" style=""background-image: url('./tasks/two-arm-new/img/green_stim_2_deact.png')""></div></div>","","","","","","","","","","","","","","","","","","",""
"html-keyboard-response","10","1371764","0.0-4.0-2.0-2.0","6102c843811b2ec9d92767ad","635ab8fc87ce89828e04cd4d","635ac4c6ac6515f784d6b491","null","","null","","","","","","","","<div style=""background-image: url('./tasks/two-arm-new/img/green_planet.png')""><div id=""jspsych-space-daw-top-stim-left"" style=""background-image: url('./tasks/two-arm-new/img/treasure.png')""></div><div id=""jspsych-space-daw-top-stim-middle"" ></div><div id=""jspsych-space-daw-top-stim-right"" ></div><div style=""clear:both""></div><div id=""jspsych-space-daw-bottom-stim-left"" class=""jspsych-space-daw-bottom-stim-border"" style=""background-image: url('./tasks/two-arm-new/img/green_stim_1.png')""></div><div id=""jspsych-space-daw-bottom-stim-middle"" ></div><div id=""jspsych-space-daw-bottom-stim-right"" style=""background-image: url('./tasks/two-arm-new/img/green_stim_2_deact.png')""></div></div>","","","","","","","","","","","","","","","","","","",""
"html-keyboard-response","11","1381709","0.0-4.0-2.0-0.1","6102c843811b2ec9d92767ad","635ab8fc87ce89828e04cd4d","635ac4c6ac6515f784d6b491","9941","","j","","","","","","","","<div style=""background-image: url('./tasks/two-arm-new/img/green_planet.png')""><div id=""jspsych-space-daw-top-stim-left"" ></div><div id=""jspsych-space-daw-top-stim-middle"" ></div><div id=""jspsych-space-daw-top-stim-right"" ></div><div style=""clear:both""></div><div id=""jspsych-space-daw-bottom-stim-left"" style=""background-image: url('./tasks/two-arm-new/img/green_stim_2_deact.png')""></div><div id=""jspsych-space-daw-bottom-stim-middle"" ></div><div id=""jspsych-space-daw-bottom-stim-right"" style=""background-image: url('./tasks/two-arm-new/img/green_stim_1.png')""></div></div>","good_alien_practice","1","green","1","1","","","","","","","","","","","","","",""
"html-keyboard-response","12","1382219","0.0-4.0-2.0-1.1","6102c843811b2ec9d92767ad","635ab8fc87ce89828e04cd4d","635ac4c6ac6515f784d6b491","null","","null","","","","","","","","<div style=""background-image: url('./tasks/two-arm-new/img/green_planet.png')""><div id=""jspsych-space-daw-top-stim-left"" ></div><div id=""jspsych-space-daw-top-stim-middle"" ></div><div id=""jspsych-space-daw-top-stim-right"" ></div><div style=""clear:both""></div><div id=""jspsych-space-daw-bottom-stim-left"" style=""background-image: url('./tasks/two-arm-new/img/green_stim_2_deact.png')""></div><div id=""jspsych-space-daw-bottom-stim-middle"" ></div><div id=""jspsych-space-daw-bottom-stim-right"" class=""jspsych-space-daw-bottom-stim-border"" style=""background-image: url('./tasks/two-arm-new/img/green_stim_1.png')""></div></div>","","","","","","","","","","","","","","","","","","",""
"html-keyboard-response","13","1383235","0.0-4.0-2.0-2.1","6102c843811b2ec9d92767ad","635ab8fc87ce89828e04cd4d","635ac4c6ac6515f784d6b491","null","","null","","","","","","","","<div style=""background-image: url('./tasks/two-arm-new/img/green_planet.png')""><div id=""jspsych-space-daw-top-stim-left"" ></div><div id=""jspsych-space-daw-top-stim-middle"" ></div><div id=""jspsych-space-daw-top-stim-right"" style=""background-image: url('./tasks/two-arm-new/img/treasure.png')""></div><div style=""clear:both""></div><div id=""jspsych-space-daw-bottom-stim-left"" style=""background-image: url('./tasks/two-arm-new/img/green_stim_2_deact.png')""></div><div id=""jspsych-space-daw-bottom-stim-middle"" ></div><div id=""jspsych-space-daw-bottom-stim-right"" class=""jspsych-space-daw-bottom-stim-border"" style=""background-image: url('./tasks/two-arm-new/img/green_stim_1.png')""></div></div>","","","","","","","","","","","","","","","","","","",""
"html-keyboard-response","14","1390673","0.0-4.0-2.0-0.2","6102c843811b2ec9d92767ad","635ab8fc87ce89828e04cd4d","635ac4c6ac6515f784d6b491","7436","","j","","","","","","","","<div style=""background-image: url('./tasks/two-arm-new/img/green_planet.png')""><div id=""jspsych-space-daw-top-stim-left"" ></div><div id=""jspsych-space-daw-top-stim-middle"" ></div><div id=""jspsych-space-daw-top-stim-right"" ></div><div style=""clear:both""></div><div id=""jspsych-space-daw-bottom-stim-left"" style=""background-image: url('./tasks/two-arm-new/img/green_stim_2_deact.png')""></div><div id=""jspsych-space-daw-bottom-stim-middle"" ></div><div id=""jspsych-space-daw-bottom-stim-right"" style=""background-image: url('./tasks/two-arm-new/img/green_stim_1.png')""></div></div>","good_alien_practice","2","green","1","1","","","","","","","","","","","","","",""
"html-keyboard-response","15","1391184","0.0-4.0-2.0-1.2","6102c843811b2ec9d92767ad","635ab8fc87ce89828e04cd4d","635ac4c6ac6515f784d6b491","null","","null","","","","","","","","<div style=""background-image: url('./tasks/two-arm-new/img/green_planet.png')""><div id=""jspsych-space-daw-top-stim-left"" ></div><div id=""jspsych-space-daw-top-stim-middle"" ></div><div id=""jspsych-space-daw-top-stim-right"" ></div><div style=""clear:both""></div><div id=""jspsych-space-daw-bottom-stim-left"" style=""background-image: url('./tasks/two-arm-new/img/green_stim_2_deact.png')""></div><div id=""jspsych-space-daw-bottom-stim-middle"" ></div><div id=""jspsych-space-daw-bottom-stim-right"" class=""jspsych-space-daw-bottom-stim-border"" style=""background-image: url('./tasks/two-arm-new/img/green_stim_1.png')""></div></div>","","","","","","","","","","","","","","","","","","",""
"html-keyboard-response","16","1392192","0.0-4.0-2.0-2.2","6102c843811b2ec9d92767ad","635ab8fc87ce89828e04cd4d","635ac4c6ac6515f784d6b491","null","","null","","","","","","","","<div style=""background-image: url('./tasks/two-arm-new/img/green_planet.png')""><div id=""jspsych-space-daw-top-stim-left"" ></div><div id=""jspsych-space-daw-top-stim-middle"" ></div><div id=""jspsych-space-daw-top-stim-right"" style=""background-image: url('./tasks/two-arm-new/img/treasure.png')""></div><div style=""clear:both""></div><div id=""jspsych-space-daw-bottom-stim-left"" style=""background-image: url('./tasks/two-arm-new/img/green_stim_2_deact.png')""></div><div id=""jspsych-space-daw-bottom-stim-middle"" ></div><div id=""jspsych-space-daw-bottom-stim-right"" class=""jspsych-space-daw-bottom-stim-border"" style=""background-image: url('./tasks/two-arm-new/img/green_stim_1.png')""></div></div>","","","","","","","","","","","","","","","","","","",""
"html-keyboard-response","17","1394365","0.0-4.0-2.0-0.3","6102c843811b2ec9d92767ad","635ab8fc87ce89828e04cd4d","635ac4c6ac6515f784d6b491","2173","","j","","","","","","","","<div style=""background-image: url('./tasks/two-arm-new/img/green_planet.png')""><div id=""jspsych-space-daw-top-stim-left"" ></div><div id=""jspsych-space-daw-top-stim-middle"" ></div><div id=""jspsych-space-daw-top-stim-right"" ></div><div style=""clear:both""></div><div id=""jspsych-space-daw-bottom-stim-left"" style=""background-image: url('./tasks/two-arm-new/img/green_stim_2_deact.png')""></div><div id=""jspsych-space-daw-bottom-stim-middle"" ></div><div id=""jspsych-space-daw-bottom-stim-right"" style=""background-image: url('./tasks/two-arm-new/img/green_stim_1.png')""></div></div>","good_alien_practice","3","green","1","0","","","","","","","","","","","","","",""
"html-keyboard-response","18","1394880","0.0-4.0-2.0-1.3","6102c843811b2ec9d92767ad","635ab8fc87ce89828e04cd4d","635ac4c6ac6515f784d6b491","null","","null","","","","","","","","<div style=""background-image: url('./tasks/two-arm-new/img/green_planet.png')""><div id=""jspsych-space-daw-top-stim-left"" ></div><div id=""jspsych-space-daw-top-stim-middle"" ></div><div id=""jspsych-space-daw-top-stim-right"" ></div><div style=""clear:both""></div><div id=""jspsych-space-daw-bottom-stim-left"" style=""background-image: url('./tasks/two-arm-new/img/green_stim_2_deact.png')""></div><div id=""jspsych-space-daw-bottom-stim-middle"" ></div><div id=""jspsych-space-daw-bottom-stim-right"" class=""jspsych-space-daw-bottom-stim-border"" style=""background-image: url('./tasks/two-arm-new/img/green_stim_1.png')""></div></div>","","","","","","","","","","","","","","","","","","",""
"html-keyboard-response","19","1395884","0.0-4.0-2.0-2.3","6102c843811b2ec9d92767ad","635ab8fc87ce89828e04cd4d","635ac4c6ac6515f784d6b491","null","","null","","","","","","","","<div style=""background-image: url('./tasks/two-arm-new/img/green_planet.png')""><div id=""jspsych-space-daw-top-stim-left"" ></div><div id=""jspsych-space-daw-top-stim-middle"" ></div><div id=""jspsych-space-daw-top-stim-right"" style=""background-image: url('./tasks/two-arm-new/img/noreward.png')""></div><div style=""clear:both""></div><div id=""jspsych-space-daw-bottom-stim-left"" style=""background-image: url('./tasks/two-arm-new/img/green_stim_2_deact.png')""></div><div id=""jspsych-space-daw-bottom-stim-middle"" ></div><div id=""jspsych-space-daw-bottom-stim-right"" class=""jspsych-space-daw-bottom-stim-border"" style=""background-image: url('./tasks/two-arm-new/img/green_stim_1_sad.png')""></div></div>","","","","","","","","","","","","","","","","","","",""
"html-keyboard-response","20","1405424","0.0-4.0-2.0-0.4","6102c843811b2ec9d92767ad","635ab8fc87ce89828e04cd4d","635ac4c6ac6515f784d6b491","9537","","j","","","","","","","","<div style=""background-image: url('./tasks/two-arm-new/img/green_planet.png')""><div id=""jspsych-space-daw-top-stim-left"" ></div><div id=""jspsych-space-daw-top-stim-middle"" ></div><div id=""jspsych-space-daw-top-stim-right"" ></div><div style=""clear:both""></div><div id=""jspsych-space-daw-bottom-stim-left"" style=""background-image: url('./tasks/two-arm-new/img/green_stim_2_deact.png')""></div><div id=""jspsych-space-daw-bottom-stim-middle"" ></div><div id=""jspsych-space-daw-bottom-stim-right"" style=""background-image: url('./tasks/two-arm-new/img/green_stim_1.png')""></div></div>","good_alien_practice","4","green","1","1","","","","","","","","","","","","","",""
"html-keyboard-response","21","1405935","0.0-4.0-2.0-1.4","6102c843811b2ec9d92767ad","635ab8fc87ce89828e04cd4d","635ac4c6ac6515f784d6b491","null","","null","","","","","","","","<div style=""background-image: url('./tasks/two-arm-new/img/green_planet.png')""><div id=""jspsych-space-daw-top-stim-left"" ></div><div id=""jspsych-space-daw-top-stim-middle"" ></div><div id=""jspsych-space-daw-top-stim-right"" ></div><div style=""clear:both""></div><div id=""jspsych-space-daw-bottom-stim-left"" style=""background-image: url('./tasks/two-arm-new/img/green_stim_2_deact.png')""></div><div id=""jspsych-space-daw-bottom-stim-middle"" ></div><div id=""jspsych-space-daw-bottom-stim-right"" class=""jspsych-space-daw-bottom-stim-border"" style=""background-image: url('./tasks/two-arm-new/img/green_stim_1.png')""></div></div>","","","","","","","","","","","","","","","","","","",""
"html-keyboard-response","22","1406939","0.0-4.0-2.0-2.4","6102c843811b2ec9d92767ad","635ab8fc87ce89828e04cd4d","635ac4c6ac6515f784d6b491","null","","null","","","","","","","","<div style=""background-image: url('./tasks/two-arm-new/img/green_planet.png')""><div id=""jspsych-space-daw-top-stim-left"" ></div><div id=""jspsych-space-daw-top-stim-middle"" ></div><div id=""jspsych-space-daw-top-stim-right"" style=""background-image: url('./tasks/two-arm-new/img/treasure.png')""></div><div style=""clear:both""></div><div id=""jspsych-space-daw-bottom-stim-left"" style=""background-image: url('./tasks/two-arm-new/img/green_stim_2_deact.png')""></div><div id=""jspsych-space-daw-bottom-stim-middle"" ></div><div id=""jspsych-space-daw-bottom-stim-right"" class=""jspsych-space-daw-bottom-stim-border"" style=""background-image: url('./tasks/two-arm-new/img/green_stim_1.png')""></div></div>","","","","","","","","","","","","","","","","","","",""
"instructions","23","1418460","0.0-4.0-3.0","6102c843811b2ec9d92767ad","635ab8fc87ce89828e04cd4d","635ac4c6ac6515f784d6b491","11520","","","","[{""page_index"":0,""viewing_time"":11520}]","","","","","","","","","","","","","","","","","","","","","","","","",""
"html-keyboard-response","24","1422228","0.0-4.0-4.0-0.0","6102c843811b2ec9d92767ad","635ab8fc87ce89828e04cd4d","635ac4c6ac6515f784d6b491","3765","","f","","","","","","","","<div style=""background-image: url('./tasks/two-arm-new/img/yellow_planet.png')""><div id=""jspsych-space-daw-top-stim-left"" ></div><div id=""jspsych-space-daw-top-stim-middle"" ></div><div id=""jspsych-space-daw-top-stim-right"" ></div><div style=""clear:both""></div><div id=""jspsych-space-daw-bottom-stim-left"" style=""background-image: url('./tasks/two-arm-new/img/yellow_stim_1.png')""></div><div id=""jspsych-space-daw-bottom-stim-middle"" ></div><div id=""jspsych-space-daw-bottom-stim-right"" style=""background-image: url('./tasks/two-arm-new/img/yellow_stim_2_deact.png')""></div></div>","bad_alien_practice","0","yellow","1","0","","","","","","","","","","","","","",""
"html-keyboard-response","25","1422743","0.0-4.0-4.0-1.0","6102c843811b2ec9d92767ad","635ab8fc87ce89828e04cd4d","635ac4c6ac6515f784d6b491","null","","null","","","","","","","","<div style=""background-image: url('./tasks/two-arm-new/img/yellow_planet.png')""><div id=""jspsych-space-daw-top-stim-left"" ></div><div id=""jspsych-space-daw-top-stim-middle"" ></div><div id=""jspsych-space-daw-top-stim-right"" ></div><div style=""clear:both""></div><div id=""jspsych-space-daw-bottom-stim-left"" class=""jspsych-space-daw-bottom-stim-border"" style=""background-image: url('./tasks/two-arm-new/img/yellow_stim_1.png')""></div><div id=""jspsych-space-daw-bottom-stim-middle"" ></div><div id=""jspsych-space-daw-bottom-stim-right"" style=""background-image: url('./tasks/two-arm-new/img/yellow_stim_2_deact.png')""></div></div>","","","","","","","","","","","","","","","","","","",""
"html-keyboard-response","26","1423755","0.0-4.0-4.0-2.0","6102c843811b2ec9d92767ad","635ab8fc87ce89828e04cd4d","635ac4c6ac6515f784d6b491","null","","null","","","","","","","","<div style=""background-image: url('./tasks/two-arm-new/img/yellow_planet.png')""><div id=""jspsych-space-daw-top-stim-left"" style=""background-image: url('./tasks/two-arm-new/img/noreward.png')""></div><div id=""jspsych-space-daw-top-stim-middle"" ></div><div id=""jspsych-space-daw-top-stim-right"" ></div><div style=""clear:both""></div><div id=""jspsych-space-daw-bottom-stim-left"" class=""jspsych-space-daw-bottom-stim-border"" style=""background-image: url('./tasks/two-arm-new/img/yellow_stim_1_sad.png')""></div><div id=""jspsych-space-daw-bottom-stim-middle"" ></div><div id=""jspsych-space-daw-bottom-stim-right"" style=""background-image: url('./tasks/two-arm-new/img/yellow_stim_2_deact.png')""></div></div>","","","","","","","","","","","","","","","","","","",""
"html-keyboard-response","27","1424992","0.0-4.0-4.0-0.1","6102c843811b2ec9d92767ad","635ab8fc87ce89828e04cd4d","635ac4c6ac6515f784d6b491","1234","","j","","","","","","","","<div style=""background-image: url('./tasks/two-arm-new/img/yellow_planet.png')""><div id=""jspsych-space-daw-top-stim-left"" ></div><div id=""jspsych-space-daw-top-stim-middle"" ></div><div id=""jspsych-space-daw-top-stim-right"" ></div><div style=""clear:both""></div><div id=""jspsych-space-daw-bottom-stim-left"" style=""background-image: url('./tasks/two-arm-new/img/yellow_stim_2_deact.png')""></div><div id=""jspsych-space-daw-bottom-stim-middle"" ></div><div id=""jspsych-space-daw-bottom-stim-right"" style=""background-image: url('./tasks/two-arm-new/img/yellow_stim_1.png')""></div></div>","bad_alien_practice","1","yellow","1","1","","","","","","","","","","","","","",""
"html-keyboard-response","28","1425495","0.0-4.0-4.0-1.1","6102c843811b2ec9d92767ad","635ab8fc87ce89828e04cd4d","635ac4c6ac6515f784d6b491","null","","null","","","","","","","","<div style=""background-image: url('./tasks/two-arm-new/img/yellow_planet.png')""><div id=""jspsych-space-daw-top-stim-left"" ></div><div id=""jspsych-space-daw-top-stim-middle"" ></div><div id=""jspsych-space-daw-top-stim-right"" ></div><div style=""clear:both""></div><div id=""jspsych-space-daw-bottom-stim-left"" style=""background-image: url('./tasks/two-arm-new/img/yellow_stim_2_deact.png')""></div><div id=""jspsych-space-daw-bottom-stim-middle"" ></div><div id=""jspsych-space-daw-bottom-stim-right"" class=""jspsych-space-daw-bottom-stim-border"" style=""background-image: url('./tasks/two-arm-new/img/yellow_stim_1.png')""></div></div>","","","","","","","","","","","","","","","","","","",""
"html-keyboard-response","29","1426508","0.0-4.0-4.0-2.1","6102c843811b2ec9d92767ad","635ab8fc87ce89828e04cd4d","635ac4c6ac6515f784d6b491","null","","null","","","","","","","","<div style=""background-image: url('./tasks/two-arm-new/img/yellow_planet.png')""><div id=""jspsych-space-daw-top-stim-left"" ></div><div id=""jspsych-space-daw-top-stim-middle"" ></div><div id=""jspsych-space-daw-top-stim-right"" style=""background-image: url('./tasks/two-arm-new/img/treasure.png')""></div><div style=""clear:both""></div><div id=""jspsych-space-daw-bottom-stim-left"" style=""background-image: url('./tasks/two-arm-new/img/yellow_stim_2_deact.png')""></div><div id=""jspsych-space-daw-bottom-stim-middle"" ></div><div id=""jspsych-space-daw-bottom-stim-right"" class=""jspsych-space-daw-bottom-stim-border"" style=""background-image: url('./tasks/two-arm-new/img/yellow_stim_1.png')""></div></div>","","","","","","","","","","","","","","","","","","",""
"html-keyboard-response","30","1428253","0.0-4.0-4.0-0.2","6102c843811b2ec9d92767ad","635ab8fc87ce89828e04cd4d","635ac4c6ac6515f784d6b491","1745","","j","","","","","","","","<div style=""background-image: url('./tasks/two-arm-new/img/yellow_planet.png')""><div id=""jspsych-space-daw-top-stim-left"" ></div><div id=""jspsych-space-daw-top-stim-middle"" ></div><div id=""jspsych-space-daw-top-stim-right"" ></div><div style=""clear:both""></div><div id=""jspsych-space-daw-bottom-stim-left"" style=""background-image: url('./tasks/two-arm-new/img/yellow_stim_2_deact.png')""></div><div id=""jspsych-space-daw-bottom-stim-middle"" ></div><div id=""jspsych-space-daw-bottom-stim-right"" style=""background-image: url('./tasks/two-arm-new/img/yellow_stim_1.png')""></div></div>","bad_alien_practice","2","yellow","1","0","","","","","","","","","","","","","",""
"html-keyboard-response","31","1428767","0.0-4.0-4.0-1.2","6102c843811b2ec9d92767ad","635ab8fc87ce89828e04cd4d","635ac4c6ac6515f784d6b491","null","","null","","","","","","","","<div style=""background-image: url('./tasks/two-arm-new/img/yellow_planet.png')""><div id=""jspsych-space-daw-top-stim-left"" ></div><div id=""jspsych-space-daw-top-stim-middle"" ></div><div id=""jspsych-space-daw-top-stim-right"" ></div><div style=""clear:both""></div><div id=""jspsych-space-daw-bottom-stim-left"" style=""background-image: url('./tasks/two-arm-new/img/yellow_stim_2_deact.png')""></div><div id=""jspsych-space-daw-bottom-stim-middle"" ></div><div id=""jspsych-space-daw-bottom-stim-right"" class=""jspsych-space-daw-bottom-stim-border"" style=""background-image: url('./tasks/two-arm-new/img/yellow_stim_1.png')""></div></div>","","","","","","","","","","","","","","","","","","",""
"html-keyboard-response","32","1429770","0.0-4.0-4.0-2.2","6102c843811b2ec9d92767ad","635ab8fc87ce89828e04cd4d","635ac4c6ac6515f784d6b491","null","","null","","","","","","","","<div style=""background-image: url('./tasks/two-arm-new/img/yellow_planet.png')""><div id=""jspsych-space-daw-top-stim-left"" ></div><div id=""jspsych-space-daw-top-stim-middle"" ></div><div id=""jspsych-space-daw-top-stim-right"" style=""background-image: url('./tasks/two-arm-new/img/noreward.png')""></div><div style=""clear:both""></div><div id=""jspsych-space-daw-bottom-stim-left"" style=""background-image: url('./tasks/two-arm-new/img/yellow_stim_2_deact.png')""></div><div id=""jspsych-space-daw-bottom-stim-middle"" ></div><div id=""jspsych-space-daw-bottom-stim-right"" class=""jspsych-space-daw-bottom-stim-border"" style=""background-image: url('./tasks/two-arm-new/img/yellow_stim_1_sad.png')""></div></div>","","","","","","","","","","","","","","","","","","",""
"html-keyboard-response","33","1431615","0.0-4.0-4.0-0.3","6102c843811b2ec9d92767ad","635ab8fc87ce89828e04cd4d","635ac4c6ac6515f784d6b491","1843","","f","","","","","","","","<div style=""background-image: url('./tasks/two-arm-new/img/yellow_planet.png')""><div id=""jspsych-space-daw-top-stim-left"" ></div><div id=""jspsych-space-daw-top-stim-middle"" ></div><div id=""jspsych-space-daw-top-stim-right"" ></div><div style=""clear:both""></div><div id=""jspsych-space-daw-bottom-stim-left"" style=""background-image: url('./tasks/two-arm-new/img/yellow_stim_1.png')""></div><div id=""jspsych-space-daw-bottom-stim-middle"" ></div><div id=""jspsych-space-daw-bottom-stim-right"" style=""background-image: url('./tasks/two-arm-new/img/yellow_stim_2_deact.png')""></div></div>","bad_alien_practice","3","yellow","1","0","","","","","","","","","","","","","",""
"html-keyboard-response","34","1432130","0.0-4.0-4.0-1.3","6102c843811b2ec9d92767ad","635ab8fc87ce89828e04cd4d","635ac4c6ac6515f784d6b491","null","","null","","","","","","","","<div style=""background-image: url('./tasks/two-arm-new/img/yellow_planet.png')""><div id=""jspsych-space-daw-top-stim-left"" ></div><div id=""jspsych-space-daw-top-stim-middle"" ></div><div id=""jspsych-space-daw-top-stim-right"" ></div><div style=""clear:both""></div><div id=""jspsych-space-daw-bottom-stim-left"" class=""jspsych-space-daw-bottom-stim-border"" style=""background-image: url('./tasks/two-arm-new/img/yellow_stim_1.png')""></div><div id=""jspsych-space-daw-bottom-stim-middle"" ></div><div id=""jspsych-space-daw-bottom-stim-right"" style=""background-image: url('./tasks/two-arm-new/img/yellow_stim_2_deact.png')""></div></div>","","","","","","","","","","","","","","","","","","",""
"html-keyboard-response","35","1433138","0.0-4.0-4.0-2.3","6102c843811b2ec9d92767ad","635ab8fc87ce89828e04cd4d","635ac4c6ac6515f784d6b491","null","","null","","","","","","","","<div style=""background-image: url('./tasks/two-arm-new/img/yellow_planet.png')""><div id=""jspsych-space-daw-top-stim-left"" style=""background-image: url('./tasks/two-arm-new/img/noreward.png')""></div><div id=""jspsych-space-daw-top-stim-middle"" ></div><div id=""jspsych-space-daw-top-stim-right"" ></div><div style=""clear:both""></div><div id=""jspsych-space-daw-bottom-stim-left"" class=""jspsych-space-daw-bottom-stim-border"" style=""background-image: url('./tasks/two-arm-new/img/yellow_stim_1_sad.png')""></div><div id=""jspsych-space-daw-bottom-stim-middle"" ></div><div id=""jspsych-space-daw-bottom-stim-right"" style=""background-image: url('./tasks/two-arm-new/img/yellow_stim_2_deact.png')""></div></div>","","","","","","","","","","","","","","","","","","",""
"html-keyboard-response","36","1434215","0.0-4.0-4.0-0.4","6102c843811b2ec9d92767ad","635ab8fc87ce89828e04cd4d","635ac4c6ac6515f784d6b491","1076","","j","","","","","","","","<div style=""background-image: url('./tasks/two-arm-new/img/yellow_planet.png')""><div id=""jspsych-space-daw-top-stim-left"" ></div><div id=""jspsych-space-daw-top-stim-middle"" ></div><div id=""jspsych-space-daw-top-stim-right"" ></div><div style=""clear:both""></div><div id=""jspsych-space-daw-bottom-stim-left"" style=""background-image: url('./tasks/two-arm-new/img/yellow_stim_2_deact.png')""></div><div id=""jspsych-space-daw-bottom-stim-middle"" ></div><div id=""jspsych-space-daw-bottom-stim-right"" style=""background-image: url('./tasks/two-arm-new/img/yellow_stim_1.png')""></div></div>","bad_alien_practice","4","yellow","1","0","","","","","","","","","","","","","",""
"html-keyboard-response","37","1434725","0.0-4.0-4.0-1.4","6102c843811b2ec9d92767ad","635ab8fc87ce89828e04cd4d","635ac4c6ac6515f784d6b491","null","","null","","","","","","","","<div style=""background-image: url('./tasks/two-arm-new/img/yellow_planet.png')""><div id=""jspsych-space-daw-top-stim-left"" ></div><div id=""jspsych-space-daw-top-stim-middle"" ></div><div id=""jspsych-space-daw-top-stim-right"" ></div><div style=""clear:both""></div><div id=""jspsych-space-daw-bottom-stim-left"" style=""background-image: url('./tasks/two-arm-new/img/yellow_stim_2_deact.png')""></div><div id=""jspsych-space-daw-bottom-stim-middle"" ></div><div id=""jspsych-space-daw-bottom-stim-right"" class=""jspsych-space-daw-bottom-stim-border"" style=""background-image: url('./tasks/two-arm-new/img/yellow_stim_1.png')""></div></div>","","","","","","","","","","","","","","","","","","",""
"html-keyboard-response","38","1435740","0.0-4.0-4.0-2.4","6102c843811b2ec9d92767ad","635ab8fc87ce89828e04cd4d","635ac4c6ac6515f784d6b491","null","","null","","","","","","","","<div style=""background-image: url('./tasks/two-arm-new/img/yellow_planet.png')""><div id=""jspsych-space-daw-top-stim-left"" ></div><div id=""jspsych-space-daw-top-stim-middle"" ></div><div id=""jspsych-space-daw-top-stim-right"" style=""background-image: url('./tasks/two-arm-new/img/noreward.png')""></div><div style=""clear:both""></div><div id=""jspsych-space-daw-bottom-stim-left"" style=""background-image: url('./tasks/two-arm-new/img/yellow_stim_2_deact.png')""></div><div id=""jspsych-space-daw-bottom-stim-middle"" ></div><div id=""jspsych-space-daw-bottom-stim-right"" class=""jspsych-space-daw-bottom-stim-border"" style=""background-image: url('./tasks/two-arm-new/img/yellow_stim_1_sad.png')""></div></div>","","","","","","","","","","","","","","","","","","",""
"instructions","39","1454412","0.0-4.0-5.0","6102c843811b2ec9d92767ad","635ab8fc87ce89828e04cd4d","635ac4c6ac6515f784d6b491","18672","","","","[{""page_index"":0,""viewing_time"":18672}]","","","","","","","","","","","","","","","","","","","","","","","","",""
"html-keyboard-response","40","1456988","0.0-4.0-6.0-0.0","6102c843811b2ec9d92767ad","635ab8fc87ce89828e04cd4d","635ac4c6ac6515f784d6b491","2574","","j","","","","","","","","<div style=""background-image: url('./tasks/two-arm-new/img/green_planet.png')""><div id=""jspsych-space-daw-top-stim-left"" ></div><div id=""jspsych-space-daw-top-stim-middle"" ></div><div id=""jspsych-space-daw-top-stim-right"" ></div><div style=""clear:both""></div><div id=""jspsych-space-daw-bottom-stim-left"" style=""background-image: url('./tasks/two-arm-new/img/green_stim_1.png')""></div><div id=""jspsych-space-daw-bottom-stim-middle"" ></div><div id=""jspsych-space-daw-bottom-stim-right"" style=""background-image: url('./tasks/two-arm-new/img/green_stim_2.png')""></div></div>","aliens_practice","0","green","2","1","","","","","","","","","","","","","",""
"html-keyboard-response","41","1457504","0.0-4.0-6.0-1.0","6102c843811b2ec9d92767ad","635ab8fc87ce89828e04cd4d","635ac4c6ac6515f784d6b491","null","","null","","","","","","","","<div style=""background-image: url('./tasks/two-arm-new/img/green_planet.png')""><div id=""jspsych-space-daw-top-stim-left"" ></div><div id=""jspsych-space-daw-top-stim-middle"" ></div><div id=""jspsych-space-daw-top-stim-right"" ></div><div style=""clear:both""></div><div id=""jspsych-space-daw-bottom-stim-left"" style=""background-image: url('./tasks/two-arm-new/img/green_stim_1.png')""></div><div id=""jspsych-space-daw-bottom-stim-middle"" ></div><div id=""jspsych-space-daw-bottom-stim-right"" class=""jspsych-space-daw-bottom-stim-border"" style=""background-image: url('./tasks/two-arm-new/img/green_stim_2.png')""></div></div>","","","","","","","","","","","","","","","","","","",""
"html-keyboard-response","42","1458517","0.0-4.0-6.0-2.0","6102c843811b2ec9d92767ad","635ab8fc87ce89828e04cd4d","635ac4c6ac6515f784d6b491","null","","null","","","","","","","","<div style=""background-image: url('./tasks/two-arm-new/img/green_planet.png')""><div id=""jspsych-space-daw-top-stim-left"" ></div><div id=""jspsych-space-daw-top-stim-middle"" ></div><div id=""jspsych-space-daw-top-stim-right"" style=""background-image: url('./tasks/two-arm-new/img/treasure.png')""></div><div style=""clear:both""></div><div id=""jspsych-space-daw-bottom-stim-left"" style=""background-image: url('./tasks/two-arm-new/img/green_stim_1.png')""></div><div id=""jspsych-space-daw-bottom-stim-middle"" ></div><div id=""jspsych-space-daw-bottom-stim-right"" class=""jspsych-space-daw-bottom-stim-border"" style=""background-image: url('./tasks/two-arm-new/img/green_stim_2.png')""></div></div>","","","","","","","","","","","","","","","","","","",""
"html-keyboard-response","43","1459160","0.0-4.0-6.0-0.1","6102c843811b2ec9d92767ad","635ab8fc87ce89828e04cd4d","635ac4c6ac6515f784d6b491","641","","f","","","","","","","","<div style=""background-image: url('./tasks/two-arm-new/img/green_planet.png')""><div id=""jspsych-space-daw-top-stim-left"" ></div><div id=""jspsych-space-daw-top-stim-middle"" ></div><div id=""jspsych-space-daw-top-stim-right"" ></div><div style=""clear:both""></div><div id=""jspsych-space-daw-bottom-stim-left"" style=""background-image: url('./tasks/two-arm-new/img/green_stim_1.png')""></div><div id=""jspsych-space-daw-bottom-stim-middle"" ></div><div id=""jspsych-space-daw-bottom-stim-right"" style=""background-image: url('./tasks/two-arm-new/img/green_stim_2.png')""></div></div>","aliens_practice","1","green","1","0","","","","","","","","","","","","","",""
"html-keyboard-response","44","1459670","0.0-4.0-6.0-1.1","6102c843811b2ec9d92767ad","635ab8fc87ce89828e04cd4d","635ac4c6ac6515f784d6b491","null","","null","","","","","","","","<div style=""background-image: url('./tasks/two-arm-new/img/green_planet.png')""><div id=""jspsych-space-daw-top-stim-left"" ></div><div id=""jspsych-space-daw-top-stim-middle"" ></div><div id=""jspsych-space-daw-top-stim-right"" ></div><div style=""clear:both""></div><div id=""jspsych-space-daw-bottom-stim-left"" class=""jspsych-space-daw-bottom-stim-border"" style=""background-image: url('./tasks/two-arm-new/img/green_stim_1.png')""></div><div id=""jspsych-space-daw-bottom-stim-middle"" ></div><div id=""jspsych-space-daw-bottom-stim-right"" style=""background-image: url('./tasks/two-arm-new/img/green_stim_2.png')""></div></div>","","","","","","","","","","","","","","","","","","",""
"html-keyboard-response","45","1460682","0.0-4.0-6.0-2.1","6102c843811b2ec9d92767ad","635ab8fc87ce89828e04cd4d","635ac4c6ac6515f784d6b491","null","","null","","","","","","","","<div style=""background-image: url('./tasks/two-arm-new/img/green_planet.png')""><div id=""jspsych-space-daw-top-stim-left"" style=""background-image: url('./tasks/two-arm-new/img/noreward.png')""></div><div id=""jspsych-space-daw-top-stim-middle"" ></div><div id=""jspsych-space-daw-top-stim-right"" ></div><div style=""clear:both""></div><div id=""jspsych-space-daw-bottom-stim-left"" class=""jspsych-space-daw-bottom-stim-border"" style=""background-image: url('./tasks/two-arm-new/img/green_stim_1_sad.png')""></div><div id=""jspsych-space-daw-bottom-stim-middle"" ></div><div id=""jspsych-space-daw-bottom-stim-right"" style=""background-image: url('./tasks/two-arm-new/img/green_stim_2.png')""></div></div>","","","","","","","","","","","","","","","","","","",""
"html-keyboard-response","46","1461486","0.0-4.0-6.0-0.2","6102c843811b2ec9d92767ad","635ab8fc87ce89828e04cd4d","635ac4c6ac6515f784d6b491","803","","f","","","","","","","","<div style=""background-image: url('./tasks/two-arm-new/img/green_planet.png')""><div id=""jspsych-space-daw-top-stim-left"" ></div><div id=""jspsych-space-daw-top-stim-middle"" ></div><div id=""jspsych-space-daw-top-stim-right"" ></div><div style=""clear:both""></div><div id=""jspsych-space-daw-bottom-stim-left"" style=""background-image: url('./tasks/two-arm-new/img/green_stim_2.png')""></div><div id=""jspsych-space-daw-bottom-stim-middle"" ></div><div id=""jspsych-space-daw-bottom-stim-right"" style=""background-image: url('./tasks/two-arm-new/img/green_stim_1.png')""></div></div>","aliens_practice","2","green","2","1","","","","","","","","","","","","","",""
"html-keyboard-response","47","1461995","0.0-4.0-6.0-1.2","6102c843811b2ec9d92767ad","635ab8fc87ce89828e04cd4d","635ac4c6ac6515f784d6b491","null","","null","","","","","","","","<div style=""background-image: url('./tasks/two-arm-new/img/green_planet.png')""><div id=""jspsych-space-daw-top-stim-left"" ></div><div id=""jspsych-space-daw-top-stim-middle"" ></div><div id=""jspsych-space-daw-top-stim-right"" ></div><div style=""clear:both""></div><div id=""jspsych-space-daw-bottom-stim-left"" class=""jspsych-space-daw-bottom-stim-border"" style=""background-image: url('./tasks/two-arm-new/img/green_stim_2.png')""></div><div id=""jspsych-space-daw-bottom-stim-middle"" ></div><div id=""jspsych-space-daw-bottom-stim-right"" style=""background-image: url('./tasks/two-arm-new/img/green_stim_1.png')""></div></div>","","","","","","","","","","","","","","","","","","",""
"html-keyboard-response","48","1463011","0.0-4.0-6.0-2.2","6102c843811b2ec9d92767ad","635ab8fc87ce89828e04cd4d","635ac4c6ac6515f784d6b491","null","","null","","","","","","","","<div style=""background-image: url('./tasks/two-arm-new/img/green_planet.png')""><div id=""jspsych-space-daw-top-stim-left"" style=""background-image: url('./tasks/two-arm-new/img/treasure.png')""></div><div id=""jspsych-space-daw-top-stim-middle"" ></div><div id=""jspsych-space-daw-top-stim-right"" ></div><div style=""clear:both""></div><div id=""jspsych-space-daw-bottom-stim-left"" class=""jspsych-space-daw-bottom-stim-border"" style=""background-image: url('./tasks/two-arm-new/img/green_stim_2.png')""></div><div id=""jspsych-space-daw-bottom-stim-middle"" ></div><div id=""jspsych-space-daw-bottom-stim-right"" style=""background-image: url('./tasks/two-arm-new/img/green_stim_1.png')""></div></div>","","","","","","","","","","","","","","","","","","",""
"html-keyboard-response","49","1463662","0.0-4.0-6.0-0.3","6102c843811b2ec9d92767ad","635ab8fc87ce89828e04cd4d","635ac4c6ac6515f784d6b491","650","","j","","","","","","","","<div style=""background-image: url('./tasks/two-arm-new/img/green_planet.png')""><div id=""jspsych-space-daw-top-stim-left"" ></div><div id=""jspsych-space-daw-top-stim-middle"" ></div><div id=""jspsych-space-daw-top-stim-right"" ></div><div style=""clear:both""></div><div id=""jspsych-space-daw-bottom-stim-left"" style=""background-image: url('./tasks/two-arm-new/img/green_stim_1.png')""></div><div id=""jspsych-space-daw-bottom-stim-middle"" ></div><div id=""jspsych-space-daw-bottom-stim-right"" style=""background-image: url('./tasks/two-arm-new/img/green_stim_2.png')""></div></div>","aliens_practice","3","green","2","1","","","","","","","","","","","","","",""
"html-keyboard-response","50","1464166","0.0-4.0-6.0-1.3","6102c843811b2ec9d92767ad","635ab8fc87ce89828e04cd4d","635ac4c6ac6515f784d6b491","null","","null","","","","","","","","<div style=""background-image: url('./tasks/two-arm-new/img/green_planet.png')""><div id=""jspsych-space-daw-top-stim-left"" ></div><div id=""jspsych-space-daw-top-stim-middle"" ></div><div id=""jspsych-space-daw-top-stim-right"" ></div><div style=""clear:both""></div><div id=""jspsych-space-daw-bottom-stim-left"" style=""background-image: url('./tasks/two-arm-new/img/green_stim_1.png')""></div><div id=""jspsych-space-daw-bottom-stim-middle"" ></div><div id=""jspsych-space-daw-bottom-stim-right"" class=""jspsych-space-daw-bottom-stim-border"" style=""background-image: url('./tasks/two-arm-new/img/green_stim_2.png')""></div></div>","","","","","","","","","","","","","","","","","","",""
"html-keyboard-response","51","1465179","0.0-4.0-6.0-2.3","6102c843811b2ec9d92767ad","635ab8fc87ce89828e04cd4d","635ac4c6ac6515f784d6b491","null","","null","","","","","","","","<div style=""background-image: url('./tasks/two-arm-new/img/green_planet.png')""><div id=""jspsych-space-daw-top-stim-left"" ></div><div id=""jspsych-space-daw-top-stim-middle"" ></div><div id=""jspsych-space-daw-top-stim-right"" style=""background-image: url('./tasks/two-arm-new/img/treasure.png')""></div><div style=""clear:both""></div><div id=""jspsych-space-daw-bottom-stim-left"" style=""background-image: url('./tasks/two-arm-new/img/green_stim_1.png')""></div><div id=""jspsych-space-daw-bottom-stim-middle"" ></div><div id=""jspsych-space-daw-bottom-stim-right"" class=""jspsych-space-daw-bottom-stim-border"" style=""background-image: url('./tasks/two-arm-new/img/green_stim_2.png')""></div></div>","","","","","","","","","","","","","","","","","","",""
"html-keyboard-response","52","1466390","0.0-4.0-6.0-0.4","6102c843811b2ec9d92767ad","635ab8fc87ce89828e04cd4d","635ac4c6ac6515f784d6b491","1209","","j","","","","","","","","<div style=""background-image: url('./tasks/two-arm-new/img/green_planet.png')""><div id=""jspsych-space-daw-top-stim-left"" ></div><div id=""jspsych-space-daw-top-stim-middle"" ></div><div id=""jspsych-space-daw-top-stim-right"" ></div><div style=""clear:both""></div><div id=""jspsych-space-daw-bottom-stim-left"" style=""background-image: url('./tasks/two-arm-new/img/green_stim_1.png')""></div><div id=""jspsych-space-daw-bottom-stim-middle"" ></div><div id=""jspsych-space-daw-bottom-stim-right"" style=""background-image: url('./tasks/two-arm-new/img/green_stim_2.png')""></div></div>","aliens_practice","4","green","2","1","","","","","","","","","","","","","",""
"html-keyboard-response","53","1466894","0.0-4.0-6.0-1.4","6102c843811b2ec9d92767ad","635ab8fc87ce89828e04cd4d","635ac4c6ac6515f784d6b491","null","","null","","","","","","","","<div style=""background-image: url('./tasks/two-arm-new/img/green_planet.png')""><div id=""jspsych-space-daw-top-stim-left"" ></div><div id=""jspsych-space-daw-top-stim-middle"" ></div><div id=""jspsych-space-daw-top-stim-right"" ></div><div style=""clear:both""></div><div id=""jspsych-space-daw-bottom-stim-left"" style=""background-image: url('./tasks/two-arm-new/img/green_stim_1.png')""></div><div id=""jspsych-space-daw-bottom-stim-middle"" ></div><div id=""jspsych-space-daw-bottom-stim-right"" class=""jspsych-space-daw-bottom-stim-border"" style=""background-image: url('./tasks/two-arm-new/img/green_stim_2.png')""></div></div>","","","","","","","","","","","","","","","","","","",""
"html-keyboard-response","54","1467906","0.0-4.0-6.0-2.4","6102c843811b2ec9d92767ad","635ab8fc87ce89828e04cd4d","635ac4c6ac6515f784d6b491","null","","null","","","","","","","","<div style=""background-image: url('./tasks/two-arm-new/img/green_planet.png')""><div id=""jspsych-space-daw-top-stim-left"" ></div><div id=""jspsych-space-daw-top-stim-middle"" ></div><div id=""jspsych-space-daw-top-stim-right"" style=""background-image: url('./tasks/two-arm-new/img/treasure.png')""></div><div style=""clear:both""></div><div id=""jspsych-space-daw-bottom-stim-left"" style=""background-image: url('./tasks/two-arm-new/img/green_stim_1.png')""></div><div id=""jspsych-space-daw-bottom-stim-middle"" ></div><div id=""jspsych-space-daw-bottom-stim-right"" class=""jspsych-space-daw-bottom-stim-border"" style=""background-image: url('./tasks/two-arm-new/img/green_stim_2.png')""></div></div>","","","","","","","","","","","","","","","","","","",""
"html-keyboard-response","55","1468447","0.0-4.0-6.0-0.5","6102c843811b2ec9d92767ad","635ab8fc87ce89828e04cd4d","635ac4c6ac6515f784d6b491","538","","j","","","","","","","","<div style=""background-image: url('./tasks/two-arm-new/img/green_planet.png')""><div id=""jspsych-space-daw-top-stim-left"" ></div><div id=""jspsych-space-daw-top-stim-middle"" ></div><div id=""jspsych-space-daw-top-stim-right"" ></div><div style=""clear:both""></div><div id=""jspsych-space-daw-bottom-stim-left"" style=""background-image: url('./tasks/two-arm-new/img/green_stim_1.png')""></div><div id=""jspsych-space-daw-bottom-stim-middle"" ></div><div id=""jspsych-space-daw-bottom-stim-right"" style=""background-image: url('./tasks/two-arm-new/img/green_stim_2.png')""></div></div>","aliens_practice","5","green","2","1","","","","","","","","","","","","","",""
"html-keyboard-response","56","1468954","0.0-4.0-6.0-1.5","6102c843811b2ec9d92767ad","635ab8fc87ce89828e04cd4d","635ac4c6ac6515f784d6b491","null","","null","","","","","","","","<div style=""background-image: url('./tasks/two-arm-new/img/green_planet.png')""><div id=""jspsych-space-daw-top-stim-left"" ></div><div id=""jspsych-space-daw-top-stim-middle"" ></div><div id=""jspsych-space-daw-top-stim-right"" ></div><div style=""clear:both""></div><div id=""jspsych-space-daw-bottom-stim-left"" style=""background-image: url('./tasks/two-arm-new/img/green_stim_1.png')""></div><div id=""jspsych-space-daw-bottom-stim-middle"" ></div><div id=""jspsych-space-daw-bottom-stim-right"" class=""jspsych-space-daw-bottom-stim-border"" style=""background-image: url('./tasks/two-arm-new/img/green_stim_2.png')""></div></div>","","","","","","","","","","","","","","","","","","",""
"html-keyboard-response","57","1469969","0.0-4.0-6.0-2.5","6102c843811b2ec9d92767ad","635ab8fc87ce89828e04cd4d","635ac4c6ac6515f784d6b491","null","","null","","","","","","","","<div style=""background-image: url('./tasks/two-arm-new/img/green_planet.png')""><div id=""jspsych-space-daw-top-stim-left"" ></div><div id=""jspsych-space-daw-top-stim-middle"" ></div><div id=""jspsych-space-daw-top-stim-right"" style=""background-image: url('./tasks/two-arm-new/img/treasure.png')""></div><div style=""clear:both""></div><div id=""jspsych-space-daw-bottom-stim-left"" style=""background-image: url('./tasks/two-arm-new/img/green_stim_1.png')""></div><div id=""jspsych-space-daw-bottom-stim-middle"" ></div><div id=""jspsych-space-daw-bottom-stim-right"" class=""jspsych-space-daw-bottom-stim-border"" style=""background-image: url('./tasks/two-arm-new/img/green_stim_2.png')""></div></div>","","","","","","","","","","","","","","","","","","",""
"html-keyboard-response","58","1470494","0.0-4.0-6.0-0.6","6102c843811b2ec9d92767ad","635ab8fc87ce89828e04cd4d","635ac4c6ac6515f784d6b491","522","","f","","","","","","","","<div style=""background-image: url('./tasks/two-arm-new/img/green_planet.png')""><div id=""jspsych-space-daw-top-stim-left"" ></div><div id=""jspsych-space-daw-top-stim-middle"" ></div><div id=""jspsych-space-daw-top-stim-right"" ></div><div style=""clear:both""></div><div id=""jspsych-space-daw-bottom-stim-left"" style=""background-image: url('./tasks/two-arm-new/img/green_stim_2.png')""></div><div id=""jspsych-space-daw-bottom-stim-middle"" ></div><div id=""jspsych-space-daw-bottom-stim-right"" style=""background-image: url('./tasks/two-arm-new/img/green_stim_1.png')""></div></div>","aliens_practice","6","green","2","1","","","","","","","","","","","","","",""
"html-keyboard-response","59","1470997","0.0-4.0-6.0-1.6","6102c843811b2ec9d92767ad","635ab8fc87ce89828e04cd4d","635ac4c6ac6515f784d6b491","null","","null","","","","","","","","<div style=""background-image: url('./tasks/two-arm-new/img/green_planet.png')""><div id=""jspsych-space-daw-top-stim-left"" ></div><div id=""jspsych-space-daw-top-stim-middle"" ></div><div id=""jspsych-space-daw-top-stim-right"" ></div><div style=""clear:both""></div><div id=""jspsych-space-daw-bottom-stim-left"" class=""jspsych-space-daw-bottom-stim-border"" style=""background-image: url('./tasks/two-arm-new/img/green_stim_2.png')""></div><div id=""jspsych-space-daw-bottom-stim-middle"" ></div><div id=""jspsych-space-daw-bottom-stim-right"" style=""background-image: url('./tasks/two-arm-new/img/green_stim_1.png')""></div></div>","","","","","","","","","","","","","","","","","","",""
"html-keyboard-response","60","1472010","0.0-4.0-6.0-2.6","6102c843811b2ec9d92767ad","635ab8fc87ce89828e04cd4d","635ac4c6ac6515f784d6b491","null","","null","","","","","","","","<div style=""background-image: url('./tasks/two-arm-new/img/green_planet.png')""><div id=""jspsych-space-daw-top-stim-left"" style=""background-image: url('./tasks/two-arm-new/img/treasure.png')""></div><div id=""jspsych-space-daw-top-stim-middle"" ></div><div id=""jspsych-space-daw-top-stim-right"" ></div><div style=""clear:both""></div><div id=""jspsych-space-daw-bottom-stim-left"" class=""jspsych-space-daw-bottom-stim-border"" style=""background-image: url('./tasks/two-arm-new/img/green_stim_2.png')""></div><div id=""jspsych-space-daw-bottom-stim-middle"" ></div><div id=""jspsych-space-daw-bottom-stim-right"" style=""background-image: url('./tasks/two-arm-new/img/green_stim_1.png')""></div></div>","","","","","","","","","","","","","","","","","","",""
"html-keyboard-response","61","1472685","0.0-4.0-6.0-0.7","6102c843811b2ec9d92767ad","635ab8fc87ce89828e04cd4d","635ac4c6ac6515f784d6b491","673","","f","","","","","","","","<div style=""background-image: url('./tasks/two-arm-new/img/green_planet.png')""><div id=""jspsych-space-daw-top-stim-left"" ></div><div id=""jspsych-space-daw-top-stim-middle"" ></div><div id=""jspsych-space-daw-top-stim-right"" ></div><div style=""clear:both""></div><div id=""jspsych-space-daw-bottom-stim-left"" style=""background-image: url('./tasks/two-arm-new/img/green_stim_2.png')""></div><div id=""jspsych-space-daw-bottom-stim-middle"" ></div><div id=""jspsych-space-daw-bottom-stim-right"" style=""background-image: url('./tasks/two-arm-new/img/green_stim_1.png')""></div></div>","aliens_practice","7","green","2","1","","","","","","","","","","","","","",""
"html-keyboard-response","62","1473191","0.0-4.0-6.0-1.7","6102c843811b2ec9d92767ad","635ab8fc87ce89828e04cd4d","635ac4c6ac6515f784d6b491","null","","null","","","","","","","","<div style=""background-image: url('./tasks/two-arm-new/img/green_planet.png')""><div id=""jspsych-space-daw-top-stim-left"" ></div><div id=""jspsych-space-daw-top-stim-middle"" ></div><div id=""jspsych-space-daw-top-stim-right"" ></div><div style=""clear:both""></div><div id=""jspsych-space-daw-bottom-stim-left"" class=""jspsych-space-daw-bottom-stim-border"" style=""background-image: url('./tasks/two-arm-new/img/green_stim_2.png')""></div><div id=""jspsych-space-daw-bottom-stim-middle"" ></div><div id=""jspsych-space-daw-bottom-stim-right"" style=""background-image: url('./tasks/two-arm-new/img/green_stim_1.png')""></div></div>","","","","","","","","","","","","","","","","","","",""
"html-keyboard-response","63","1474203","0.0-4.0-6.0-2.7","6102c843811b2ec9d92767ad","635ab8fc87ce89828e04cd4d","635ac4c6ac6515f784d6b491","null","","null","","","","","","","","<div style=""background-image: url('./tasks/two-arm-new/img/green_planet.png')""><div id=""jspsych-space-daw-top-stim-left"" style=""background-image: url('./tasks/two-arm-new/img/treasure.png')""></div><div id=""jspsych-space-daw-top-stim-middle"" ></div><div id=""jspsych-space-daw-top-stim-right"" ></div><div style=""clear:both""></div><div id=""jspsych-space-daw-bottom-stim-left"" class=""jspsych-space-daw-bottom-stim-border"" style=""background-image: url('./tasks/two-arm-new/img/green_stim_2.png')""></div><div id=""jspsych-space-daw-bottom-stim-middle"" ></div><div id=""jspsych-space-daw-bottom-stim-right"" style=""background-image: url('./tasks/two-arm-new/img/green_stim_1.png')""></div></div>","","","","","","","","","","","","","","","","","","",""
"html-keyboard-response","64","1474703","0.0-4.0-6.0-0.8","6102c843811b2ec9d92767ad","635ab8fc87ce89828e04cd4d","635ac4c6ac6515f784d6b491","498","","j","","","","","","","","<div style=""background-image: url('./tasks/two-arm-new/img/green_planet.png')""><div id=""jspsych-space-daw-top-stim-left"" ></div><div id=""jspsych-space-daw-top-stim-middle"" ></div><div id=""jspsych-space-daw-top-stim-right"" ></div><div style=""clear:both""></div><div id=""jspsych-space-daw-bottom-stim-left"" style=""background-image: url('./tasks/two-arm-new/img/green_stim_1.png')""></div><div id=""jspsych-space-daw-bottom-stim-middle"" ></div><div id=""jspsych-space-daw-bottom-stim-right"" style=""background-image: url('./tasks/two-arm-new/img/green_stim_2.png')""></div></div>","aliens_practice","8","green","2","1","","","","","","","","","","","","","",""
"html-keyboard-response","65","1475215","0.0-4.0-6.0-1.8","6102c843811b2ec9d92767ad","635ab8fc87ce89828e04cd4d","635ac4c6ac6515f784d6b491","null","","null","","","","","","","","<div style=""background-image: url('./tasks/two-arm-new/img/green_planet.png')""><div id=""jspsych-space-daw-top-stim-left"" ></div><div id=""jspsych-space-daw-top-stim-middle"" ></div><div id=""jspsych-space-daw-top-stim-right"" ></div><div style=""clear:both""></div><div id=""jspsych-space-daw-bottom-stim-left"" style=""background-image: url('./tasks/two-arm-new/img/green_stim_1.png')""></div><div id=""jspsych-space-daw-bottom-stim-middle"" ></div><div id=""jspsych-space-daw-bottom-stim-right"" class=""jspsych-space-daw-bottom-stim-border"" style=""background-image: url('./tasks/two-arm-new/img/green_stim_2.png')""></div></div>","","","","","","","","","","","","","","","","","","",""
"html-keyboard-response","66","1476226","0.0-4.0-6.0-2.8","6102c843811b2ec9d92767ad","635ab8fc87ce89828e04cd4d","635ac4c6ac6515f784d6b491","null","","null","","","","","","","","<div style=""background-image: url('./tasks/two-arm-new/img/green_planet.png')""><div id=""jspsych-space-daw-top-stim-left"" ></div><div id=""jspsych-space-daw-top-stim-middle"" ></div><div id=""jspsych-space-daw-top-stim-right"" style=""background-image: url('./tasks/two-arm-new/img/treasure.png')""></div><div style=""clear:both""></div><div id=""jspsych-space-daw-bottom-stim-left"" style=""background-image: url('./tasks/two-arm-new/img/green_stim_1.png')""></div><div id=""jspsych-space-daw-bottom-stim-middle"" ></div><div id=""jspsych-space-daw-bottom-stim-right"" class=""jspsych-space-daw-bottom-stim-border"" style=""background-image: url('./tasks/two-arm-new/img/green_stim_2.png')""></div></div>","","","","","","","","","","","","","","","","","","",""
"html-keyboard-response","67","1476807","0.0-4.0-6.0-0.9","6102c843811b2ec9d92767ad","635ab8fc87ce89828e04cd4d","635ac4c6ac6515f784d6b491","579","","j","","","","","","","","<div style=""background-image: url('./tasks/two-arm-new/img/green_planet.png')""><div id=""jspsych-space-daw-top-stim-left"" ></div><div id=""jspsych-space-daw-top-stim-middle"" ></div><div id=""jspsych-space-daw-top-stim-right"" ></div><div style=""clear:both""></div><div id=""jspsych-space-daw-bottom-stim-left"" style=""background-image: url('./tasks/two-arm-new/img/green_stim_1.png')""></div><div id=""jspsych-space-daw-bottom-stim-middle"" ></div><div id=""jspsych-space-daw-bottom-stim-right"" style=""background-image: url('./tasks/two-arm-new/img/green_stim_2.png')""></div></div>","aliens_practice","9","green","2","1","","","","","","","","","","","","","",""
"html-keyboard-response","68","1477312","0.0-4.0-6.0-1.9","6102c843811b2ec9d92767ad","635ab8fc87ce89828e04cd4d","635ac4c6ac6515f784d6b491","null","","null","","","","","","","","<div style=""background-image: url('./tasks/two-arm-new/img/green_planet.png')""><div id=""jspsych-space-daw-top-stim-left"" ></div><div id=""jspsych-space-daw-top-stim-middle"" ></div><div id=""jspsych-space-daw-top-stim-right"" ></div><div style=""clear:both""></div><div id=""jspsych-space-daw-bottom-stim-left"" style=""background-image: url('./tasks/two-arm-new/img/green_stim_1.png')""></div><div id=""jspsych-space-daw-bottom-stim-middle"" ></div><div id=""jspsych-space-daw-bottom-stim-right"" class=""jspsych-space-daw-bottom-stim-border"" style=""background-image: url('./tasks/two-arm-new/img/green_stim_2.png')""></div></div>","","","","","","","","","","","","","","","","","","",""
"html-keyboard-response","69","1478321","0.0-4.0-6.0-2.9","6102c843811b2ec9d92767ad","635ab8fc87ce89828e04cd4d","635ac4c6ac6515f784d6b491","null","","null","","","","","","","","<div style=""background-image: url('./tasks/two-arm-new/img/green_planet.png')""><div id=""jspsych-space-daw-top-stim-left"" ></div><div id=""jspsych-space-daw-top-stim-middle"" ></div><div id=""jspsych-space-daw-top-stim-right"" style=""background-image: url('./tasks/two-arm-new/img/treasure.png')""></div><div style=""clear:both""></div><div id=""jspsych-space-daw-bottom-stim-left"" style=""background-image: url('./tasks/two-arm-new/img/green_stim_1.png')""></div><div id=""jspsych-space-daw-bottom-stim-middle"" ></div><div id=""jspsych-space-daw-bottom-stim-right"" class=""jspsych-space-daw-bottom-stim-border"" style=""background-image: url('./tasks/two-arm-new/img/green_stim_2.png')""></div></div>","","","","","","","","","","","","","","","","","","",""
"html-keyboard-response","70","1478900","0.0-4.0-6.0-0.10","6102c843811b2ec9d92767ad","635ab8fc87ce89828e04cd4d","635ac4c6ac6515f784d6b491","578","","j","","","","","","","","<div style=""background-image: url('./tasks/two-arm-new/img/green_planet.png')""><div id=""jspsych-space-daw-top-stim-left"" ></div><div id=""jspsych-space-daw-top-stim-middle"" ></div><div id=""jspsych-space-daw-top-stim-right"" ></div><div style=""clear:both""></div><div id=""jspsych-space-daw-bottom-stim-left"" style=""background-image: url('./tasks/two-arm-new/img/green_stim_1.png')""></div><div id=""jspsych-space-daw-bottom-stim-middle"" ></div><div id=""jspsych-space-daw-bottom-stim-right"" style=""background-image: url('./tasks/two-arm-new/img/green_stim_2.png')""></div></div>","aliens_practice","10","green","2","1","","","","","","","","","","","","","",""
"html-keyboard-response","71","1479408","0.0-4.0-6.0-1.10","6102c843811b2ec9d92767ad","635ab8fc87ce89828e04cd4d","635ac4c6ac6515f784d6b491","null","","null","","","","","","","","<div style=""background-image: url('./tasks/two-arm-new/img/green_planet.png')""><div id=""jspsych-space-daw-top-stim-left"" ></div><div id=""jspsych-space-daw-top-stim-middle"" ></div><div id=""jspsych-space-daw-top-stim-right"" ></div><div style=""clear:both""></div><div id=""jspsych-space-daw-bottom-stim-left"" style=""background-image: url('./tasks/two-arm-new/img/green_stim_1.png')""></div><div id=""jspsych-space-daw-bottom-stim-middle"" ></div><div id=""jspsych-space-daw-bottom-stim-right"" class=""jspsych-space-daw-bottom-stim-border"" style=""background-image: url('./tasks/two-arm-new/img/green_stim_2.png')""></div></div>","","","","","","","","","","","","","","","","","","",""
"html-keyboard-response","72","1480424","0.0-4.0-6.0-2.10","6102c843811b2ec9d92767ad","635ab8fc87ce89828e04cd4d","635ac4c6ac6515f784d6b491","null","","null","","","","","","","","<div style=""background-image: url('./tasks/two-arm-new/img/green_planet.png')""><div id=""jspsych-space-daw-top-stim-left"" ></div><div id=""jspsych-space-daw-top-stim-middle"" ></div><div id=""jspsych-space-daw-top-stim-right"" style=""background-image: url('./tasks/two-arm-new/img/treasure.png')""></div><div style=""clear:both""></div><div id=""jspsych-space-daw-bottom-stim-left"" style=""background-image: url('./tasks/two-arm-new/img/green_stim_1.png')""></div><div id=""jspsych-space-daw-bottom-stim-middle"" ></div><div id=""jspsych-space-daw-bottom-stim-right"" class=""jspsych-space-daw-bottom-stim-border"" style=""background-image: url('./tasks/two-arm-new/img/green_stim_2.png')""></div></div>","","","","","","","","","","","","","","","","","","",""
"html-keyboard-response","73","1480727","0.0-4.0-6.0-0.11","6102c843811b2ec9d92767ad","635ab8fc87ce89828e04cd4d","635ac4c6ac6515f784d6b491","301","","j","","","","","","","","<div style=""background-image: url('./tasks/two-arm-new/img/green_planet.png')""><div id=""jspsych-space-daw-top-stim-left"" ></div><div id=""jspsych-space-daw-top-stim-middle"" ></div><div id=""jspsych-space-daw-top-stim-right"" ></div><div style=""clear:both""></div><div id=""jspsych-space-daw-bottom-stim-left"" style=""background-image: url('./tasks/two-arm-new/img/green_stim_1.png')""></div><div id=""jspsych-space-daw-bottom-stim-middle"" ></div><div id=""jspsych-space-daw-bottom-stim-right"" style=""background-image: url('./tasks/two-arm-new/img/green_stim_2.png')""></div></div>","aliens_practice","11","green","2","1","","","","","","","","","","","","","",""
"html-keyboard-response","74","1481240","0.0-4.0-6.0-1.11","6102c843811b2ec9d92767ad","635ab8fc87ce89828e04cd4d","635ac4c6ac6515f784d6b491","null","","null","","","","","","","","<div style=""background-image: url('./tasks/two-arm-new/img/green_planet.png')""><div id=""jspsych-space-daw-top-stim-left"" ></div><div id=""jspsych-space-daw-top-stim-middle"" ></div><div id=""jspsych-space-daw-top-stim-right"" ></div><div style=""clear:both""></div><div id=""jspsych-space-daw-bottom-stim-left"" style=""background-image: url('./tasks/two-arm-new/img/green_stim_1.png')""></div><div id=""jspsych-space-daw-bottom-stim-middle"" ></div><div id=""jspsych-space-daw-bottom-stim-right"" class=""jspsych-space-daw-bottom-stim-border"" style=""background-image: url('./tasks/two-arm-new/img/green_stim_2.png')""></div></div>","","","","","","","","","","","","","","","","","","",""
"html-keyboard-response","75","1482255","0.0-4.0-6.0-2.11","6102c843811b2ec9d92767ad","635ab8fc87ce89828e04cd4d","635ac4c6ac6515f784d6b491","null","","null","","","","","","","","<div style=""background-image: url('./tasks/two-arm-new/img/green_planet.png')""><div id=""jspsych-space-daw-top-stim-left"" ></div><div id=""jspsych-space-daw-top-stim-middle"" ></div><div id=""jspsych-space-daw-top-stim-right"" style=""background-image: url('./tasks/two-arm-new/img/treasure.png')""></div><div style=""clear:both""></div><div id=""jspsych-space-daw-bottom-stim-left"" style=""background-image: url('./tasks/two-arm-new/img/green_stim_1.png')""></div><div id=""jspsych-space-daw-bottom-stim-middle"" ></div><div id=""jspsych-space-daw-bottom-stim-right"" class=""jspsych-space-daw-bottom-stim-border"" style=""background-image: url('./tasks/two-arm-new/img/green_stim_2.png')""></div></div>","","","","","","","","","","","","","","","","","","",""
"html-keyboard-response","76","1482468","0.0-4.0-6.0-0.12","6102c843811b2ec9d92767ad","635ab8fc87ce89828e04cd4d","635ac4c6ac6515f784d6b491","211","","j","","","","","","","","<div style=""background-image: url('./tasks/two-arm-new/img/green_planet.png')""><div id=""jspsych-space-daw-top-stim-left"" ></div><div id=""jspsych-space-daw-top-stim-middle"" ></div><div id=""jspsych-space-daw-top-stim-right"" ></div><div style=""clear:both""></div><div id=""jspsych-space-daw-bottom-stim-left"" style=""background-image: url('./tasks/two-arm-new/img/green_stim_2.png')""></div><div id=""jspsych-space-daw-bottom-stim-middle"" ></div><div id=""jspsych-space-daw-bottom-stim-right"" style=""background-image: url('./tasks/two-arm-new/img/green_stim_1.png')""></div></div>","aliens_practice","12","green","1","0","","","","","","","","","","","","","",""
"html-keyboard-response","77","1482971","0.0-4.0-6.0-1.12","6102c843811b2ec9d92767ad","635ab8fc87ce89828e04cd4d","635ac4c6ac6515f784d6b491","null","","null","","","","","","","","<div style=""background-image: url('./tasks/two-arm-new/img/green_planet.png')""><div id=""jspsych-space-daw-top-stim-left"" ></div><div id=""jspsych-space-daw-top-stim-middle"" ></div><div id=""jspsych-space-daw-top-stim-right"" ></div><div style=""clear:both""></div><div id=""jspsych-space-daw-bottom-stim-left"" style=""background-image: url('./tasks/two-arm-new/img/green_stim_2.png')""></div><div id=""jspsych-space-daw-bottom-stim-middle"" ></div><div id=""jspsych-space-daw-bottom-stim-right"" class=""jspsych-space-daw-bottom-stim-border"" style=""background-image: url('./tasks/two-arm-new/img/green_stim_1.png')""></div></div>","","","","","","","","","","","","","","","","","","",""
"html-keyboard-response","78","1483984","0.0-4.0-6.0-2.12","6102c843811b2ec9d92767ad","635ab8fc87ce89828e04cd4d","635ac4c6ac6515f784d6b491","null","","null","","","","","","","","<div style=""background-image: url('./tasks/two-arm-new/img/green_planet.png')""><div id=""jspsych-space-daw-top-stim-left"" ></div><div id=""jspsych-space-daw-top-stim-middle"" ></div><div id=""jspsych-space-daw-top-stim-right"" style=""background-image: url('./tasks/two-arm-new/img/noreward.png')""></div><div style=""clear:both""></div><div id=""jspsych-space-daw-bottom-stim-left"" style=""background-image: url('./tasks/two-arm-new/img/green_stim_2.png')""></div><div id=""jspsych-space-daw-bottom-stim-middle"" ></div><div id=""jspsych-space-daw-bottom-stim-right"" class=""jspsych-space-daw-bottom-stim-border"" style=""background-image: url('./tasks/two-arm-new/img/green_stim_1_sad.png')""></div></div>","","","","","","","","","","","","","","","","","","",""
"html-keyboard-response","79","1484398","0.0-4.0-6.0-0.13","6102c843811b2ec9d92767ad","635ab8fc87ce89828e04cd4d","635ac4c6ac6515f784d6b491","413","","f","","","","","","","","<div style=""background-image: url('./tasks/two-arm-new/img/green_planet.png')""><div id=""jspsych-space-daw-top-stim-left"" ></div><div id=""jspsych-space-daw-top-stim-middle"" ></div><div id=""jspsych-space-daw-top-stim-right"" ></div><div style=""clear:both""></div><div id=""jspsych-space-daw-bottom-stim-left"" style=""background-image: url('./tasks/two-arm-new/img/green_stim_2.png')""></div><div id=""jspsych-space-daw-bottom-stim-middle"" ></div><div id=""jspsych-space-daw-bottom-stim-right"" style=""background-image: url('./tasks/two-arm-new/img/green_stim_1.png')""></div></div>","aliens_practice","13","green","2","1","","","","","","","","","","","","","",""
"html-keyboard-response","80","1484907","0.0-4.0-6.0-1.13","6102c843811b2ec9d92767ad","635ab8fc87ce89828e04cd4d","635ac4c6ac6515f784d6b491","null","","null","","","","","","","","<div style=""background-image: url('./tasks/two-arm-new/img/green_planet.png')""><div id=""jspsych-space-daw-top-stim-left"" ></div><div id=""jspsych-space-daw-top-stim-middle"" ></div><div id=""jspsych-space-daw-top-stim-right"" ></div><div style=""clear:both""></div><div id=""jspsych-space-daw-bottom-stim-left"" class=""jspsych-space-daw-bottom-stim-border"" style=""background-image: url('./tasks/two-arm-new/img/green_stim_2.png')""></div><div id=""jspsych-space-daw-bottom-stim-middle"" ></div><div id=""jspsych-space-daw-bottom-stim-right"" style=""background-image: url('./tasks/two-arm-new/img/green_stim_1.png')""></div></div>","","","","","","","","","","","","","","","","","","",""
"html-keyboard-response","81","1485923","0.0-4.0-6.0-2.13","6102c843811b2ec9d92767ad","635ab8fc87ce89828e04cd4d","635ac4c6ac6515f784d6b491","null","","null","","","","","","","","<div style=""background-image: url('./tasks/two-arm-new/img/green_planet.png')""><div id=""jspsych-space-daw-top-stim-left"" style=""background-image: url('./tasks/two-arm-new/img/treasure.png')""></div><div id=""jspsych-space-daw-top-stim-middle"" ></div><div id=""jspsych-space-daw-top-stim-right"" ></div><div style=""clear:both""></div><div id=""jspsych-space-daw-bottom-stim-left"" class=""jspsych-space-daw-bottom-stim-border"" style=""background-image: url('./tasks/two-arm-new/img/green_stim_2.png')""></div><div id=""jspsych-space-daw-bottom-stim-middle"" ></div><div id=""jspsych-space-daw-bottom-stim-right"" style=""background-image: url('./tasks/two-arm-new/img/green_stim_1.png')""></div></div>","","","","","","","","","","","","","","","","","","",""
"html-keyboard-response","82","1486485","0.0-4.0-6.0-0.14","6102c843811b2ec9d92767ad","635ab8fc87ce89828e04cd4d","635ac4c6ac6515f784d6b491","560","","f","","","","","","","","<div style=""background-image: url('./tasks/two-arm-new/img/green_planet.png')""><div id=""jspsych-space-daw-top-stim-left"" ></div><div id=""jspsych-space-daw-top-stim-middle"" ></div><div id=""jspsych-space-daw-top-stim-right"" ></div><div style=""clear:both""></div><div id=""jspsych-space-daw-bottom-stim-left"" style=""background-image: url('./tasks/two-arm-new/img/green_stim_2.png')""></div><div id=""jspsych-space-daw-bottom-stim-middle"" ></div><div id=""jspsych-space-daw-bottom-stim-right"" style=""background-image: url('./tasks/two-arm-new/img/green_stim_1.png')""></div></div>","aliens_practice","14","green","2","1","","","","","","","","","","","","","",""
"html-keyboard-response","83","1486994","0.0-4.0-6.0-1.14","6102c843811b2ec9d92767ad","635ab8fc87ce89828e04cd4d","635ac4c6ac6515f784d6b491","null","","null","","","","","","","","<div style=""background-image: url('./tasks/two-arm-new/img/green_planet.png')""><div id=""jspsych-space-daw-top-stim-left"" ></div><div id=""jspsych-space-daw-top-stim-middle"" ></div><div id=""jspsych-space-daw-top-stim-right"" ></div><div style=""clear:both""></div><div id=""jspsych-space-daw-bottom-stim-left"" class=""jspsych-space-daw-bottom-stim-border"" style=""background-image: url('./tasks/two-arm-new/img/green_stim_2.png')""></div><div id=""jspsych-space-daw-bottom-stim-middle"" ></div><div id=""jspsych-space-daw-bottom-stim-right"" style=""background-image: url('./tasks/two-arm-new/img/green_stim_1.png')""></div></div>","","","","","","","","","","","","","","","","","","",""
"html-keyboard-response","84","1487997","0.0-4.0-6.0-2.14","6102c843811b2ec9d92767ad","635ab8fc87ce89828e04cd4d","635ac4c6ac6515f784d6b491","null","","null","","","","","","","","<div style=""background-image: url('./tasks/two-arm-new/img/green_planet.png')""><div id=""jspsych-space-daw-top-stim-left"" style=""background-image: url('./tasks/two-arm-new/img/treasure.png')""></div><div id=""jspsych-space-daw-top-stim-middle"" ></div><div id=""jspsych-space-daw-top-stim-right"" ></div><div style=""clear:both""></div><div id=""jspsych-space-daw-bottom-stim-left"" class=""jspsych-space-daw-bottom-stim-border"" style=""background-image: url('./tasks/two-arm-new/img/green_stim_2.png')""></div><div id=""jspsych-space-daw-bottom-stim-middle"" ></div><div id=""jspsych-space-daw-bottom-stim-right"" style=""background-image: url('./tasks/two-arm-new/img/green_stim_1.png')""></div></div>","","","","","","","","","","","","","","","","","","",""
"html-keyboard-response","85","1488515","0.0-4.0-6.0-0.15","6102c843811b2ec9d92767ad","635ab8fc87ce89828e04cd4d","635ac4c6ac6515f784d6b491","517","","f","","","","","","","","<div style=""background-image: url('./tasks/two-arm-new/img/green_planet.png')""><div id=""jspsych-space-daw-top-stim-left"" ></div><div id=""jspsych-space-daw-top-stim-middle"" ></div><div id=""jspsych-space-daw-top-stim-right"" ></div><div style=""clear:both""></div><div id=""jspsych-space-daw-bottom-stim-left"" style=""background-image: url('./tasks/two-arm-new/img/green_stim_2.png')""></div><div id=""jspsych-space-daw-bottom-stim-middle"" ></div><div id=""jspsych-space-daw-bottom-stim-right"" style=""background-image: url('./tasks/two-arm-new/img/green_stim_1.png')""></div></div>","aliens_practice","15","green","2","1","","","","","","","","","","","","","",""
"html-keyboard-response","86","1489031","0.0-4.0-6.0-1.15","6102c843811b2ec9d92767ad","635ab8fc87ce89828e04cd4d","635ac4c6ac6515f784d6b491","null","","null","","","","","","","","<div style=""background-image: url('./tasks/two-arm-new/img/green_planet.png')""><div id=""jspsych-space-daw-top-stim-left"" ></div><div id=""jspsych-space-daw-top-stim-middle"" ></div><div id=""jspsych-space-daw-top-stim-right"" ></div><div style=""clear:both""></div><div id=""jspsych-space-daw-bottom-stim-left"" class=""jspsych-space-daw-bottom-stim-border"" style=""background-image: url('./tasks/two-arm-new/img/green_stim_2.png')""></div><div id=""jspsych-space-daw-bottom-stim-middle"" ></div><div id=""jspsych-space-daw-bottom-stim-right"" style=""background-image: url('./tasks/two-arm-new/img/green_stim_1.png')""></div></div>","","","","","","","","","","","","","","","","","","",""
"html-keyboard-response","87","1490045","0.0-4.0-6.0-2.15","6102c843811b2ec9d92767ad","635ab8fc87ce89828e04cd4d","635ac4c6ac6515f784d6b491","null","","null","","","","","","","","<div style=""background-image: url('./tasks/two-arm-new/img/green_planet.png')""><div id=""jspsych-space-daw-top-stim-left"" style=""background-image: url('./tasks/two-arm-new/img/treasure.png')""></div><div id=""jspsych-space-daw-top-stim-middle"" ></div><div id=""jspsych-space-daw-top-stim-right"" ></div><div style=""clear:both""></div><div id=""jspsych-space-daw-bottom-stim-left"" class=""jspsych-space-daw-bottom-stim-border"" style=""background-image: url('./tasks/two-arm-new/img/green_stim_2.png')""></div><div id=""jspsych-space-daw-bottom-stim-middle"" ></div><div id=""jspsych-space-daw-bottom-stim-right"" style=""background-image: url('./tasks/two-arm-new/img/green_stim_1.png')""></div></div>","","","","","","","","","","","","","","","","","","",""
"html-keyboard-response","88","1490358","0.0-4.0-6.0-0.16","6102c843811b2ec9d92767ad","635ab8fc87ce89828e04cd4d","635ac4c6ac6515f784d6b491","312","","f","","","","","","","","<div style=""background-image: url('./tasks/two-arm-new/img/green_planet.png')""><div id=""jspsych-space-daw-top-stim-left"" ></div><div id=""jspsych-space-daw-top-stim-middle"" ></div><div id=""jspsych-space-daw-top-stim-right"" ></div><div style=""clear:both""></div><div id=""jspsych-space-daw-bottom-stim-left"" style=""background-image: url('./tasks/two-arm-new/img/green_stim_2.png')""></div><div id=""jspsych-space-daw-bottom-stim-middle"" ></div><div id=""jspsych-space-daw-bottom-stim-right"" style=""background-image: url('./tasks/two-arm-new/img/green_stim_1.png')""></div></div>","aliens_practice","16","green","2","1","","","","","","","","","","","","","",""
"html-keyboard-response","89","1490873","0.0-4.0-6.0-1.16","6102c843811b2ec9d92767ad","635ab8fc87ce89828e04cd4d","635ac4c6ac6515f784d6b491","null","","null","","","","","","","","<div style=""background-image: url('./tasks/two-arm-new/img/green_planet.png')""><div id=""jspsych-space-daw-top-stim-left"" ></div><div id=""jspsych-space-daw-top-stim-middle"" ></div><div id=""jspsych-space-daw-top-stim-right"" ></div><div style=""clear:both""></div><div id=""jspsych-space-daw-bottom-stim-left"" class=""jspsych-space-daw-bottom-stim-border"" style=""background-image: url('./tasks/two-arm-new/img/green_stim_2.png')""></div><div id=""jspsych-space-daw-bottom-stim-middle"" ></div><div id=""jspsych-space-daw-bottom-stim-right"" style=""background-image: url('./tasks/two-arm-new/img/green_stim_1.png')""></div></div>","","","","","","","","","","","","","","","","","","",""
"html-keyboard-response","90","1491881","0.0-4.0-6.0-2.16","6102c843811b2ec9d92767ad","635ab8fc87ce89828e04cd4d","635ac4c6ac6515f784d6b491","null","","null","","","","","","","","<div style=""background-image: url('./tasks/two-arm-new/img/green_planet.png')""><div id=""jspsych-space-daw-top-stim-left"" style=""background-image: url('./tasks/two-arm-new/img/treasure.png')""></div><div id=""jspsych-space-daw-top-stim-middle"" ></div><div id=""jspsych-space-daw-top-stim-right"" ></div><div style=""clear:both""></div><div id=""jspsych-space-daw-bottom-stim-left"" class=""jspsych-space-daw-bottom-stim-border"" style=""background-image: url('./tasks/two-arm-new/img/green_stim_2.png')""></div><div id=""jspsych-space-daw-bottom-stim-middle"" ></div><div id=""jspsych-space-daw-bottom-stim-right"" style=""background-image: url('./tasks/two-arm-new/img/green_stim_1.png')""></div></div>","","","","","","","","","","","","","","","","","","",""
"html-keyboard-response","91","1492071","0.0-4.0-6.0-0.17","6102c843811b2ec9d92767ad","635ab8fc87ce89828e04cd4d","635ac4c6ac6515f784d6b491","189","","f","","","","","","","","<div style=""background-image: url('./tasks/two-arm-new/img/green_planet.png')""><div id=""jspsych-space-daw-top-stim-left"" ></div><div id=""jspsych-space-daw-top-stim-middle"" ></div><div id=""jspsych-space-daw-top-stim-right"" ></div><div style=""clear:both""></div><div id=""jspsych-space-daw-bottom-stim-left"" style=""background-image: url('./tasks/two-arm-new/img/green_stim_2.png')""></div><div id=""jspsych-space-daw-bottom-stim-middle"" ></div><div id=""jspsych-space-daw-bottom-stim-right"" style=""background-image: url('./tasks/two-arm-new/img/green_stim_1.png')""></div></div>","aliens_practice","17","green","2","1","","","","","","","","","","","","","",""
"html-keyboard-response","92","1492583","0.0-4.0-6.0-1.17","6102c843811b2ec9d92767ad","635ab8fc87ce89828e04cd4d","635ac4c6ac6515f784d6b491","null","","null","","","","","","","","<div style=""background-image: url('./tasks/two-arm-new/img/green_planet.png')""><div id=""jspsych-space-daw-top-stim-left"" ></div><div id=""jspsych-space-daw-top-stim-middle"" ></div><div id=""jspsych-space-daw-top-stim-right"" ></div><div style=""clear:both""></div><div id=""jspsych-space-daw-bottom-stim-left"" class=""jspsych-space-daw-bottom-stim-border"" style=""background-image: url('./tasks/two-arm-new/img/green_stim_2.png')""></div><div id=""jspsych-space-daw-bottom-stim-middle"" ></div><div id=""jspsych-space-daw-bottom-stim-right"" style=""background-image: url('./tasks/two-arm-new/img/green_stim_1.png')""></div></div>","","","","","","","","","","","","","","","","","","",""
"html-keyboard-response","93","1493601","0.0-4.0-6.0-2.17","6102c843811b2ec9d92767ad","635ab8fc87ce89828e04cd4d","635ac4c6ac6515f784d6b491","null","","null","","","","","","","","<div style=""background-image: url('./tasks/two-arm-new/img/green_planet.png')""><div id=""jspsych-space-daw-top-stim-left"" style=""background-image: url('./tasks/two-arm-new/img/treasure.png')""></div><div id=""jspsych-space-daw-top-stim-middle"" ></div><div id=""jspsych-space-daw-top-stim-right"" ></div><div style=""clear:both""></div><div id=""jspsych-space-daw-bottom-stim-left"" class=""jspsych-space-daw-bottom-stim-border"" style=""background-image: url('./tasks/two-arm-new/img/green_stim_2.png')""></div><div id=""jspsych-space-daw-bottom-stim-middle"" ></div><div id=""jspsych-space-daw-bottom-stim-right"" style=""background-image: url('./tasks/two-arm-new/img/green_stim_1.png')""></div></div>","","","","","","","","","","","","","","","","","","",""
"html-keyboard-response","94","1494244","0.0-4.0-6.0-0.18","6102c843811b2ec9d92767ad","635ab8fc87ce89828e04cd4d","635ac4c6ac6515f784d6b491","642","","j","","","","","","","","<div style=""background-image: url('./tasks/two-arm-new/img/green_planet.png')""><div id=""jspsych-space-daw-top-stim-left"" ></div><div id=""jspsych-space-daw-top-stim-middle"" ></div><div id=""jspsych-space-daw-top-stim-right"" ></div><div style=""clear:both""></div><div id=""jspsych-space-daw-bottom-stim-left"" style=""background-image: url('./tasks/two-arm-new/img/green_stim_1.png')""></div><div id=""jspsych-space-daw-bottom-stim-middle"" ></div><div id=""jspsych-space-daw-bottom-stim-right"" style=""background-image: url('./tasks/two-arm-new/img/green_stim_2.png')""></div></div>","aliens_practice","18","green","2","0","","","","","","","","","","","","","",""
"html-keyboard-response","95","1494755","0.0-4.0-6.0-1.18","6102c843811b2ec9d92767ad","635ab8fc87ce89828e04cd4d","635ac4c6ac6515f784d6b491","null","","null","","","","","","","","<div style=""background-image: url('./tasks/two-arm-new/img/green_planet.png')""><div id=""jspsych-space-daw-top-stim-left"" ></div><div id=""jspsych-space-daw-top-stim-middle"" ></div><div id=""jspsych-space-daw-top-stim-right"" ></div><div style=""clear:both""></div><div id=""jspsych-space-daw-bottom-stim-left"" style=""background-image: url('./tasks/two-arm-new/img/green_stim_1.png')""></div><div id=""jspsych-space-daw-bottom-stim-middle"" ></div><div id=""jspsych-space-daw-bottom-stim-right"" class=""jspsych-space-daw-bottom-stim-border"" style=""background-image: url('./tasks/two-arm-new/img/green_stim_2.png')""></div></div>","","","","","","","","","","","","","","","","","","",""
"html-keyboard-response","96","1495759","0.0-4.0-6.0-2.18","6102c843811b2ec9d92767ad","635ab8fc87ce89828e04cd4d","635ac4c6ac6515f784d6b491","null","","null","","","","","","","","<div style=""background-image: url('./tasks/two-arm-new/img/green_planet.png')""><div id=""jspsych-space-daw-top-stim-left"" ></div><div id=""jspsych-space-daw-top-stim-middle"" ></div><div id=""jspsych-space-daw-top-stim-right"" style=""background-image: url('./tasks/two-arm-new/img/noreward.png')""></div><div style=""clear:both""></div><div id=""jspsych-space-daw-bottom-stim-left"" style=""background-image: url('./tasks/two-arm-new/img/green_stim_1.png')""></div><div id=""jspsych-space-daw-bottom-stim-middle"" ></div><div id=""jspsych-space-daw-bottom-stim-right"" class=""jspsych-space-daw-bottom-stim-border"" style=""background-image: url('./tasks/two-arm-new/img/green_stim_2_sad.png')""></div></div>","","","","","","","","","","","","","","","","","","",""
"html-keyboard-response","97","1496312","0.0-4.0-6.0-0.19","6102c843811b2ec9d92767ad","635ab8fc87ce89828e04cd4d","635ac4c6ac6515f784d6b491","552","","j","","","","","","","","<div style=""background-image: url('./tasks/two-arm-new/img/green_planet.png')""><div id=""jspsych-space-daw-top-stim-left"" ></div><div id=""jspsych-space-daw-top-stim-middle"" ></div><div id=""jspsych-space-daw-top-stim-right"" ></div><div style=""clear:both""></div><div id=""jspsych-space-daw-bottom-stim-left"" style=""background-image: url('./tasks/two-arm-new/img/green_stim_1.png')""></div><div id=""jspsych-space-daw-bottom-stim-middle"" ></div><div id=""jspsych-space-daw-bottom-stim-right"" style=""background-image: url('./tasks/two-arm-new/img/green_stim_2.png')""></div></div>","aliens_practice","19","green","2","1","","","","","","","","","","","","","",""
"html-keyboard-response","98","1496827","0.0-4.0-6.0-1.19","6102c843811b2ec9d92767ad","635ab8fc87ce89828e04cd4d","635ac4c6ac6515f784d6b491","null","","null","","","","","","","","<div style=""background-image: url('./tasks/two-arm-new/img/green_planet.png')""><div id=""jspsych-space-daw-top-stim-left"" ></div><div id=""jspsych-space-daw-top-stim-middle"" ></div><div id=""jspsych-space-daw-top-stim-right"" ></div><div style=""clear:both""></div><div id=""jspsych-space-daw-bottom-stim-left"" style=""background-image: url('./tasks/two-arm-new/img/green_stim_1.png')""></div><div id=""jspsych-space-daw-bottom-stim-middle"" ></div><div id=""jspsych-space-daw-bottom-stim-right"" class=""jspsych-space-daw-bottom-stim-border"" style=""background-image: url('./tasks/two-arm-new/img/green_stim_2.png')""></div></div>","","","","","","","","","","","","","","","","","","",""
"html-keyboard-response","99","1497831","0.0-4.0-6.0-2.19","6102c843811b2ec9d92767ad","635ab8fc87ce89828e04cd4d","635ac4c6ac6515f784d6b491","null","","null","","","","","","","","<div style=""background-image: url('./tasks/two-arm-new/img/green_planet.png')""><div id=""jspsych-space-daw-top-stim-left"" ></div><div id=""jspsych-space-daw-top-stim-middle"" ></div><div id=""jspsych-space-daw-top-stim-right"" style=""background-image: url('./tasks/two-arm-new/img/treasure.png')""></div><div style=""clear:both""></div><div id=""jspsych-space-daw-bottom-stim-left"" style=""background-image: url('./tasks/two-arm-new/img/green_stim_1.png')""></div><div id=""jspsych-space-daw-bottom-stim-middle"" ></div><div id=""jspsych-space-daw-bottom-stim-right"" class=""jspsych-space-daw-bottom-stim-border"" style=""background-image: url('./tasks/two-arm-new/img/green_stim_2.png')""></div></div>","","","","","","","","","","","","","","","","","","",""
"instructions","100","1594957","0.0-4.0-7.0","6102c843811b2ec9d92767ad","635ab8fc87ce89828e04cd4d","635ac4c6ac6515f784d6b491","97124","","","","[{""page_index"":0,""viewing_time"":11492},{""page_index"":1,""viewing_time"":9000},{""page_index"":2,""viewing_time"":11472},{""page_index"":3,""viewing_time"":23937},{""page_index"":4,""viewing_time"":17209},{""page_index"":5,""viewing_time"":24014}]","","","","","","","","","","","","","","","","","","","","","","","","",""
"html-keyboard-response","101","1596761","0.0-4.0-8.0-0.0","6102c843811b2ec9d92767ad","635ab8fc87ce89828e04cd4d","635ac4c6ac6515f784d6b491","1802","","f","","","","","","","","<div style=""background-image: url('./tasks/two-arm-new/img/earth_planet.png')""><div id=""jspsych-space-daw-top-stim-left"" ></div><div id=""jspsych-space-daw-top-stim-middle"" ></div><div id=""jspsych-space-daw-top-stim-right"" ></div><div style=""clear:both""></div><div id=""jspsych-space-daw-bottom-stim-left"" style=""background-image: url('./tasks/two-arm-new/img/earth_stim_2.png')""></div><div id=""jspsych-space-daw-bottom-stim-middle"" ></div><div id=""jspsych-space-daw-bottom-stim-right"" style=""background-image: url('./tasks/two-arm-new/img/earth_stim_1.png')""></div></div><p>Score: 0</p>","","","","","","","","","","","","","","","","","","",""
"html-keyboard-response","102","1597277","0.0-4.0-8.0-1.0","6102c843811b2ec9d92767ad","635ab8fc87ce89828e04cd4d","635ac4c6ac6515f784d6b491","null","","null","","","","","","","","<div style=""background-image: url('./tasks/two-arm-new/img/earth_planet.png')""><div id=""jspsych-space-daw-top-stim-left"" ></div><div id=""jspsych-space-daw-top-stim-middle"" ></div><div id=""jspsych-space-daw-top-stim-right"" ></div><div style=""clear:both""></div><div id=""jspsych-space-daw-bottom-stim-left"" class=""jspsych-space-daw-bottom-stim-border"" style=""background-image: url('./tasks/two-arm-new/img/earth_stim_2.png')""></div><div id=""jspsych-space-daw-bottom-stim-middle"" ></div><div id=""jspsych-space-daw-bottom-stim-right"" style=""background-image: url('./tasks/two-arm-new/img/earth_stim_1.png')""></div></div><p>Score: 0</p>","","","","","","","","","","","","","","","","","","",""
"html-keyboard-response","103","1598958","0.0-4.0-8.0-2.0","6102c843811b2ec9d92767ad","635ab8fc87ce89828e04cd4d","635ac4c6ac6515f784d6b491","1678","","f","","","","","","","","<div style=""background-image: url('./tasks/two-arm-new/img/green_planet.png')""><div id=""jspsych-space-daw-top-stim-left"" ></div><div id=""jspsych-space-daw-top-stim-middle"" style=""background-image: url('./tasks/two-arm-new/img/earth_stim_2_deact.png')""></div><div id=""jspsych-space-daw-top-stim-right"" ></div><div style=""clear:both""></div><div id=""jspsych-space-daw-bottom-stim-left"" style=""background-image: url('./tasks/two-arm-new/img/green_stim_2.png')""></div><div id=""jspsych-space-daw-bottom-stim-middle"" ></div><div id=""jspsych-space-daw-bottom-stim-right"" style=""background-image: url('./tasks/two-arm-new/img/green_stim_1.png')""></div></div><p>Score: 0</p>","","","","","","","","","","","","","","","","","","",""
"html-keyboard-response","104","1599470","0.0-4.0-8.0-3.0","6102c843811b2ec9d92767ad","635ab8fc87ce89828e04cd4d","635ac4c6ac6515f784d6b491","null","","null","","","","","","","","<div style=""background-image: url('./tasks/two-arm-new/img/green_planet.png')""><div id=""jspsych-space-daw-top-stim-left"" ></div><div id=""jspsych-space-daw-top-stim-middle"" style=""background-image: url('./tasks/two-arm-new/img/earth_stim_2_deact.png')""></div><div id=""jspsych-space-daw-top-stim-right"" ></div><div style=""clear:both""></div><div id=""jspsych-space-daw-bottom-stim-left"" class=""jspsych-space-daw-bottom-stim-border"" style=""background-image: url('./tasks/two-arm-new/img/green_stim_2.png')""></div><div id=""jspsych-space-daw-bottom-stim-middle"" ></div><div id=""jspsych-space-daw-bottom-stim-right"" style=""background-image: url('./tasks/two-arm-new/img/green_stim_1.png')""></div></div><p>Score: 0</p>","","","","","","","","","","","","","","","","","","",""
"html-keyboard-response","105","1600479","0.0-4.0-8.0-4.0","6102c843811b2ec9d92767ad","635ab8fc87ce89828e04cd4d","635ac4c6ac6515f784d6b491","null","","null","","","","","","","","<div style=""background-image: url('./tasks/two-arm-new/img/green_planet.png')""><div id=""jspsych-space-daw-top-stim-left"" style=""background-image: url('./tasks/two-arm-new/img/treasure.png')""></div><div id=""jspsych-space-daw-top-stim-middle"" style=""background-image: url('./tasks/two-arm-new/img/earth_stim_2_deact.png')""></div><div id=""jspsych-space-daw-top-stim-right"" ></div><div style=""clear:both""></div><div id=""jspsych-space-daw-bottom-stim-left"" class=""jspsych-space-daw-bottom-stim-border"" style=""background-image: url('./tasks/two-arm-new/img/green_stim_2.png')""></div><div id=""jspsych-space-daw-bottom-stim-middle"" ></div><div id=""jspsych-space-daw-bottom-stim-right"" style=""background-image: url('./tasks/two-arm-new/img/green_stim_1.png')""></div></div><p>Score: 1</p>","two_arm_practice","1","","2","1","2","1","f","f","1802","1678","","","","","","","",""
"html-keyboard-response","106","1601702","0.0-4.0-8.0-0.1","6102c843811b2ec9d92767ad","635ab8fc87ce89828e04cd4d","635ac4c6ac6515f784d6b491","1221","","j","","","","","","","","<div style=""background-image: url('./tasks/two-arm-new/img/earth_planet.png')""><div id=""jspsych-space-daw-top-stim-left"" ></div><div id=""jspsych-space-daw-top-stim-middle"" ></div><div id=""jspsych-space-daw-top-stim-right"" ></div><div style=""clear:both""></div><div id=""jspsych-space-daw-bottom-stim-left"" style=""background-image: url('./tasks/two-arm-new/img/earth_stim_1.png')""></div><div id=""jspsych-space-daw-bottom-stim-middle"" ></div><div id=""jspsych-space-daw-bottom-stim-right"" style=""background-image: url('./tasks/two-arm-new/img/earth_stim_2.png')""></div></div><p>Score: 1</p>","","","","","","","","","","","","","","","","","","",""
"html-keyboard-response","107","1602213","0.0-4.0-8.0-1.1","6102c843811b2ec9d92767ad","635ab8fc87ce89828e04cd4d","635ac4c6ac6515f784d6b491","null","","null","","","","","","","","<div style=""background-image: url('./tasks/two-arm-new/img/earth_planet.png')""><div id=""jspsych-space-daw-top-stim-left"" ></div><div id=""jspsych-space-daw-top-stim-middle"" ></div><div id=""jspsych-space-daw-top-stim-right"" ></div><div style=""clear:both""></div><div id=""jspsych-space-daw-bottom-stim-left"" style=""background-image: url('./tasks/two-arm-new/img/earth_stim_1.png')""></div><div id=""jspsych-space-daw-bottom-stim-middle"" ></div><div id=""jspsych-space-daw-bottom-stim-right"" class=""jspsych-space-daw-bottom-stim-border"" style=""background-image: url('./tasks/two-arm-new/img/earth_stim_2.png')""></div></div><p>Score: 1</p>","","","","","","","","","","","","","","","","","","",""
"html-keyboard-response","108","1604215","0.0-4.0-8.0-2.1","6102c843811b2ec9d92767ad","635ab8fc87ce89828e04cd4d","635ac4c6ac6515f784d6b491","1999","","f","","","","","","","","<div style=""background-image: url('./tasks/two-arm-new/img/yellow_planet.png')""><div id=""jspsych-space-daw-top-stim-left"" ></div><div id=""jspsych-space-daw-top-stim-middle"" style=""background-image: url('./tasks/two-arm-new/img/earth_stim_2_deact.png')""></div><div id=""jspsych-space-daw-top-stim-right"" ></div><div style=""clear:both""></div><div id=""jspsych-space-daw-bottom-stim-left"" style=""background-image: url('./tasks/two-arm-new/img/yellow_stim_2.png')""></div><div id=""jspsych-space-daw-bottom-stim-middle"" ></div><div id=""jspsych-space-daw-bottom-stim-right"" style=""background-image: url('./tasks/two-arm-new/img/yellow_stim_1.png')""></div></div><p>Score: 1</p>","","","","","","","","","","","","","","","","","","",""
"html-keyboard-response","109","1604731","0.0-4.0-8.0-3.1","6102c843811b2ec9d92767ad","635ab8fc87ce89828e04cd4d","635ac4c6ac6515f784d6b491","null","","null","","","","","","","","<div style=""background-image: url('./tasks/two-arm-new/img/yellow_planet.png')""><div id=""jspsych-space-daw-top-stim-left"" ></div><div id=""jspsych-space-daw-top-stim-middle"" style=""background-image: url('./tasks/two-arm-new/img/earth_stim_2_deact.png')""></div><div id=""jspsych-space-daw-top-stim-right"" ></div><div style=""clear:both""></div><div id=""jspsych-space-daw-bottom-stim-left"" class=""jspsych-space-daw-bottom-stim-border"" style=""background-image: url('./tasks/two-arm-new/img/yellow_stim_2.png')""></div><div id=""jspsych-space-daw-bottom-stim-middle"" ></div><div id=""jspsych-space-daw-bottom-stim-right"" style=""background-image: url('./tasks/two-arm-new/img/yellow_stim_1.png')""></div></div><p>Score: 1</p>","","","","","","","","","","","","","","","","","","",""
"html-keyboard-response","110","1605742","0.0-4.0-8.0-4.1","6102c843811b2ec9d92767ad","635ab8fc87ce89828e04cd4d","635ac4c6ac6515f784d6b491","null","","null","","","","","","","","<div style=""background-image: url('./tasks/two-arm-new/img/yellow_planet.png')""><div id=""jspsych-space-daw-top-stim-left"" style=""background-image: url('./tasks/two-arm-new/img/treasure.png')""></div><div id=""jspsych-space-daw-top-stim-middle"" style=""background-image: url('./tasks/two-arm-new/img/earth_stim_2_deact.png')""></div><div id=""jspsych-space-daw-top-stim-right"" ></div><div style=""clear:both""></div><div id=""jspsych-space-daw-bottom-stim-left"" class=""jspsych-space-daw-bottom-stim-border"" style=""background-image: url('./tasks/two-arm-new/img/yellow_stim_2.png')""></div><div id=""jspsych-space-daw-bottom-stim-middle"" ></div><div id=""jspsych-space-daw-bottom-stim-right"" style=""background-image: url('./tasks/two-arm-new/img/yellow_stim_1.png')""></div></div><p>Score: 2</p>","two_arm_practice","2","","4","1","2","2","j","f","1221","1999","","","","","","","",""
"html-keyboard-response","111","1607039","0.0-4.0-8.0-0.2","6102c843811b2ec9d92767ad","635ab8fc87ce89828e04cd4d","635ac4c6ac6515f784d6b491","1294","","f","","","","","","","","<div style=""background-image: url('./tasks/two-arm-new/img/earth_planet.png')""><div id=""jspsych-space-daw-top-stim-left"" ></div><div id=""jspsych-space-daw-top-stim-middle"" ></div><div id=""jspsych-space-daw-top-stim-right"" ></div><div style=""clear:both""></div><div id=""jspsych-space-daw-bottom-stim-left"" style=""background-image: url('./tasks/two-arm-new/img/earth_stim_2.png')""></div><div id=""jspsych-space-daw-bottom-stim-middle"" ></div><div id=""jspsych-space-daw-bottom-stim-right"" style=""background-image: url('./tasks/two-arm-new/img/earth_stim_1.png')""></div></div><p>Score: 2</p>","","","","","","","","","","","","","","","","","","",""
"html-keyboard-response","112","1607549","0.0-4.0-8.0-1.2","6102c843811b2ec9d92767ad","635ab8fc87ce89828e04cd4d","635ac4c6ac6515f784d6b491","null","","null","","","","","","","","<div style=""background-image: url('./tasks/two-arm-new/img/earth_planet.png')""><div id=""jspsych-space-daw-top-stim-left"" ></div><div id=""jspsych-space-daw-top-stim-middle"" ></div><div id=""jspsych-space-daw-top-stim-right"" ></div><div style=""clear:both""></div><div id=""jspsych-space-daw-bottom-stim-left"" class=""jspsych-space-daw-bottom-stim-border"" style=""background-image: url('./tasks/two-arm-new/img/earth_stim_2.png')""></div><div id=""jspsych-space-daw-bottom-stim-middle"" ></div><div id=""jspsych-space-daw-bottom-stim-right"" style=""background-image: url('./tasks/two-arm-new/img/earth_stim_1.png')""></div></div><p>Score: 2</p>","","","","","","","","","","","","","","","","","","",""
"html-keyboard-response","113","1609479","0.0-4.0-8.0-2.2","6102c843811b2ec9d92767ad","635ab8fc87ce89828e04cd4d","635ac4c6ac6515f784d6b491","1929","","j","","","","","","","","<div style=""background-image: url('./tasks/two-arm-new/img/yellow_planet.png')""><div id=""jspsych-space-daw-top-stim-left"" ></div><div id=""jspsych-space-daw-top-stim-middle"" style=""background-image: url('./tasks/two-arm-new/img/earth_stim_2_deact.png')""></div><div id=""jspsych-space-daw-top-stim-right"" ></div><div style=""clear:both""></div><div id=""jspsych-space-daw-bottom-stim-left"" style=""background-image: url('./tasks/two-arm-new/img/yellow_stim_1.png')""></div><div id=""jspsych-space-daw-bottom-stim-middle"" ></div><div id=""jspsych-space-daw-bottom-stim-right"" style=""background-image: url('./tasks/two-arm-new/img/yellow_stim_2.png')""></div></div><p>Score: 2</p>","","","","","","","","","","","","","","","","","","",""
"html-keyboard-response","114","1609982","0.0-4.0-8.0-3.2","6102c843811b2ec9d92767ad","635ab8fc87ce89828e04cd4d","635ac4c6ac6515f784d6b491","null","","null","","","","","","","","<div style=""background-image: url('./tasks/two-arm-new/img/yellow_planet.png')""><div id=""jspsych-space-daw-top-stim-left"" ></div><div id=""jspsych-space-daw-top-stim-middle"" style=""background-image: url('./tasks/two-arm-new/img/earth_stim_2_deact.png')""></div><div id=""jspsych-space-daw-top-stim-right"" ></div><div style=""clear:both""></div><div id=""jspsych-space-daw-bottom-stim-left"" style=""background-image: url('./tasks/two-arm-new/img/yellow_stim_1.png')""></div><div id=""jspsych-space-daw-bottom-stim-middle"" ></div><div id=""jspsych-space-daw-bottom-stim-right"" class=""jspsych-space-daw-bottom-stim-border"" style=""background-image: url('./tasks/two-arm-new/img/yellow_stim_2.png')""></div></div><p>Score: 2</p>","","","","","","","","","","","","","","","","","","",""
"html-keyboard-response","115","1610988","0.0-4.0-8.0-4.2","6102c843811b2ec9d92767ad","635ab8fc87ce89828e04cd4d","635ac4c6ac6515f784d6b491","null","","null","","","","","","","","<div style=""background-image: url('./tasks/two-arm-new/img/yellow_planet.png')""><div id=""jspsych-space-daw-top-stim-left"" ></div><div id=""jspsych-space-daw-top-stim-middle"" style=""background-image: url('./tasks/two-arm-new/img/earth_stim_2_deact.png')""></div><div id=""jspsych-space-daw-top-stim-right"" style=""background-image: url('./tasks/two-arm-new/img/treasure.png')""></div><div style=""clear:both""></div><div id=""jspsych-space-daw-bottom-stim-left"" style=""background-image: url('./tasks/two-arm-new/img/yellow_stim_1.png')""></div><div id=""jspsych-space-daw-bottom-stim-middle"" ></div><div id=""jspsych-space-daw-bottom-stim-right"" class=""jspsych-space-daw-bottom-stim-border"" style=""background-image: url('./tasks/two-arm-new/img/yellow_stim_2.png')""></div></div><p>Score: 3</p>","two_arm_practice","3","","4","1","2","2","f","j","1294","1929","","","","","","","",""
"html-keyboard-response","116","1611829","0.0-4.0-8.0-0.3","6102c843811b2ec9d92767ad","635ab8fc87ce89828e04cd4d","635ac4c6ac6515f784d6b491","840","","f","","","","","","","","<div style=""background-image: url('./tasks/two-arm-new/img/earth_planet.png')""><div id=""jspsych-space-daw-top-stim-left"" ></div><div id=""jspsych-space-daw-top-stim-middle"" ></div><div id=""jspsych-space-daw-top-stim-right"" ></div><div style=""clear:both""></div><div id=""jspsych-space-daw-bottom-stim-left"" style=""background-image: url('./tasks/two-arm-new/img/earth_stim_1.png')""></div><div id=""jspsych-space-daw-bottom-stim-middle"" ></div><div id=""jspsych-space-daw-bottom-stim-right"" style=""background-image: url('./tasks/two-arm-new/img/earth_stim_2.png')""></div></div><p>Score: 3</p>","","","","","","","","","","","","","","","","","","",""
"html-keyboard-response","117","1612338","0.0-4.0-8.0-1.3","6102c843811b2ec9d92767ad","635ab8fc87ce89828e04cd4d","635ac4c6ac6515f784d6b491","null","","null","","","","","","","","<div style=""background-image: url('./tasks/two-arm-new/img/earth_planet.png')""><div id=""jspsych-space-daw-top-stim-left"" ></div><div id=""jspsych-space-daw-top-stim-middle"" ></div><div id=""jspsych-space-daw-top-stim-right"" ></div><div style=""clear:both""></div><div id=""jspsych-space-daw-bottom-stim-left"" class=""jspsych-space-daw-bottom-stim-border"" style=""background-image: url('./tasks/two-arm-new/img/earth_stim_1.png')""></div><div id=""jspsych-space-daw-bottom-stim-middle"" ></div><div id=""jspsych-space-daw-bottom-stim-right"" style=""background-image: url('./tasks/two-arm-new/img/earth_stim_2.png')""></div></div><p>Score: 3</p>","","","","","","","","","","","","","","","","","","",""
