"trial_type","trial_index","time_elapsed","internal_node_id","subject_id","study_id","session_id","rt","url","response","question_order","view_history","success","timeout","failed_images","failed_audio","failed_video","stimulus","block","trial_number","jar","bead","previous_bead","choice","correct","highH_score","lowH_score","state","rewarded","state1_action","state2_visited","state1_key","state2_key","state1_rt","state2_rt","two_arm_score_block1","block_num","seq_file","trial_seq_info","two_arm_score_block2","two_arm_score_total","total_bonus"
"pavlovia","0","1435","0.0-0.0","622a07840fcdc97704f929a9","63690f60c96a0a9a64b48fbc","63691f0cbe9b99135913e7db","","","","","","","","","","","","","","","","","","","","","","","","","","","","","","","","","","",""
"external-html","1","27370","0.0-1.0-0.0","622a07840fcdc97704f929a9","63690f60c96a0a9a64b48fbc","63691f0cbe9b99135913e7db","25713","new_consent.html","","","","","","","","","","","","","","","","","","","","","","","","","","","","","","","","",""
"survey-multi-choice","2","34907","0.0-1.0-1.0","622a07840fcdc97704f929a9","63690f60c96a0a9a64b48fbc","63691f0cbe9b99135913e7db","7531","","{""Q0"":""Male"",""Q1"":""White""}","[0,1]","","","","","","","","","","","","","","","","","","","","","","","","","","","","","","",""
"survey-text","3","39410","0.0-1.0-2.0","622a07840fcdc97704f929a9","63690f60c96a0a9a64b48fbc","63691f0cbe9b99135913e7db","4491","","{""Q0"":""53""}","","","","","","","","","","","","","","","","","","","","","","","","","","","","","","","",""
"instructions","4","82065","0.0-2.0","622a07840fcdc97704f929a9","63690f60c96a0a9a64b48fbc","63691f0cbe9b99135913e7db","42528","","","","[{""page_index"":0,""viewing_time"":38134},{""page_index"":1,""viewing_time"":4392}]","","","","","","","","","","","","","","","","","","","","","","","","","","","","","",""
"instructions","5","85912","0.0-3.0","622a07840fcdc97704f929a9","63690f60c96a0a9a64b48fbc","63691f0cbe9b99135913e7db","3845","","","","[{""page_index"":0,""viewing_time"":3845}]","","","","","","","","","","","","","","","","","","","","","","","","","","","","","",""
"preload","6","88842","0.0-4.0-0.0","622a07840fcdc97704f929a9","63690f60c96a0a9a64b48fbc","63691f0cbe9b99135913e7db","","","","","","true","false","[]","[]","[]","","","","","","","","","","","","","","","","","","","","","","","","",""
"instructions","7","336664","0.0-4.0-1.0","622a07840fcdc97704f929a9","63690f60c96a0a9a64b48fbc","63691f0cbe9b99135913e7db","247779","","","","[{""page_index"":0,""viewing_time"":65660},{""page_index"":1,""viewing_time"":20872},{""page_index"":2,""viewing_time"":4552},{""page_index"":3,""viewing_time"":5248},{""page_index"":4,""viewing_time"":17561},{""page_index"":3,""viewing_time"":1812},{""page_index"":4,""viewing_time"":2243},{""page_index"":5,""viewing_time"":34431},{""page_index"":6,""viewing_time"":14736},{""page_index"":7,""viewing_time"":21648},{""page_index"":8,""viewing_time"":18759},{""page_index"":9,""viewing_time"":12335},{""page_index"":10,""viewing_time"":24074},{""page_index"":11,""viewing_time"":3848}]","","","","","","","","","","","","","","","","","","","","","","","","","","","","","",""
"html-button-response","8","343064","0.0-4.0-2.0-0.0-0.0","622a07840fcdc97704f929a9","63690f60c96a0a9a64b48fbc","63691f0cbe9b99135913e7db","6397","","1","","","","","","","","<div align=center>Your goal is to predict…?<br><br></div>","","","","","","","","","","","","","","","","","","","","","","","",""
"html-button-response","9","356184","0.0-4.0-2.0-1.0-0.0","622a07840fcdc97704f929a9","63690f60c96a0a9a64b48fbc","63691f0cbe9b99135913e7db","9944","","2","","","","","","","","<div align=center>In the jar with mostly white beads, there are ___% white beads and ___% black beads?<br><br></div>","","","","","","","","","","","","","","","","","","","","","","","",""
"html-button-response","10","367484","0.0-4.0-2.0-2.0-0.0","622a07840fcdc97704f929a9","63690f60c96a0a9a64b48fbc","63691f0cbe9b99135913e7db","9439","","0","","","","","","","","<div align=center>When there is a 1% probability that the jars will switch, the next bead will most likely be drawn from the…<br><br></div>","","","","","","","","","","","","","","","","","","","","","","","",""
"html-button-response","11","373716","0.0-4.0-2.0-3.0-0.0","622a07840fcdc97704f929a9","63690f60c96a0a9a64b48fbc","63691f0cbe9b99135913e7db","4830","","1","","","","","","","","<div align=center>When there is a 99% probability that the jars will switch, the next bead will most likely be drawn from the…<br><br></div>","","","","","","","","","","","","","","","","","","","","","","","",""
"instructions","12","392484","0.0-4.0-3.0","622a07840fcdc97704f929a9","63690f60c96a0a9a64b48fbc","63691f0cbe9b99135913e7db","17511","","","","[{""page_index"":0,""viewing_time"":17511}]","","","","","","","","","","","","","","","","","","","","","","","","","","","","","",""
"html-keyboard-response","13","398809","0.0-4.0-4.0-0.0","622a07840fcdc97704f929a9","63690f60c96a0a9a64b48fbc","63691f0cbe9b99135913e7db","6323",""," ","","","","","","","","<div align=center>In this practice block, there will be a <b>10% chance</b> that the jar on the next trial will be different from the jar on the current trial.<br><br></div>","","","","","","","","","","","","","","","","","","","","","","","",""
"image-keyboard-response","14","409945","0.0-4.0-4.0-1.0-0.0","622a07840fcdc97704f929a9","63690f60c96a0a9a64b48fbc","63691f0cbe9b99135913e7db","11008","","f","","","","","","","","./tasks/HMM-beads/Images/NoChoice.png","practice","0","1","1","0","1","true","","","","","","","","","","","","","","","","",""
"image-keyboard-response","15","410258","0.0-4.0-4.0-1.0-1.0","622a07840fcdc97704f929a9","63690f60c96a0a9a64b48fbc","63691f0cbe9b99135913e7db","null","","null","","","","","","","","./tasks/HMM-beads/Images/BlackBeadChoice.png","","","","","","","","","","","","","","","","","","","","","","","",""
"image-keyboard-response","16","410777","0.0-4.0-4.0-1.0-2.0","622a07840fcdc97704f929a9","63690f60c96a0a9a64b48fbc","63691f0cbe9b99135913e7db","null","","null","","","","","","","","./tasks/HMM-beads/Images/BlackBeadChoiceCorrect.png","","","","","","","","","","","","","","","","","","","","","","","",""
"image-keyboard-response","17","416400","0.0-4.0-4.0-1.0-0.1","622a07840fcdc97704f929a9","63690f60c96a0a9a64b48fbc","63691f0cbe9b99135913e7db","5621","","f","","","","","","","","./tasks/HMM-beads/Images/NewTrialBC.png","practice","1","1","1","1","1","true","","","","","","","","","","","","","","","","",""
"image-keyboard-response","18","416711","0.0-4.0-4.0-1.0-1.1","622a07840fcdc97704f929a9","63690f60c96a0a9a64b48fbc","63691f0cbe9b99135913e7db","null","","null","","","","","","","","./tasks/HMM-beads/Images/BlackBeadChoice.png","","","","","","","","","","","","","","","","","","","","","","","",""
"image-keyboard-response","19","417222","0.0-4.0-4.0-1.0-2.1","622a07840fcdc97704f929a9","63690f60c96a0a9a64b48fbc","63691f0cbe9b99135913e7db","null","","null","","","","","","","","./tasks/HMM-beads/Images/BlackBeadChoiceCorrect.png","","","","","","","","","","","","","","","","","","","","","","","",""
"image-keyboard-response","20","426789","0.0-4.0-4.0-1.0-0.2","622a07840fcdc97704f929a9","63690f60c96a0a9a64b48fbc","63691f0cbe9b99135913e7db","9561","","f","","","","","","","","./tasks/HMM-beads/Images/NewTrialBC.png","practice","2","1","2","1","1","false","","","","","","","","","","","","","","","","",""
"image-keyboard-response","21","427093","0.0-4.0-4.0-1.0-1.2","622a07840fcdc97704f929a9","63690f60c96a0a9a64b48fbc","63691f0cbe9b99135913e7db","null","","null","","","","","","","","./tasks/HMM-beads/Images/BlackBeadChoice.png","","","","","","","","","","","","","","","","","","","","","","","",""
"image-keyboard-response","22","427612","0.0-4.0-4.0-1.0-2.2","622a07840fcdc97704f929a9","63690f60c96a0a9a64b48fbc","63691f0cbe9b99135913e7db","null","","null","","","","","","","","./tasks/HMM-beads/Images/BlackBeadChoiceWrong.png","","","","","","","","","","","","","","","","","","","","","","","",""
"image-keyboard-response","23","433636","0.0-4.0-4.0-1.0-0.3","622a07840fcdc97704f929a9","63690f60c96a0a9a64b48fbc","63691f0cbe9b99135913e7db","6023","","f","","","","","","","","./tasks/HMM-beads/Images/NewTrialWC.png","practice","3","1","1","2","1","true","","","","","","","","","","","","","","","","",""
"image-keyboard-response","24","433950","0.0-4.0-4.0-1.0-1.3","622a07840fcdc97704f929a9","63690f60c96a0a9a64b48fbc","63691f0cbe9b99135913e7db","null","","null","","","","","","","","./tasks/HMM-beads/Images/BlackBeadChoice.png","","","","","","","","","","","","","","","","","","","","","","","",""
"image-keyboard-response","25","434472","0.0-4.0-4.0-1.0-2.3","622a07840fcdc97704f929a9","63690f60c96a0a9a64b48fbc","63691f0cbe9b99135913e7db","null","","null","","","","","","","","./tasks/HMM-beads/Images/BlackBeadChoiceCorrect.png","","","","","","","","","","","","","","","","","","","","","","","",""
"image-keyboard-response","26","437660","0.0-4.0-4.0-1.0-0.4","622a07840fcdc97704f929a9","63690f60c96a0a9a64b48fbc","63691f0cbe9b99135913e7db","3186","","f","","","","","","","","./tasks/HMM-beads/Images/NewTrialBC.png","practice","4","1","2","1","1","false","","","","","","","","","","","","","","","","",""
"image-keyboard-response","27","437978","0.0-4.0-4.0-1.0-1.4","622a07840fcdc97704f929a9","63690f60c96a0a9a64b48fbc","63691f0cbe9b99135913e7db","null","","null","","","","","","","","./tasks/HMM-beads/Images/BlackBeadChoice.png","","","","","","","","","","","","","","","","","","","","","","","",""
"image-keyboard-response","28","438498","0.0-4.0-4.0-1.0-2.4","622a07840fcdc97704f929a9","63690f60c96a0a9a64b48fbc","63691f0cbe9b99135913e7db","null","","null","","","","","","","","./tasks/HMM-beads/Images/BlackBeadChoiceWrong.png","","","","","","","","","","","","","","","","","","","","","","","",""
"image-keyboard-response","29","440524","0.0-4.0-4.0-1.0-0.5","622a07840fcdc97704f929a9","63690f60c96a0a9a64b48fbc","63691f0cbe9b99135913e7db","2012","","j","","","","","","","","./tasks/HMM-beads/Images/NewTrialWC.png","practice","5","1","1","2","2","false","","","","","","","","","","","","","","","","",""
"image-keyboard-response","30","440828","0.0-4.0-4.0-1.0-1.5","622a07840fcdc97704f929a9","63690f60c96a0a9a64b48fbc","63691f0cbe9b99135913e7db","null","","null","","","","","","","","./tasks/HMM-beads/Images/WhiteBeadChoice.png","","","","","","","","","","","","","","","","","","","","","","","",""
"image-keyboard-response","31","441346","0.0-4.0-4.0-1.0-2.5","622a07840fcdc97704f929a9","63690f60c96a0a9a64b48fbc","63691f0cbe9b99135913e7db","null","","null","","","","","","","","./tasks/HMM-beads/Images/WhiteBeadChoiceWrong.png","","","","","","","","","","","","","","","","","","","","","","","",""
"image-keyboard-response","32","443540","0.0-4.0-4.0-1.0-0.6","622a07840fcdc97704f929a9","63690f60c96a0a9a64b48fbc","63691f0cbe9b99135913e7db","2192","","j","","","","","","","","./tasks/HMM-beads/Images/NewTrialBC.png","practice","6","1","2","1","2","true","","","","","","","","","","","","","","","","",""
"image-keyboard-response","33","443855","0.0-4.0-4.0-1.0-1.6","622a07840fcdc97704f929a9","63690f60c96a0a9a64b48fbc","63691f0cbe9b99135913e7db","null","","null","","","","","","","","./tasks/HMM-beads/Images/WhiteBeadChoice.png","","","","","","","","","","","","","","","","","","","","","","","",""
"image-keyboard-response","34","444374","0.0-4.0-4.0-1.0-2.6","622a07840fcdc97704f929a9","63690f60c96a0a9a64b48fbc","63691f0cbe9b99135913e7db","null","","null","","","","","","","","./tasks/HMM-beads/Images/WhiteBeadChoiceCorrect.png","","","","","","","","","","","","","","","","","","","","","","","",""
"image-keyboard-response","35","446956","0.0-4.0-4.0-1.0-0.7","622a07840fcdc97704f929a9","63690f60c96a0a9a64b48fbc","63691f0cbe9b99135913e7db","2580","","j","","","","","","","","./tasks/HMM-beads/Images/NewTrialWC.png","practice","7","1","1","2","2","false","","","","","","","","","","","","","","","","",""
"image-keyboard-response","36","447272","0.0-4.0-4.0-1.0-1.7","622a07840fcdc97704f929a9","63690f60c96a0a9a64b48fbc","63691f0cbe9b99135913e7db","null","","null","","","","","","","","./tasks/HMM-beads/Images/WhiteBeadChoice.png","","","","","","","","","","","","","","","","","","","","","","","",""
"image-keyboard-response","37","447787","0.0-4.0-4.0-1.0-2.7","622a07840fcdc97704f929a9","63690f60c96a0a9a64b48fbc","63691f0cbe9b99135913e7db","null","","null","","","","","","","","./tasks/HMM-beads/Images/WhiteBeadChoiceWrong.png","","","","","","","","","","","","","","","","","","","","","","","",""
"image-keyboard-response","38","449348","0.0-4.0-4.0-1.0-0.8","622a07840fcdc97704f929a9","63690f60c96a0a9a64b48fbc","63691f0cbe9b99135913e7db","1558","","f","","","","","","","","./tasks/HMM-beads/Images/NewTrialBC.png","practice","8","1","1","1","1","true","","","","","","","","","","","","","","","","",""
"image-keyboard-response","39","449664","0.0-4.0-4.0-1.0-1.8","622a07840fcdc97704f929a9","63690f60c96a0a9a64b48fbc","63691f0cbe9b99135913e7db","null","","null","","","","","","","","./tasks/HMM-beads/Images/BlackBeadChoice.png","","","","","","","","","","","","","","","","","","","","","","","",""
"image-keyboard-response","40","450184","0.0-4.0-4.0-1.0-2.8","622a07840fcdc97704f929a9","63690f60c96a0a9a64b48fbc","63691f0cbe9b99135913e7db","null","","null","","","","","","","","./tasks/HMM-beads/Images/BlackBeadChoiceCorrect.png","","","","","","","","","","","","","","","","","","","","","","","",""
"image-keyboard-response","41","451548","0.0-4.0-4.0-1.0-0.9","622a07840fcdc97704f929a9","63690f60c96a0a9a64b48fbc","63691f0cbe9b99135913e7db","1362","","f","","","","","","","","./tasks/HMM-beads/Images/NewTrialBC.png","practice","9","2","2","1","1","false","","","","","","","","","","","","","","","","",""
"image-keyboard-response","42","451862","0.0-4.0-4.0-1.0-1.9","622a07840fcdc97704f929a9","63690f60c96a0a9a64b48fbc","63691f0cbe9b99135913e7db","null","","null","","","","","","","","./tasks/HMM-beads/Images/BlackBeadChoice.png","","","","","","","","","","","","","","","","","","","","","","","",""
"image-keyboard-response","43","452382","0.0-4.0-4.0-1.0-2.9","622a07840fcdc97704f929a9","63690f60c96a0a9a64b48fbc","63691f0cbe9b99135913e7db","null","","null","","","","","","","","./tasks/HMM-beads/Images/BlackBeadChoiceWrong.png","","","","","","","","","","","","","","","","","","","","","","","",""
"image-keyboard-response","44","453924","0.0-4.0-4.0-1.0-0.10","622a07840fcdc97704f929a9","63690f60c96a0a9a64b48fbc","63691f0cbe9b99135913e7db","1540","","j","","","","","","","","./tasks/HMM-beads/Images/NewTrialWC.png","practice","10","2","1","2","2","false","","","","","","","","","","","","","","","","",""
"image-keyboard-response","45","454243","0.0-4.0-4.0-1.0-1.10","622a07840fcdc97704f929a9","63690f60c96a0a9a64b48fbc","63691f0cbe9b99135913e7db","null","","null","","","","","","","","./tasks/HMM-beads/Images/WhiteBeadChoice.png","","","","","","","","","","","","","","","","","","","","","","","",""
"image-keyboard-response","46","454762","0.0-4.0-4.0-1.0-2.10","622a07840fcdc97704f929a9","63690f60c96a0a9a64b48fbc","63691f0cbe9b99135913e7db","null","","null","","","","","","","","./tasks/HMM-beads/Images/WhiteBeadChoiceWrong.png","","","","","","","","","","","","","","","","","","","","","","","",""
"image-keyboard-response","47","456172","0.0-4.0-4.0-1.0-0.11","622a07840fcdc97704f929a9","63690f60c96a0a9a64b48fbc","63691f0cbe9b99135913e7db","1407","","f","","","","","","","","./tasks/HMM-beads/Images/NewTrialBC.png","practice","11","2","2","1","1","false","","","","","","","","","","","","","","","","",""
"image-keyboard-response","48","456491","0.0-4.0-4.0-1.0-1.11","622a07840fcdc97704f929a9","63690f60c96a0a9a64b48fbc","63691f0cbe9b99135913e7db","null","","null","","","","","","","","./tasks/HMM-beads/Images/BlackBeadChoice.png","","","","","","","","","","","","","","","","","","","","","","","",""
"image-keyboard-response","49","457009","0.0-4.0-4.0-1.0-2.11","622a07840fcdc97704f929a9","63690f60c96a0a9a64b48fbc","63691f0cbe9b99135913e7db","null","","null","","","","","","","","./tasks/HMM-beads/Images/BlackBeadChoiceWrong.png","","","","","","","","","","","","","","","","","","","","","","","",""
"image-keyboard-response","50","458157","0.0-4.0-4.0-1.0-0.12","622a07840fcdc97704f929a9","63690f60c96a0a9a64b48fbc","63691f0cbe9b99135913e7db","1145","","f","","","","","","","","./tasks/HMM-beads/Images/NewTrialWC.png","practice","12","2","2","2","1","false","","","","","","","","","","","","","","","","",""
"image-keyboard-response","51","458471","0.0-4.0-4.0-1.0-1.12","622a07840fcdc97704f929a9","63690f60c96a0a9a64b48fbc","63691f0cbe9b99135913e7db","null","","null","","","","","","","","./tasks/HMM-beads/Images/BlackBeadChoice.png","","","","","","","","","","","","","","","","","","","","","","","",""
"image-keyboard-response","52","458990","0.0-4.0-4.0-1.0-2.12","622a07840fcdc97704f929a9","63690f60c96a0a9a64b48fbc","63691f0cbe9b99135913e7db","null","","null","","","","","","","","./tasks/HMM-beads/Images/BlackBeadChoiceWrong.png","","","","","","","","","","","","","","","","","","","","","","","",""
"image-keyboard-response","53","460276","0.0-4.0-4.0-1.0-0.13","622a07840fcdc97704f929a9","63690f60c96a0a9a64b48fbc","63691f0cbe9b99135913e7db","1284","","j","","","","","","","","./tasks/HMM-beads/Images/NewTrialWC.png","practice","13","2","2","2","2","true","","","","","","","","","","","","","","","","",""
"image-keyboard-response","54","460585","0.0-4.0-4.0-1.0-1.13","622a07840fcdc97704f929a9","63690f60c96a0a9a64b48fbc","63691f0cbe9b99135913e7db","null","","null","","","","","","","","./tasks/HMM-beads/Images/WhiteBeadChoice.png","","","","","","","","","","","","","","","","","","","","","","","",""
"image-keyboard-response","55","461104","0.0-4.0-4.0-1.0-2.13","622a07840fcdc97704f929a9","63690f60c96a0a9a64b48fbc","63691f0cbe9b99135913e7db","null","","null","","","","","","","","./tasks/HMM-beads/Images/WhiteBeadChoiceCorrect.png","","","","","","","","","","","","","","","","","","","","","","","",""
"image-keyboard-response","56","462364","0.0-4.0-4.0-1.0-0.14","622a07840fcdc97704f929a9","63690f60c96a0a9a64b48fbc","63691f0cbe9b99135913e7db","1257","","j","","","","","","","","./tasks/HMM-beads/Images/NewTrialWC.png","practice","14","2","2","2","2","true","","","","","","","","","","","","","","","","",""
"image-keyboard-response","57","462683","0.0-4.0-4.0-1.0-1.14","622a07840fcdc97704f929a9","63690f60c96a0a9a64b48fbc","63691f0cbe9b99135913e7db","null","","null","","","","","","","","./tasks/HMM-beads/Images/WhiteBeadChoice.png","","","","","","","","","","","","","","","","","","","","","","","",""
"image-keyboard-response","58","463202","0.0-4.0-4.0-1.0-2.14","622a07840fcdc97704f929a9","63690f60c96a0a9a64b48fbc","63691f0cbe9b99135913e7db","null","","null","","","","","","","","./tasks/HMM-beads/Images/WhiteBeadChoiceCorrect.png","","","","","","","","","","","","","","","","","","","","","","","",""
"image-keyboard-response","59","464388","0.0-4.0-4.0-1.0-0.15","622a07840fcdc97704f929a9","63690f60c96a0a9a64b48fbc","63691f0cbe9b99135913e7db","1177","","j","","","","","","","","./tasks/HMM-beads/Images/NewTrialWC.png","practice","15","1","1","2","2","false","","","","","","","","","","","","","","","","",""
"image-keyboard-response","60","464698","0.0-4.0-4.0-1.0-1.15","622a07840fcdc97704f929a9","63690f60c96a0a9a64b48fbc","63691f0cbe9b99135913e7db","null","","null","","","","","","","","./tasks/HMM-beads/Images/WhiteBeadChoice.png","","","","","","","","","","","","","","","","","","","","","","","",""
"image-keyboard-response","61","465216","0.0-4.0-4.0-1.0-2.15","622a07840fcdc97704f929a9","63690f60c96a0a9a64b48fbc","63691f0cbe9b99135913e7db","null","","null","","","","","","","","./tasks/HMM-beads/Images/WhiteBeadChoiceWrong.png","","","","","","","","","","","","","","","","","","","","","","","",""
"image-keyboard-response","62","466172","0.0-4.0-4.0-1.0-0.16","622a07840fcdc97704f929a9","63690f60c96a0a9a64b48fbc","63691f0cbe9b99135913e7db","954","","f","","","","","","","","./tasks/HMM-beads/Images/NewTrialBC.png","practice","16","1","2","1","1","false","","","","","","","","","","","","","","","","",""
"image-keyboard-response","63","466479","0.0-4.0-4.0-1.0-1.16","622a07840fcdc97704f929a9","63690f60c96a0a9a64b48fbc","63691f0cbe9b99135913e7db","null","","null","","","","","","","","./tasks/HMM-beads/Images/BlackBeadChoice.png","","","","","","","","","","","","","","","","","","","","","","","",""
"image-keyboard-response","64","466998","0.0-4.0-4.0-1.0-2.16","622a07840fcdc97704f929a9","63690f60c96a0a9a64b48fbc","63691f0cbe9b99135913e7db","null","","null","","","","","","","","./tasks/HMM-beads/Images/BlackBeadChoiceWrong.png","","","","","","","","","","","","","","","","","","","","","","","",""
"image-keyboard-response","65","468892","0.0-4.0-4.0-1.0-0.17","622a07840fcdc97704f929a9","63690f60c96a0a9a64b48fbc","63691f0cbe9b99135913e7db","1893","","f","","","","","","","","./tasks/HMM-beads/Images/NewTrialWC.png","practice","17","1","1","2","1","true","","","","","","","","","","","","","","","","",""
"image-keyboard-response","66","469208","0.0-4.0-4.0-1.0-1.17","622a07840fcdc97704f929a9","63690f60c96a0a9a64b48fbc","63691f0cbe9b99135913e7db","null","","null","","","","","","","","./tasks/HMM-beads/Images/BlackBeadChoice.png","","","","","","","","","","","","","","","","","","","","","","","",""
"image-keyboard-response","67","469728","0.0-4.0-4.0-1.0-2.17","622a07840fcdc97704f929a9","63690f60c96a0a9a64b48fbc","63691f0cbe9b99135913e7db","null","","null","","","","","","","","./tasks/HMM-beads/Images/BlackBeadChoiceCorrect.png","","","","","","","","","","","","","","","","","","","","","","","",""
"image-keyboard-response","68","471572","0.0-4.0-4.0-1.0-0.18","622a07840fcdc97704f929a9","63690f60c96a0a9a64b48fbc","63691f0cbe9b99135913e7db","1842","","f","","","","","","","","./tasks/HMM-beads/Images/NewTrialBC.png","practice","18","1","1","1","1","true","","","","","","","","","","","","","","","","",""
"image-keyboard-response","69","471889","0.0-4.0-4.0-1.0-1.18","622a07840fcdc97704f929a9","63690f60c96a0a9a64b48fbc","63691f0cbe9b99135913e7db","null","","null","","","","","","","","./tasks/HMM-beads/Images/BlackBeadChoice.png","","","","","","","","","","","","","","","","","","","","","","","",""
"image-keyboard-response","70","472408","0.0-4.0-4.0-1.0-2.18","622a07840fcdc97704f929a9","63690f60c96a0a9a64b48fbc","63691f0cbe9b99135913e7db","null","","null","","","","","","","","./tasks/HMM-beads/Images/BlackBeadChoiceCorrect.png","","","","","","","","","","","","","","","","","","","","","","","",""
"image-keyboard-response","71","473940","0.0-4.0-4.0-1.0-0.19","622a07840fcdc97704f929a9","63690f60c96a0a9a64b48fbc","63691f0cbe9b99135913e7db","1530","","f","","","","","","","","./tasks/HMM-beads/Images/NewTrialBC.png","practice","19","1","1","1","1","true","","","","","","","","","","","","","","","","",""
"image-keyboard-response","72","474252","0.0-4.0-4.0-1.0-1.19","622a07840fcdc97704f929a9","63690f60c96a0a9a64b48fbc","63691f0cbe9b99135913e7db","null","","null","","","","","","","","./tasks/HMM-beads/Images/BlackBeadChoice.png","","","","","","","","","","","","","","","","","","","","","","","",""
"image-keyboard-response","73","474756","0.0-4.0-4.0-1.0-2.19","622a07840fcdc97704f929a9","63690f60c96a0a9a64b48fbc","63691f0cbe9b99135913e7db","null","","null","","","","","","","","./tasks/HMM-beads/Images/BlackBeadChoiceCorrect.png","","","","","","","","","","","","","","","","","","","","","","","",""
"html-keyboard-response","74","478388","0.0-4.0-4.0-2.0","622a07840fcdc97704f929a9","63690f60c96a0a9a64b48fbc","63691f0cbe9b99135913e7db","3630",""," ","","","","","","","","","","","","","","","","","","","","","","","","","","","","","","","",""
"instructions","75","505379","0.0-4.0-5.0","622a07840fcdc97704f929a9","63690f60c96a0a9a64b48fbc","63691f0cbe9b99135913e7db","26970","","","","[{""page_index"":0,""viewing_time"":18593},{""page_index"":1,""viewing_time"":8376}]","","","","","","","","","","","","","","","","","","","","","","","","","","","","","",""
"html-keyboard-response","76","518905","0.0-4.0-6.0-0.0","622a07840fcdc97704f929a9","63690f60c96a0a9a64b48fbc","63691f0cbe9b99135913e7db","13525",""," ","","","","","","","","<div align=center>In this block, there will be a <b>99%</b> chance that the jar on the next trial will be different from the jar on the current trial.<br><br></div>","","","","","","","","","","","","","","","","","","","","","","","",""
"image-keyboard-response","77","520808","0.0-4.0-6.0-1.0-0.0","622a07840fcdc97704f929a9","63690f60c96a0a9a64b48fbc","63691f0cbe9b99135913e7db","1901","","f","","","","","","","","./tasks/HMM-beads/Images/NoChoice.png","highH","0","1","1","0","1","true","","","","","","","","","","","","","","","","",""
"image-keyboard-response","78","521118","0.0-4.0-6.0-1.0-1.0","622a07840fcdc97704f929a9","63690f60c96a0a9a64b48fbc","63691f0cbe9b99135913e7db","null","","null","","","","","","","","./tasks/HMM-beads/Images/BlackBeadChoice.png","","","","","","","","","","","","","","","","","","","","","","","",""
"image-keyboard-response","79","521638","0.0-4.0-6.0-1.0-2.0","622a07840fcdc97704f929a9","63690f60c96a0a9a64b48fbc","63691f0cbe9b99135913e7db","null","","null","","","","","","","","./tasks/HMM-beads/Images/BlackBeadChoiceCorrect.png","","","","","","","","","","","","","","","","","","","","","","","",""
"image-keyboard-response","80","525120","0.0-4.0-6.0-1.0-0.1","622a07840fcdc97704f929a9","63690f60c96a0a9a64b48fbc","63691f0cbe9b99135913e7db","3480","","j","","","","","","","","./tasks/HMM-beads/Images/NewTrialBC.png","highH","1","2","2","1","2","true","","","","","","","","","","","","","","","","",""
"image-keyboard-response","81","525431","0.0-4.0-6.0-1.0-1.1","622a07840fcdc97704f929a9","63690f60c96a0a9a64b48fbc","63691f0cbe9b99135913e7db","null","","null","","","","","","","","./tasks/HMM-beads/Images/WhiteBeadChoice.png","","","","","","","","","","","","","","","","","","","","","","","",""
"image-keyboard-response","82","525949","0.0-4.0-6.0-1.0-2.1","622a07840fcdc97704f929a9","63690f60c96a0a9a64b48fbc","63691f0cbe9b99135913e7db","null","","null","","","","","","","","./tasks/HMM-beads/Images/WhiteBeadChoiceCorrect.png","","","","","","","","","","","","","","","","","","","","","","","",""
"image-keyboard-response","83","527008","0.0-4.0-6.0-1.0-0.2","622a07840fcdc97704f929a9","63690f60c96a0a9a64b48fbc","63691f0cbe9b99135913e7db","1057","","f","","","","","","","","./tasks/HMM-beads/Images/NewTrialWC.png","highH","2","1","1","2","1","true","","","","","","","","","","","","","","","","",""
"image-keyboard-response","84","527327","0.0-4.0-6.0-1.0-1.2","622a07840fcdc97704f929a9","63690f60c96a0a9a64b48fbc","63691f0cbe9b99135913e7db","null","","null","","","","","","","","./tasks/HMM-beads/Images/BlackBeadChoice.png","","","","","","","","","","","","","","","","","","","","","","","",""
"image-keyboard-response","85","527846","0.0-4.0-6.0-1.0-2.2","622a07840fcdc97704f929a9","63690f60c96a0a9a64b48fbc","63691f0cbe9b99135913e7db","null","","null","","","","","","","","./tasks/HMM-beads/Images/BlackBeadChoiceCorrect.png","","","","","","","","","","","","","","","","","","","","","","","",""
"image-keyboard-response","86","529064","0.0-4.0-6.0-1.0-0.3","622a07840fcdc97704f929a9","63690f60c96a0a9a64b48fbc","63691f0cbe9b99135913e7db","1216","","j","","","","","","","","./tasks/HMM-beads/Images/NewTrialBC.png","highH","3","2","2","1","2","true","","","","","","","","","","","","","","","","",""
"image-keyboard-response","87","529375","0.0-4.0-6.0-1.0-1.3","622a07840fcdc97704f929a9","63690f60c96a0a9a64b48fbc","63691f0cbe9b99135913e7db","null","","null","","","","","","","","./tasks/HMM-beads/Images/WhiteBeadChoice.png","","","","","","","","","","","","","","","","","","","","","","","",""
"image-keyboard-response","88","529894","0.0-4.0-6.0-1.0-2.3","622a07840fcdc97704f929a9","63690f60c96a0a9a64b48fbc","63691f0cbe9b99135913e7db","null","","null","","","","","","","","./tasks/HMM-beads/Images/WhiteBeadChoiceCorrect.png","","","","","","","","","","","","","","","","","","","","","","","",""
"image-keyboard-response","89","531016","0.0-4.0-6.0-1.0-0.4","622a07840fcdc97704f929a9","63690f60c96a0a9a64b48fbc","63691f0cbe9b99135913e7db","1120","","f","","","","","","","","./tasks/HMM-beads/Images/NewTrialWC.png","highH","4","1","1","2","1","true","","","","","","","","","","","","","","","","",""
"image-keyboard-response","90","531322","0.0-4.0-6.0-1.0-1.4","622a07840fcdc97704f929a9","63690f60c96a0a9a64b48fbc","63691f0cbe9b99135913e7db","null","","null","","","","","","","","./tasks/HMM-beads/Images/BlackBeadChoice.png","","","","","","","","","","","","","","","","","","","","","","","",""
"image-keyboard-response","91","531842","0.0-4.0-6.0-1.0-2.4","622a07840fcdc97704f929a9","63690f60c96a0a9a64b48fbc","63691f0cbe9b99135913e7db","null","","null","","","","","","","","./tasks/HMM-beads/Images/BlackBeadChoiceCorrect.png","","","","","","","","","","","","","","","","","","","","","","","",""
"image-keyboard-response","92","534192","0.0-4.0-6.0-1.0-0.5","622a07840fcdc97704f929a9","63690f60c96a0a9a64b48fbc","63691f0cbe9b99135913e7db","2348","","j","","","","","","","","./tasks/HMM-beads/Images/NewTrialBC.png","highH","5","2","2","1","2","true","","","","","","","","","","","","","","","","",""
"image-keyboard-response","93","534502","0.0-4.0-6.0-1.0-1.5","622a07840fcdc97704f929a9","63690f60c96a0a9a64b48fbc","63691f0cbe9b99135913e7db","null","","null","","","","","","","","./tasks/HMM-beads/Images/WhiteBeadChoice.png","","","","","","","","","","","","","","","","","","","","","","","",""
"image-keyboard-response","94","535022","0.0-4.0-6.0-1.0-2.5","622a07840fcdc97704f929a9","63690f60c96a0a9a64b48fbc","63691f0cbe9b99135913e7db","null","","null","","","","","","","","./tasks/HMM-beads/Images/WhiteBeadChoiceCorrect.png","","","","","","","","","","","","","","","","","","","","","","","",""
"image-keyboard-response","95","536032","0.0-4.0-6.0-1.0-0.6","622a07840fcdc97704f929a9","63690f60c96a0a9a64b48fbc","63691f0cbe9b99135913e7db","1008","","f","","","","","","","","./tasks/HMM-beads/Images/NewTrialWC.png","highH","6","1","1","2","1","true","","","","","","","","","","","","","","","","",""
"image-keyboard-response","96","536351","0.0-4.0-6.0-1.0-1.6","622a07840fcdc97704f929a9","63690f60c96a0a9a64b48fbc","63691f0cbe9b99135913e7db","null","","null","","","","","","","","./tasks/HMM-beads/Images/BlackBeadChoice.png","","","","","","","","","","","","","","","","","","","","","","","",""
"image-keyboard-response","97","536869","0.0-4.0-6.0-1.0-2.6","622a07840fcdc97704f929a9","63690f60c96a0a9a64b48fbc","63691f0cbe9b99135913e7db","null","","null","","","","","","","","./tasks/HMM-beads/Images/BlackBeadChoiceCorrect.png","","","","","","","","","","","","","","","","","","","","","","","",""
"image-keyboard-response","98","537816","0.0-4.0-6.0-1.0-0.7","622a07840fcdc97704f929a9","63690f60c96a0a9a64b48fbc","63691f0cbe9b99135913e7db","945","","j","","","","","","","","./tasks/HMM-beads/Images/NewTrialBC.png","highH","7","2","1","1","2","false","","","","","","","","","","","","","","","","",""
"image-keyboard-response","99","538131","0.0-4.0-6.0-1.0-1.7","622a07840fcdc97704f929a9","63690f60c96a0a9a64b48fbc","63691f0cbe9b99135913e7db","null","","null","","","","","","","","./tasks/HMM-beads/Images/WhiteBeadChoice.png","","","","","","","","","","","","","","","","","","","","","","","",""
"image-keyboard-response","100","538650","0.0-4.0-6.0-1.0-2.7","622a07840fcdc97704f929a9","63690f60c96a0a9a64b48fbc","63691f0cbe9b99135913e7db","null","","null","","","","","","","","./tasks/HMM-beads/Images/WhiteBeadChoiceWrong.png","","","","","","","","","","","","","","","","","","","","","","","",""
"image-keyboard-response","101","541784","0.0-4.0-6.0-1.0-0.8","622a07840fcdc97704f929a9","63690f60c96a0a9a64b48fbc","63691f0cbe9b99135913e7db","3132","","j","","","","","","","","./tasks/HMM-beads/Images/NewTrialBC.png","highH","8","1","1","1","2","false","","","","","","","","","","","","","","","","",""
"image-keyboard-response","102","542093","0.0-4.0-6.0-1.0-1.8","622a07840fcdc97704f929a9","63690f60c96a0a9a64b48fbc","63691f0cbe9b99135913e7db","null","","null","","","","","","","","./tasks/HMM-beads/Images/WhiteBeadChoice.png","","","","","","","","","","","","","","","","","","","","","","","",""
"image-keyboard-response","103","542613","0.0-4.0-6.0-1.0-2.8","622a07840fcdc97704f929a9","63690f60c96a0a9a64b48fbc","63691f0cbe9b99135913e7db","null","","null","","","","","","","","./tasks/HMM-beads/Images/WhiteBeadChoiceWrong.png","","","","","","","","","","","","","","","","","","","","","","","",""
"image-keyboard-response","104","543656","0.0-4.0-6.0-1.0-0.9","622a07840fcdc97704f929a9","63690f60c96a0a9a64b48fbc","63691f0cbe9b99135913e7db","1041","","f","","","","","","","","./tasks/HMM-beads/Images/NewTrialBC.png","highH","9","2","2","1","1","false","","","","","","","","","","","","","","","","",""
"image-keyboard-response","105","543974","0.0-4.0-6.0-1.0-1.9","622a07840fcdc97704f929a9","63690f60c96a0a9a64b48fbc","63691f0cbe9b99135913e7db","null","","null","","","","","","","","./tasks/HMM-beads/Images/BlackBeadChoice.png","","","","","","","","","","","","","","","","","","","","","","","",""
"image-keyboard-response","106","544484","0.0-4.0-6.0-1.0-2.9","622a07840fcdc97704f929a9","63690f60c96a0a9a64b48fbc","63691f0cbe9b99135913e7db","null","","null","","","","","","","","./tasks/HMM-beads/Images/BlackBeadChoiceWrong.png","","","","","","","","","","","","","","","","","","","","","","","",""
"image-keyboard-response","107","547472","0.0-4.0-6.0-1.0-0.10","622a07840fcdc97704f929a9","63690f60c96a0a9a64b48fbc","63691f0cbe9b99135913e7db","2986","","f","","","","","","","","./tasks/HMM-beads/Images/NewTrialWC.png","highH","10","1","1","2","1","true","","","","","","","","","","","","","","","","",""
"image-keyboard-response","108","547786","0.0-4.0-6.0-1.0-1.10","622a07840fcdc97704f929a9","63690f60c96a0a9a64b48fbc","63691f0cbe9b99135913e7db","null","","null","","","","","","","","./tasks/HMM-beads/Images/BlackBeadChoice.png","","","","","","","","","","","","","","","","","","","","","","","",""
"image-keyboard-response","109","548306","0.0-4.0-6.0-1.0-2.10","622a07840fcdc97704f929a9","63690f60c96a0a9a64b48fbc","63691f0cbe9b99135913e7db","null","","null","","","","","","","","./tasks/HMM-beads/Images/BlackBeadChoiceCorrect.png","","","","","","","","","","","","","","","","","","","","","","","",""
"image-keyboard-response","110","549392","0.0-4.0-6.0-1.0-0.11","622a07840fcdc97704f929a9","63690f60c96a0a9a64b48fbc","63691f0cbe9b99135913e7db","1084","","f","","","","","","","","./tasks/HMM-beads/Images/NewTrialBC.png","highH","11","2","2","1","1","false","","","","","","","","","","","","","","","","",""
"image-keyboard-response","111","549701","0.0-4.0-6.0-1.0-1.11","622a07840fcdc97704f929a9","63690f60c96a0a9a64b48fbc","63691f0cbe9b99135913e7db","null","","null","","","","","","","","./tasks/HMM-beads/Images/BlackBeadChoice.png","","","","","","","","","","","","","","","","","","","","","","","",""
"image-keyboard-response","112","550220","0.0-4.0-6.0-1.0-2.11","622a07840fcdc97704f929a9","63690f60c96a0a9a64b48fbc","63691f0cbe9b99135913e7db","null","","null","","","","","","","","./tasks/HMM-beads/Images/BlackBeadChoiceWrong.png","","","","","","","","","","","","","","","","","","","","","","","",""
"image-keyboard-response","113","550920","0.0-4.0-6.0-1.0-0.12","622a07840fcdc97704f929a9","63690f60c96a0a9a64b48fbc","63691f0cbe9b99135913e7db","697","","j","","","","","","","","./tasks/HMM-beads/Images/NewTrialWC.png","highH","12","1","1","2","2","false","","","","","","","","","","","","","","","","",""
"image-keyboard-response","114","551233","0.0-4.0-6.0-1.0-1.12","622a07840fcdc97704f929a9","63690f60c96a0a9a64b48fbc","63691f0cbe9b99135913e7db","null","","null","","","","","","","","./tasks/HMM-beads/Images/WhiteBeadChoice.png","","","","","","","","","","","","","","","","","","","","","","","",""
"image-keyboard-response","115","551751","0.0-4.0-6.0-1.0-2.12","622a07840fcdc97704f929a9","63690f60c96a0a9a64b48fbc","63691f0cbe9b99135913e7db","null","","null","","","","","","","","./tasks/HMM-beads/Images/WhiteBeadChoiceWrong.png","","","","","","","","","","","","","","","","","","","","","","","",""
"image-keyboard-response","116","552504","0.0-4.0-6.0-1.0-0.13","622a07840fcdc97704f929a9","63690f60c96a0a9a64b48fbc","63691f0cbe9b99135913e7db","751","","f","","","","","","","","./tasks/HMM-beads/Images/NewTrialBC.png","highH","13","2","1","1","1","true","","","","","","","","","","","","","","","","",""
"image-keyboard-response","117","552813","0.0-4.0-6.0-1.0-1.13","622a07840fcdc97704f929a9","63690f60c96a0a9a64b48fbc","63691f0cbe9b99135913e7db","null","","null","","","","","","","","./tasks/HMM-beads/Images/BlackBeadChoice.png","","","","","","","","","","","","","","","","","","","","","","","",""
"image-keyboard-response","118","553333","0.0-4.0-6.0-1.0-2.13","622a07840fcdc97704f929a9","63690f60c96a0a9a64b48fbc","63691f0cbe9b99135913e7db","null","","null","","","","","","","","./tasks/HMM-beads/Images/BlackBeadChoiceCorrect.png","","","","","","","","","","","","","","","","","","","","","","","",""
"image-keyboard-response","119","554031","0.0-4.0-6.0-1.0-0.14","622a07840fcdc97704f929a9","63690f60c96a0a9a64b48fbc","63691f0cbe9b99135913e7db","691","","j","","","","","","","","./tasks/HMM-beads/Images/NewTrialBC.png","highH","14","1","2","1","2","true","","","","","","","","","","","","","","","","",""
"image-keyboard-response","120","554345","0.0-4.0-6.0-1.0-1.14","622a07840fcdc97704f929a9","63690f60c96a0a9a64b48fbc","63691f0cbe9b99135913e7db","null","","null","","","","","","","","./tasks/HMM-beads/Images/WhiteBeadChoice.png","","","","","","","","","","","","","","","","","","","","","","","",""
"image-keyboard-response","121","554850","0.0-4.0-6.0-1.0-2.14","622a07840fcdc97704f929a9","63690f60c96a0a9a64b48fbc","63691f0cbe9b99135913e7db","null","","null","","","","","","","","./tasks/HMM-beads/Images/WhiteBeadChoiceCorrect.png","","","","","","","","","","","","","","","","","","","","","","","",""
"image-keyboard-response","122","555695","0.0-4.0-6.0-1.0-0.15","622a07840fcdc97704f929a9","63690f60c96a0a9a64b48fbc","63691f0cbe9b99135913e7db","844","","f","","","","","","","","./tasks/HMM-beads/Images/NewTrialWC.png","highH","15","2","2","2","1","false","","","","","","","","","","","","","","","","",""
"image-keyboard-response","123","556010","0.0-4.0-6.0-1.0-1.15","622a07840fcdc97704f929a9","63690f60c96a0a9a64b48fbc","63691f0cbe9b99135913e7db","null","","null","","","","","","","","./tasks/HMM-beads/Images/BlackBeadChoice.png","","","","","","","","","","","","","","","","","","","","","","","",""
"image-keyboard-response","124","556525","0.0-4.0-6.0-1.0-2.15","622a07840fcdc97704f929a9","63690f60c96a0a9a64b48fbc","63691f0cbe9b99135913e7db","null","","null","","","","","","","","./tasks/HMM-beads/Images/BlackBeadChoiceWrong.png","","","","","","","","","","","","","","","","","","","","","","","",""
"image-keyboard-response","125","557427","0.0-4.0-6.0-1.0-0.16","622a07840fcdc97704f929a9","63690f60c96a0a9a64b48fbc","63691f0cbe9b99135913e7db","900","","f","","","","","","","","./tasks/HMM-beads/Images/NewTrialWC.png","highH","16","1","1","2","1","true","","","","","","","","","","","","","","","","",""
"image-keyboard-response","126","557736","0.0-4.0-6.0-1.0-1.16","622a07840fcdc97704f929a9","63690f60c96a0a9a64b48fbc","63691f0cbe9b99135913e7db","null","","null","","","","","","","","./tasks/HMM-beads/Images/BlackBeadChoice.png","","","","","","","","","","","","","","","","","","","","","","","",""
"image-keyboard-response","127","558256","0.0-4.0-6.0-1.0-2.16","622a07840fcdc97704f929a9","63690f60c96a0a9a64b48fbc","63691f0cbe9b99135913e7db","null","","null","","","","","","","","./tasks/HMM-beads/Images/BlackBeadChoiceCorrect.png","","","","","","","","","","","","","","","","","","","","","","","",""
"image-keyboard-response","128","559091","0.0-4.0-6.0-1.0-0.17","622a07840fcdc97704f929a9","63690f60c96a0a9a64b48fbc","63691f0cbe9b99135913e7db","833","","j","","","","","","","","./tasks/HMM-beads/Images/NewTrialBC.png","highH","17","2","2","1","2","true","","","","","","","","","","","","","","","","",""
"image-keyboard-response","129","559401","0.0-4.0-6.0-1.0-1.17","622a07840fcdc97704f929a9","63690f60c96a0a9a64b48fbc","63691f0cbe9b99135913e7db","null","","null","","","","","","","","./tasks/HMM-beads/Images/WhiteBeadChoice.png","","","","","","","","","","","","","","","","","","","","","","","",""
"image-keyboard-response","130","559920","0.0-4.0-6.0-1.0-2.17","622a07840fcdc97704f929a9","63690f60c96a0a9a64b48fbc","63691f0cbe9b99135913e7db","null","","null","","","","","","","","./tasks/HMM-beads/Images/WhiteBeadChoiceCorrect.png","","","","","","","","","","","","","","","","","","","","","","","",""
"image-keyboard-response","131","560747","0.0-4.0-6.0-1.0-0.18","622a07840fcdc97704f929a9","63690f60c96a0a9a64b48fbc","63691f0cbe9b99135913e7db","788","","f","","","","","","","","./tasks/HMM-beads/Images/NewTrialWC.png","highH","18","1","2","2","1","false","","","","","","","","","","","","","","","","",""
"image-keyboard-response","132","561066","0.0-4.0-6.0-1.0-1.18","622a07840fcdc97704f929a9","63690f60c96a0a9a64b48fbc","63691f0cbe9b99135913e7db","null","","null","","","","","","","","./tasks/HMM-beads/Images/BlackBeadChoice.png","","","","","","","","","","","","","","","","","","","","","","","",""
"image-keyboard-response","133","561586","0.0-4.0-6.0-1.0-2.18","622a07840fcdc97704f929a9","63690f60c96a0a9a64b48fbc","63691f0cbe9b99135913e7db","null","","null","","","","","","","","./tasks/HMM-beads/Images/BlackBeadChoiceWrong.png","","","","","","","","","","","","","","","","","","","","","","","",""
"image-keyboard-response","134","562411","0.0-4.0-6.0-1.0-0.19","622a07840fcdc97704f929a9","63690f60c96a0a9a64b48fbc","63691f0cbe9b99135913e7db","823","","f","","","","","","","","./tasks/HMM-beads/Images/NewTrialWC.png","highH","19","2","2","2","1","false","","","","","","","","","","","","","","","","",""
"image-keyboard-response","135","562730","0.0-4.0-6.0-1.0-1.19","622a07840fcdc97704f929a9","63690f60c96a0a9a64b48fbc","63691f0cbe9b99135913e7db","null","","null","","","","","","","","./tasks/HMM-beads/Images/BlackBeadChoice.png","","","","","","","","","","","","","","","","","","","","","","","",""
"image-keyboard-response","136","563249","0.0-4.0-6.0-1.0-2.19","622a07840fcdc97704f929a9","63690f60c96a0a9a64b48fbc","63691f0cbe9b99135913e7db","null","","null","","","","","","","","./tasks/HMM-beads/Images/BlackBeadChoiceWrong.png","","","","","","","","","","","","","","","","","","","","","","","",""
"image-keyboard-response","137","564067","0.0-4.0-6.0-1.0-0.20","622a07840fcdc97704f929a9","63690f60c96a0a9a64b48fbc","63691f0cbe9b99135913e7db","816","","f","","","","","","","","./tasks/HMM-beads/Images/NewTrialWC.png","highH","20","1","1","2","1","true","","","","","","","","","","","","","","","","",""
"image-keyboard-response","138","564378","0.0-4.0-6.0-1.0-1.20","622a07840fcdc97704f929a9","63690f60c96a0a9a64b48fbc","63691f0cbe9b99135913e7db","null","","null","","","","","","","","./tasks/HMM-beads/Images/BlackBeadChoice.png","","","","","","","","","","","","","","","","","","","","","","","",""
"image-keyboard-response","139","564897","0.0-4.0-6.0-1.0-2.20","622a07840fcdc97704f929a9","63690f60c96a0a9a64b48fbc","63691f0cbe9b99135913e7db","null","","null","","","","","","","","./tasks/HMM-beads/Images/BlackBeadChoiceCorrect.png","","","","","","","","","","","","","","","","","","","","","","","",""
"image-keyboard-response","140","565811","0.0-4.0-6.0-1.0-0.21","622a07840fcdc97704f929a9","63690f60c96a0a9a64b48fbc","63691f0cbe9b99135913e7db","912","","j","","","","","","","","./tasks/HMM-beads/Images/NewTrialBC.png","highH","21","2","1","1","2","false","","","","","","","","","","","","","","","","",""
"image-keyboard-response","141","566126","0.0-4.0-6.0-1.0-1.21","622a07840fcdc97704f929a9","63690f60c96a0a9a64b48fbc","63691f0cbe9b99135913e7db","null","","null","","","","","","","","./tasks/HMM-beads/Images/WhiteBeadChoice.png","","","","","","","","","","","","","","","","","","","","","","","",""
"image-keyboard-response","142","566645","0.0-4.0-6.0-1.0-2.21","622a07840fcdc97704f929a9","63690f60c96a0a9a64b48fbc","63691f0cbe9b99135913e7db","null","","null","","","","","","","","./tasks/HMM-beads/Images/WhiteBeadChoiceWrong.png","","","","","","","","","","","","","","","","","","","","","","","",""
"image-keyboard-response","143","567387","0.0-4.0-6.0-1.0-0.22","622a07840fcdc97704f929a9","63690f60c96a0a9a64b48fbc","63691f0cbe9b99135913e7db","733","","j","","","","","","","","./tasks/HMM-beads/Images/NewTrialBC.png","highH","22","1","1","1","2","false","","","","","","","","","","","","","","","","",""
"image-keyboard-response","144","567693","0.0-4.0-6.0-1.0-1.22","622a07840fcdc97704f929a9","63690f60c96a0a9a64b48fbc","63691f0cbe9b99135913e7db","null","","null","","","","","","","","./tasks/HMM-beads/Images/WhiteBeadChoice.png","","","","","","","","","","","","","","","","","","","","","","","",""
"image-keyboard-response","145","568211","0.0-4.0-6.0-1.0-2.22","622a07840fcdc97704f929a9","63690f60c96a0a9a64b48fbc","63691f0cbe9b99135913e7db","null","","null","","","","","","","","./tasks/HMM-beads/Images/WhiteBeadChoiceWrong.png","","","","","","","","","","","","","","","","","","","","","","","",""
"image-keyboard-response","146","569043","0.0-4.0-6.0-1.0-0.23","622a07840fcdc97704f929a9","63690f60c96a0a9a64b48fbc","63691f0cbe9b99135913e7db","830","","j","","","","","","","","./tasks/HMM-beads/Images/NewTrialBC.png","highH","23","2","2","1","2","true","","","","","","","","","","","","","","","","",""
"image-keyboard-response","147","569356","0.0-4.0-6.0-1.0-1.23","622a07840fcdc97704f929a9","63690f60c96a0a9a64b48fbc","63691f0cbe9b99135913e7db","null","","null","","","","","","","","./tasks/HMM-beads/Images/WhiteBeadChoice.png","","","","","","","","","","","","","","","","","","","","","","","",""
"image-keyboard-response","148","569875","0.0-4.0-6.0-1.0-2.23","622a07840fcdc97704f929a9","63690f60c96a0a9a64b48fbc","63691f0cbe9b99135913e7db","null","","null","","","","","","","","./tasks/HMM-beads/Images/WhiteBeadChoiceCorrect.png","","","","","","","","","","","","","","","","","","","","","","","",""
"image-keyboard-response","149","570915","0.0-4.0-6.0-1.0-0.24","622a07840fcdc97704f929a9","63690f60c96a0a9a64b48fbc","63691f0cbe9b99135913e7db","1038","","f","","","","","","","","./tasks/HMM-beads/Images/NewTrialWC.png","highH","24","1","1","2","1","true","","","","","","","","","","","","","","","","",""
"image-keyboard-response","150","571221","0.0-4.0-6.0-1.0-1.24","622a07840fcdc97704f929a9","63690f60c96a0a9a64b48fbc","63691f0cbe9b99135913e7db","null","","null","","","","","","","","./tasks/HMM-beads/Images/BlackBeadChoice.png","","","","","","","","","","","","","","","","","","","","","","","",""
"image-keyboard-response","151","571739","0.0-4.0-6.0-1.0-2.24","622a07840fcdc97704f929a9","63690f60c96a0a9a64b48fbc","63691f0cbe9b99135913e7db","null","","null","","","","","","","","./tasks/HMM-beads/Images/BlackBeadChoiceCorrect.png","","","","","","","","","","","","","","","","","","","","","","","",""
"image-keyboard-response","152","572347","0.0-4.0-6.0-1.0-0.25","622a07840fcdc97704f929a9","63690f60c96a0a9a64b48fbc","63691f0cbe9b99135913e7db","606","","j","","","","","","","","./tasks/HMM-beads/Images/NewTrialBC.png","highH","25","2","1","1","2","false","","","","","","","","","","","","","","","","",""
"image-keyboard-response","153","572652","0.0-4.0-6.0-1.0-1.25","622a07840fcdc97704f929a9","63690f60c96a0a9a64b48fbc","63691f0cbe9b99135913e7db","null","","null","","","","","","","","./tasks/HMM-beads/Images/WhiteBeadChoice.png","","","","","","","","","","","","","","","","","","","","","","","",""
"image-keyboard-response","154","573171","0.0-4.0-6.0-1.0-2.25","622a07840fcdc97704f929a9","63690f60c96a0a9a64b48fbc","63691f0cbe9b99135913e7db","null","","null","","","","","","","","./tasks/HMM-beads/Images/WhiteBeadChoiceWrong.png","","","","","","","","","","","","","","","","","","","","","","","",""
"image-keyboard-response","155","573707","0.0-4.0-6.0-1.0-0.26","622a07840fcdc97704f929a9","63690f60c96a0a9a64b48fbc","63691f0cbe9b99135913e7db","534","","f","","","","","","","","./tasks/HMM-beads/Images/NewTrialBC.png","highH","26","1","1","1","1","true","","","","","","","","","","","","","","","","",""
"image-keyboard-response","156","574017","0.0-4.0-6.0-1.0-1.26","622a07840fcdc97704f929a9","63690f60c96a0a9a64b48fbc","63691f0cbe9b99135913e7db","null","","null","","","","","","","","./tasks/HMM-beads/Images/BlackBeadChoice.png","","","","","","","","","","","","","","","","","","","","","","","",""
"image-keyboard-response","157","574536","0.0-4.0-6.0-1.0-2.26","622a07840fcdc97704f929a9","63690f60c96a0a9a64b48fbc","63691f0cbe9b99135913e7db","null","","null","","","","","","","","./tasks/HMM-beads/Images/BlackBeadChoiceCorrect.png","","","","","","","","","","","","","","","","","","","","","","","",""
"image-keyboard-response","158","577771","0.0-4.0-6.0-1.0-0.27","622a07840fcdc97704f929a9","63690f60c96a0a9a64b48fbc","63691f0cbe9b99135913e7db","3233","","f","","","","","","","","./tasks/HMM-beads/Images/NewTrialBC.png","highH","27","2","2","1","1","false","","","","","","","","","","","","","","","","",""
"image-keyboard-response","159","578080","0.0-4.0-6.0-1.0-1.27","622a07840fcdc97704f929a9","63690f60c96a0a9a64b48fbc","63691f0cbe9b99135913e7db","null","","null","","","","","","","","./tasks/HMM-beads/Images/BlackBeadChoice.png","","","","","","","","","","","","","","","","","","","","","","","",""
"image-keyboard-response","160","578599","0.0-4.0-6.0-1.0-2.27","622a07840fcdc97704f929a9","63690f60c96a0a9a64b48fbc","63691f0cbe9b99135913e7db","null","","null","","","","","","","","./tasks/HMM-beads/Images/BlackBeadChoiceWrong.png","","","","","","","","","","","","","","","","","","","","","","","",""
"image-keyboard-response","161","579355","0.0-4.0-6.0-1.0-0.28","622a07840fcdc97704f929a9","63690f60c96a0a9a64b48fbc","63691f0cbe9b99135913e7db","754","","f","","","","","","","","./tasks/HMM-beads/Images/NewTrialWC.png","highH","28","2","1","2","1","true","","","","","","","","","","","","","","","","",""
"image-keyboard-response","162","579660","0.0-4.0-6.0-1.0-1.28","622a07840fcdc97704f929a9","63690f60c96a0a9a64b48fbc","63691f0cbe9b99135913e7db","null","","null","","","","","","","","./tasks/HMM-beads/Images/BlackBeadChoice.png","","","","","","","","","","","","","","","","","","","","","","","",""
"image-keyboard-response","163","580180","0.0-4.0-6.0-1.0-2.28","622a07840fcdc97704f929a9","63690f60c96a0a9a64b48fbc","63691f0cbe9b99135913e7db","null","","null","","","","","","","","./tasks/HMM-beads/Images/BlackBeadChoiceCorrect.png","","","","","","","","","","","","","","","","","","","","","","","",""
"image-keyboard-response","164","580707","0.0-4.0-6.0-1.0-0.29","622a07840fcdc97704f929a9","63690f60c96a0a9a64b48fbc","63691f0cbe9b99135913e7db","525","","j","","","","","","","","./tasks/HMM-beads/Images/NewTrialBC.png","highH","29","1","1","1","2","false","","","","","","","","","","","","","","","","",""
"image-keyboard-response","165","581025","0.0-4.0-6.0-1.0-1.29","622a07840fcdc97704f929a9","63690f60c96a0a9a64b48fbc","63691f0cbe9b99135913e7db","null","","null","","","","","","","","./tasks/HMM-beads/Images/WhiteBeadChoice.png","","","","","","","","","","","","","","","","","","","","","","","",""
"image-keyboard-response","166","581545","0.0-4.0-6.0-1.0-2.29","622a07840fcdc97704f929a9","63690f60c96a0a9a64b48fbc","63691f0cbe9b99135913e7db","null","","null","","","","","","","","./tasks/HMM-beads/Images/WhiteBeadChoiceWrong.png","","","","","","","","","","","","","","","","","","","","","","","",""
"image-keyboard-response","167","582228","0.0-4.0-6.0-1.0-0.30","622a07840fcdc97704f929a9","63690f60c96a0a9a64b48fbc","63691f0cbe9b99135913e7db","680","","j","","","","","","","","./tasks/HMM-beads/Images/NewTrialBC.png","highH","30","2","1","1","2","false","","","","","","","","","","","","","","","","",""
"image-keyboard-response","168","582540","0.0-4.0-6.0-1.0-1.30","622a07840fcdc97704f929a9","63690f60c96a0a9a64b48fbc","63691f0cbe9b99135913e7db","null","","null","","","","","","","","./tasks/HMM-beads/Images/WhiteBeadChoice.png","","","","","","","","","","","","","","","","","","","","","","","",""
"image-keyboard-response","169","583044","0.0-4.0-6.0-1.0-2.30","622a07840fcdc97704f929a9","63690f60c96a0a9a64b48fbc","63691f0cbe9b99135913e7db","null","","null","","","","","","","","./tasks/HMM-beads/Images/WhiteBeadChoiceWrong.png","","","","","","","","","","","","","","","","","","","","","","","",""
"image-keyboard-response","170","583683","0.0-4.0-6.0-1.0-0.31","622a07840fcdc97704f929a9","63690f60c96a0a9a64b48fbc","63691f0cbe9b99135913e7db","637","","j","","","","","","","","./tasks/HMM-beads/Images/NewTrialBC.png","highH","31","1","1","1","2","false","","","","","","","","","","","","","","","","",""
"image-keyboard-response","171","583988","0.0-4.0-6.0-1.0-1.31","622a07840fcdc97704f929a9","63690f60c96a0a9a64b48fbc","63691f0cbe9b99135913e7db","null","","null","","","","","","","","./tasks/HMM-beads/Images/WhiteBeadChoice.png","","","","","","","","","","","","","","","","","","","","","","","",""
"image-keyboard-response","172","584508","0.0-4.0-6.0-1.0-2.31","622a07840fcdc97704f929a9","63690f60c96a0a9a64b48fbc","63691f0cbe9b99135913e7db","null","","null","","","","","","","","./tasks/HMM-beads/Images/WhiteBeadChoiceWrong.png","","","","","","","","","","","","","","","","","","","","","","","",""
"image-keyboard-response","173","585051","0.0-4.0-6.0-1.0-0.32","622a07840fcdc97704f929a9","63690f60c96a0a9a64b48fbc","63691f0cbe9b99135913e7db","541","","j","","","","","","","","./tasks/HMM-beads/Images/NewTrialBC.png","highH","32","2","2","1","2","true","","","","","","","","","","","","","","","","",""
"image-keyboard-response","174","585371","0.0-4.0-6.0-1.0-1.32","622a07840fcdc97704f929a9","63690f60c96a0a9a64b48fbc","63691f0cbe9b99135913e7db","null","","null","","","","","","","","./tasks/HMM-beads/Images/WhiteBeadChoice.png","","","","","","","","","","","","","","","","","","","","","","","",""
"image-keyboard-response","175","585873","0.0-4.0-6.0-1.0-2.32","622a07840fcdc97704f929a9","63690f60c96a0a9a64b48fbc","63691f0cbe9b99135913e7db","null","","null","","","","","","","","./tasks/HMM-beads/Images/WhiteBeadChoiceCorrect.png","","","","","","","","","","","","","","","","","","","","","","","",""
"image-keyboard-response","176","586771","0.0-4.0-6.0-1.0-0.33","622a07840fcdc97704f929a9","63690f60c96a0a9a64b48fbc","63691f0cbe9b99135913e7db","895","","j","","","","","","","","./tasks/HMM-beads/Images/NewTrialWC.png","highH","33","1","1","2","2","false","","","","","","","","","","","","","","","","",""
"image-keyboard-response","177","587085","0.0-4.0-6.0-1.0-1.33","622a07840fcdc97704f929a9","63690f60c96a0a9a64b48fbc","63691f0cbe9b99135913e7db","null","","null","","","","","","","","./tasks/HMM-beads/Images/WhiteBeadChoice.png","","","","","","","","","","","","","","","","","","","","","","","",""
"image-keyboard-response","178","587589","0.0-4.0-6.0-1.0-2.33","622a07840fcdc97704f929a9","63690f60c96a0a9a64b48fbc","63691f0cbe9b99135913e7db","null","","null","","","","","","","","./tasks/HMM-beads/Images/WhiteBeadChoiceWrong.png","","","","","","","","","","","","","","","","","","","","","","","",""
"image-keyboard-response","179","588451","0.0-4.0-6.0-1.0-0.34","622a07840fcdc97704f929a9","63690f60c96a0a9a64b48fbc","63691f0cbe9b99135913e7db","854","","j","","","","","","","","./tasks/HMM-beads/Images/NewTrialBC.png","highH","34","2","2","1","2","true","","","","","","","","","","","","","","","","",""
"image-keyboard-response","180","588766","0.0-4.0-6.0-1.0-1.34","622a07840fcdc97704f929a9","63690f60c96a0a9a64b48fbc","63691f0cbe9b99135913e7db","null","","null","","","","","","","","./tasks/HMM-beads/Images/WhiteBeadChoice.png","","","","","","","","","","","","","","","","","","","","","","","",""
"image-keyboard-response","181","589286","0.0-4.0-6.0-1.0-2.34","622a07840fcdc97704f929a9","63690f60c96a0a9a64b48fbc","63691f0cbe9b99135913e7db","null","","null","","","","","","","","./tasks/HMM-beads/Images/WhiteBeadChoiceCorrect.png","","","","","","","","","","","","","","","","","","","","","","","",""
"image-keyboard-response","182","589827","0.0-4.0-6.0-1.0-0.35","622a07840fcdc97704f929a9","63690f60c96a0a9a64b48fbc","63691f0cbe9b99135913e7db","540","","f","","","","","","","","./tasks/HMM-beads/Images/NewTrialWC.png","highH","35","1","1","2","1","true","","","","","","","","","","","","","","","","",""
"image-keyboard-response","183","590133","0.0-4.0-6.0-1.0-1.35","622a07840fcdc97704f929a9","63690f60c96a0a9a64b48fbc","63691f0cbe9b99135913e7db","null","","null","","","","","","","","./tasks/HMM-beads/Images/BlackBeadChoice.png","","","","","","","","","","","","","","","","","","","","","","","",""
"image-keyboard-response","184","590651","0.0-4.0-6.0-1.0-2.35","622a07840fcdc97704f929a9","63690f60c96a0a9a64b48fbc","63691f0cbe9b99135913e7db","null","","null","","","","","","","","./tasks/HMM-beads/Images/BlackBeadChoiceCorrect.png","","","","","","","","","","","","","","","","","","","","","","","",""
"image-keyboard-response","185","591243","0.0-4.0-6.0-1.0-0.36","622a07840fcdc97704f929a9","63690f60c96a0a9a64b48fbc","63691f0cbe9b99135913e7db","590","","j","","","","","","","","./tasks/HMM-beads/Images/NewTrialBC.png","highH","36","2","1","1","2","false","","","","","","","","","","","","","","","","",""
"image-keyboard-response","186","591563","0.0-4.0-6.0-1.0-1.36","622a07840fcdc97704f929a9","63690f60c96a0a9a64b48fbc","63691f0cbe9b99135913e7db","null","","null","","","","","","","","./tasks/HMM-beads/Images/WhiteBeadChoice.png","","","","","","","","","","","","","","","","","","","","","","","",""
"image-keyboard-response","187","592082","0.0-4.0-6.0-1.0-2.36","622a07840fcdc97704f929a9","63690f60c96a0a9a64b48fbc","63691f0cbe9b99135913e7db","null","","null","","","","","","","","./tasks/HMM-beads/Images/WhiteBeadChoiceWrong.png","","","","","","","","","","","","","","","","","","","","","","","",""
"image-keyboard-response","188","592827","0.0-4.0-6.0-1.0-0.37","622a07840fcdc97704f929a9","63690f60c96a0a9a64b48fbc","63691f0cbe9b99135913e7db","742","","j","","","","","","","","./tasks/HMM-beads/Images/NewTrialBC.png","highH","37","1","1","1","2","false","","","","","","","","","","","","","","","","",""
"image-keyboard-response","189","593144","0.0-4.0-6.0-1.0-1.37","622a07840fcdc97704f929a9","63690f60c96a0a9a64b48fbc","63691f0cbe9b99135913e7db","null","","null","","","","","","","","./tasks/HMM-beads/Images/WhiteBeadChoice.png","","","","","","","","","","","","","","","","","","","","","","","",""
"image-keyboard-response","190","593664","0.0-4.0-6.0-1.0-2.37","622a07840fcdc97704f929a9","63690f60c96a0a9a64b48fbc","63691f0cbe9b99135913e7db","null","","null","","","","","","","","./tasks/HMM-beads/Images/WhiteBeadChoiceWrong.png","","","","","","","","","","","","","","","","","","","","","","","",""
"image-keyboard-response","191","594299","0.0-4.0-6.0-1.0-0.38","622a07840fcdc97704f929a9","63690f60c96a0a9a64b48fbc","63691f0cbe9b99135913e7db","633","","j","","","","","","","","./tasks/HMM-beads/Images/NewTrialBC.png","highH","38","2","2","1","2","true","","","","","","","","","","","","","","","","",""
"image-keyboard-response","192","594676","0.0-4.0-6.0-1.0-1.38","622a07840fcdc97704f929a9","63690f60c96a0a9a64b48fbc","63691f0cbe9b99135913e7db","null","","null","","","","","","","","./tasks/HMM-beads/Images/WhiteBeadChoice.png","","","","","","","","","","","","","","","","","","","","","","","",""
"image-keyboard-response","193","595196","0.0-4.0-6.0-1.0-2.38","622a07840fcdc97704f929a9","63690f60c96a0a9a64b48fbc","63691f0cbe9b99135913e7db","null","","null","","","","","","","","./tasks/HMM-beads/Images/WhiteBeadChoiceCorrect.png","","","","","","","","","","","","","","","","","","","","","","","",""
"image-keyboard-response","194","595851","0.0-4.0-6.0-1.0-0.39","622a07840fcdc97704f929a9","63690f60c96a0a9a64b48fbc","63691f0cbe9b99135913e7db","653","","f","","","","","","","","./tasks/HMM-beads/Images/NewTrialWC.png","highH","39","1","1","2","1","true","","","","","","","","","","","","","","","","",""
"image-keyboard-response","195","596157","0.0-4.0-6.0-1.0-1.39","622a07840fcdc97704f929a9","63690f60c96a0a9a64b48fbc","63691f0cbe9b99135913e7db","null","","null","","","","","","","","./tasks/HMM-beads/Images/BlackBeadChoice.png","","","","","","","","","","","","","","","","","","","","","","","",""
"image-keyboard-response","196","596661","0.0-4.0-6.0-1.0-2.39","622a07840fcdc97704f929a9","63690f60c96a0a9a64b48fbc","63691f0cbe9b99135913e7db","null","","null","","","","","","","","./tasks/HMM-beads/Images/BlackBeadChoiceCorrect.png","","","","","","","","","","","","","","","","","","","","","","","",""
"image-keyboard-response","197","597211","0.0-4.0-6.0-1.0-0.40","622a07840fcdc97704f929a9","63690f60c96a0a9a64b48fbc","63691f0cbe9b99135913e7db","548","","j","","","","","","","","./tasks/HMM-beads/Images/NewTrialBC.png","highH","40","2","2","1","2","true","","","","","","","","","","","","","","","","",""
"image-keyboard-response","198","597523","0.0-4.0-6.0-1.0-1.40","622a07840fcdc97704f929a9","63690f60c96a0a9a64b48fbc","63691f0cbe9b99135913e7db","null","","null","","","","","","","","./tasks/HMM-beads/Images/WhiteBeadChoice.png","","","","","","","","","","","","","","","","","","","","","","","",""
"image-keyboard-response","199","598042","0.0-4.0-6.0-1.0-2.40","622a07840fcdc97704f929a9","63690f60c96a0a9a64b48fbc","63691f0cbe9b99135913e7db","null","","null","","","","","","","","./tasks/HMM-beads/Images/WhiteBeadChoiceCorrect.png","","","","","","","","","","","","","","","","","","","","","","","",""
"image-keyboard-response","200","598683","0.0-4.0-6.0-1.0-0.41","622a07840fcdc97704f929a9","63690f60c96a0a9a64b48fbc","63691f0cbe9b99135913e7db","640","","f","","","","","","","","./tasks/HMM-beads/Images/NewTrialWC.png","highH","41","1","2","2","1","false","","","","","","","","","","","","","","","","",""
"image-keyboard-response","201","598989","0.0-4.0-6.0-1.0-1.41","622a07840fcdc97704f929a9","63690f60c96a0a9a64b48fbc","63691f0cbe9b99135913e7db","null","","null","","","","","","","","./tasks/HMM-beads/Images/BlackBeadChoice.png","","","","","","","","","","","","","","","","","","","","","","","",""
"image-keyboard-response","202","599507","0.0-4.0-6.0-1.0-2.41","622a07840fcdc97704f929a9","63690f60c96a0a9a64b48fbc","63691f0cbe9b99135913e7db","null","","null","","","","","","","","./tasks/HMM-beads/Images/BlackBeadChoiceWrong.png","","","","","","","","","","","","","","","","","","","","","","","",""
"image-keyboard-response","203","599955","0.0-4.0-6.0-1.0-0.42","622a07840fcdc97704f929a9","63690f60c96a0a9a64b48fbc","63691f0cbe9b99135913e7db","446","","f","","","","","","","","./tasks/HMM-beads/Images/NewTrialWC.png","highH","42","2","2","2","1","false","","","","","","","","","","","","","","","","",""
"image-keyboard-response","204","600269","0.0-4.0-6.0-1.0-1.42","622a07840fcdc97704f929a9","63690f60c96a0a9a64b48fbc","63691f0cbe9b99135913e7db","null","","null","","","","","","","","./tasks/HMM-beads/Images/BlackBeadChoice.png","","","","","","","","","","","","","","","","","","","","","","","",""
"image-keyboard-response","205","600773","0.0-4.0-6.0-1.0-2.42","622a07840fcdc97704f929a9","63690f60c96a0a9a64b48fbc","63691f0cbe9b99135913e7db","null","","null","","","","","","","","./tasks/HMM-beads/Images/BlackBeadChoiceWrong.png","","","","","","","","","","","","","","","","","","","","","","","",""
"image-keyboard-response","206","601371","0.0-4.0-6.0-1.0-0.43","622a07840fcdc97704f929a9","63690f60c96a0a9a64b48fbc","63691f0cbe9b99135913e7db","596","","f","","","","","","","","./tasks/HMM-beads/Images/NewTrialWC.png","highH","43","1","1","2","1","true","","","","","","","","","","","","","","","","",""
"image-keyboard-response","207","601684","0.0-4.0-6.0-1.0-1.43","622a07840fcdc97704f929a9","63690f60c96a0a9a64b48fbc","63691f0cbe9b99135913e7db","null","","null","","","","","","","","./tasks/HMM-beads/Images/BlackBeadChoice.png","","","","","","","","","","","","","","","","","","","","","","","",""
"image-keyboard-response","208","602188","0.0-4.0-6.0-1.0-2.43","622a07840fcdc97704f929a9","63690f60c96a0a9a64b48fbc","63691f0cbe9b99135913e7db","null","","null","","","","","","","","./tasks/HMM-beads/Images/BlackBeadChoiceCorrect.png","","","","","","","","","","","","","","","","","","","","","","","",""
"image-keyboard-response","209","602827","0.0-4.0-6.0-1.0-0.44","622a07840fcdc97704f929a9","63690f60c96a0a9a64b48fbc","63691f0cbe9b99135913e7db","637","","j","","","","","","","","./tasks/HMM-beads/Images/NewTrialBC.png","highH","44","2","1","1","2","false","","","","","","","","","","","","","","","","",""
"image-keyboard-response","210","603132","0.0-4.0-6.0-1.0-1.44","622a07840fcdc97704f929a9","63690f60c96a0a9a64b48fbc","63691f0cbe9b99135913e7db","null","","null","","","","","","","","./tasks/HMM-beads/Images/WhiteBeadChoice.png","","","","","","","","","","","","","","","","","","","","","","","",""
"image-keyboard-response","211","603636","0.0-4.0-6.0-1.0-2.44","622a07840fcdc97704f929a9","63690f60c96a0a9a64b48fbc","63691f0cbe9b99135913e7db","null","","null","","","","","","","","./tasks/HMM-beads/Images/WhiteBeadChoiceWrong.png","","","","","","","","","","","","","","","","","","","","","","","",""
"image-keyboard-response","212","604587","0.0-4.0-6.0-1.0-0.45","622a07840fcdc97704f929a9","63690f60c96a0a9a64b48fbc","63691f0cbe9b99135913e7db","949","","j","","","","","","","","./tasks/HMM-beads/Images/NewTrialBC.png","highH","45","1","1","1","2","false","","","","","","","","","","","","","","","","",""
"image-keyboard-response","213","604897","0.0-4.0-6.0-1.0-1.45","622a07840fcdc97704f929a9","63690f60c96a0a9a64b48fbc","63691f0cbe9b99135913e7db","null","","null","","","","","","","","./tasks/HMM-beads/Images/WhiteBeadChoice.png","","","","","","","","","","","","","","","","","","","","","","","",""
"image-keyboard-response","214","605416","0.0-4.0-6.0-1.0-2.45","622a07840fcdc97704f929a9","63690f60c96a0a9a64b48fbc","63691f0cbe9b99135913e7db","null","","null","","","","","","","","./tasks/HMM-beads/Images/WhiteBeadChoiceWrong.png","","","","","","","","","","","","","","","","","","","","","","","",""
"image-keyboard-response","215","606211","0.0-4.0-6.0-1.0-0.46","622a07840fcdc97704f929a9","63690f60c96a0a9a64b48fbc","63691f0cbe9b99135913e7db","792","","j","","","","","","","","./tasks/HMM-beads/Images/NewTrialBC.png","highH","46","2","2","1","2","true","","","","","","","","","","","","","","","","",""
"image-keyboard-response","216","606529","0.0-4.0-6.0-1.0-1.46","622a07840fcdc97704f929a9","63690f60c96a0a9a64b48fbc","63691f0cbe9b99135913e7db","null","","null","","","","","","","","./tasks/HMM-beads/Images/WhiteBeadChoice.png","","","","","","","","","","","","","","","","","","","","","","","",""
"image-keyboard-response","217","607048","0.0-4.0-6.0-1.0-2.46","622a07840fcdc97704f929a9","63690f60c96a0a9a64b48fbc","63691f0cbe9b99135913e7db","null","","null","","","","","","","","./tasks/HMM-beads/Images/WhiteBeadChoiceCorrect.png","","","","","","","","","","","","","","","","","","","","","","","",""
"image-keyboard-response","218","607850","0.0-4.0-6.0-1.0-0.47","622a07840fcdc97704f929a9","63690f60c96a0a9a64b48fbc","63691f0cbe9b99135913e7db","801","","f","","","","","","","","./tasks/HMM-beads/Images/NewTrialWC.png","highH","47","1","1","2","1","true","","","","","","","","","","","","","","","","",""
"image-keyboard-response","219","608160","0.0-4.0-6.0-1.0-1.47","622a07840fcdc97704f929a9","63690f60c96a0a9a64b48fbc","63691f0cbe9b99135913e7db","null","","null","","","","","","","","./tasks/HMM-beads/Images/BlackBeadChoice.png","","","","","","","","","","","","","","","","","","","","","","","",""
"image-keyboard-response","220","608679","0.0-4.0-6.0-1.0-2.47","622a07840fcdc97704f929a9","63690f60c96a0a9a64b48fbc","63691f0cbe9b99135913e7db","null","","null","","","","","","","","./tasks/HMM-beads/Images/BlackBeadChoiceCorrect.png","","","","","","","","","","","","","","","","","","","","","","","",""
"image-keyboard-response","221","609683","0.0-4.0-6.0-1.0-0.48","622a07840fcdc97704f929a9","63690f60c96a0a9a64b48fbc","63691f0cbe9b99135913e7db","1002","","j","","","","","","","","./tasks/HMM-beads/Images/NewTrialBC.png","highH","48","2","2","1","2","true","","","","","","","","","","","","","","","","",""
"image-keyboard-response","222","609991","0.0-4.0-6.0-1.0-1.48","622a07840fcdc97704f929a9","63690f60c96a0a9a64b48fbc","63691f0cbe9b99135913e7db","null","","null","","","","","","","","./tasks/HMM-beads/Images/WhiteBeadChoice.png","","","","","","","","","","","","","","","","","","","","","","","",""
"image-keyboard-response","223","610511","0.0-4.0-6.0-1.0-2.48","622a07840fcdc97704f929a9","63690f60c96a0a9a64b48fbc","63691f0cbe9b99135913e7db","null","","null","","","","","","","","./tasks/HMM-beads/Images/WhiteBeadChoiceCorrect.png","","","","","","","","","","","","","","","","","","","","","","","",""
"image-keyboard-response","224","611323","0.0-4.0-6.0-1.0-0.49","622a07840fcdc97704f929a9","63690f60c96a0a9a64b48fbc","63691f0cbe9b99135913e7db","810","","f","","","","","","","","./tasks/HMM-beads/Images/NewTrialWC.png","highH","49","1","1","2","1","true","","","","","","","","","","","","","","","","",""
"image-keyboard-response","225","611639","0.0-4.0-6.0-1.0-1.49","622a07840fcdc97704f929a9","63690f60c96a0a9a64b48fbc","63691f0cbe9b99135913e7db","null","","null","","","","","","","","./tasks/HMM-beads/Images/BlackBeadChoice.png","","","","","","","","","","","","","","","","","","","","","","","",""
"image-keyboard-response","226","612159","0.0-4.0-6.0-1.0-2.49","622a07840fcdc97704f929a9","63690f60c96a0a9a64b48fbc","63691f0cbe9b99135913e7db","null","","null","","","","","","","","./tasks/HMM-beads/Images/BlackBeadChoiceCorrect.png","","","","","","","","","","","","","","","","","","","","","","","",""
"image-keyboard-response","227","612723","0.0-4.0-6.0-1.0-0.50","622a07840fcdc97704f929a9","63690f60c96a0a9a64b48fbc","63691f0cbe9b99135913e7db","556","","j","","","","","","","","./tasks/HMM-beads/Images/NewTrialBC.png","highH","50","2","1","1","2","false","","","","","","","","","","","","","","","","",""
"image-keyboard-response","228","613037","0.0-4.0-6.0-1.0-1.50","622a07840fcdc97704f929a9","63690f60c96a0a9a64b48fbc","63691f0cbe9b99135913e7db","null","","null","","","","","","","","./tasks/HMM-beads/Images/WhiteBeadChoice.png","","","","","","","","","","","","","","","","","","","","","","","",""
"image-keyboard-response","229","613541","0.0-4.0-6.0-1.0-2.50","622a07840fcdc97704f929a9","63690f60c96a0a9a64b48fbc","63691f0cbe9b99135913e7db","null","","null","","","","","","","","./tasks/HMM-beads/Images/WhiteBeadChoiceWrong.png","","","","","","","","","","","","","","","","","","","","","","","",""
"image-keyboard-response","230","614722","0.0-4.0-6.0-1.0-0.51","622a07840fcdc97704f929a9","63690f60c96a0a9a64b48fbc","63691f0cbe9b99135913e7db","1180","","j","","","","","","","","./tasks/HMM-beads/Images/NewTrialBC.png","highH","51","1","1","1","2","false","","","","","","","","","","","","","","","","",""
"image-keyboard-response","231","615035","0.0-4.0-6.0-1.0-1.51","622a07840fcdc97704f929a9","63690f60c96a0a9a64b48fbc","63691f0cbe9b99135913e7db","null","","null","","","","","","","","./tasks/HMM-beads/Images/WhiteBeadChoice.png","","","","","","","","","","","","","","","","","","","","","","","",""
"image-keyboard-response","232","615554","0.0-4.0-6.0-1.0-2.51","622a07840fcdc97704f929a9","63690f60c96a0a9a64b48fbc","63691f0cbe9b99135913e7db","null","","null","","","","","","","","./tasks/HMM-beads/Images/WhiteBeadChoiceWrong.png","","","","","","","","","","","","","","","","","","","","","","","",""
"image-keyboard-response","233","616266","0.0-4.0-6.0-1.0-0.52","622a07840fcdc97704f929a9","63690f60c96a0a9a64b48fbc","63691f0cbe9b99135913e7db","710","","j","","","","","","","","./tasks/HMM-beads/Images/NewTrialBC.png","highH","52","2","2","1","2","true","","","","","","","","","","","","","","","","",""
"image-keyboard-response","234","616595","0.0-4.0-6.0-1.0-1.52","622a07840fcdc97704f929a9","63690f60c96a0a9a64b48fbc","63691f0cbe9b99135913e7db","null","","null","","","","","","","","./tasks/HMM-beads/Images/WhiteBeadChoice.png","","","","","","","","","","","","","","","","","","","","","","","",""
"image-keyboard-response","235","617114","0.0-4.0-6.0-1.0-2.52","622a07840fcdc97704f929a9","63690f60c96a0a9a64b48fbc","63691f0cbe9b99135913e7db","null","","null","","","","","","","","./tasks/HMM-beads/Images/WhiteBeadChoiceCorrect.png","","","","","","","","","","","","","","","","","","","","","","","",""
"image-keyboard-response","236","617614","0.0-4.0-6.0-1.0-0.53","622a07840fcdc97704f929a9","63690f60c96a0a9a64b48fbc","63691f0cbe9b99135913e7db","497","","f","","","","","","","","./tasks/HMM-beads/Images/NewTrialWC.png","highH","53","1","1","2","1","true","","","","","","","","","","","","","","","","",""
"image-keyboard-response","237","617928","0.0-4.0-6.0-1.0-1.53","622a07840fcdc97704f929a9","63690f60c96a0a9a64b48fbc","63691f0cbe9b99135913e7db","null","","null","","","","","","","","./tasks/HMM-beads/Images/BlackBeadChoice.png","","","","","","","","","","","","","","","","","","","","","","","",""
"image-keyboard-response","238","618445","0.0-4.0-6.0-1.0-2.53","622a07840fcdc97704f929a9","63690f60c96a0a9a64b48fbc","63691f0cbe9b99135913e7db","null","","null","","","","","","","","./tasks/HMM-beads/Images/BlackBeadChoiceCorrect.png","","","","","","","","","","","","","","","","","","","","","","","",""
"image-keyboard-response","239","618878","0.0-4.0-6.0-1.0-0.54","622a07840fcdc97704f929a9","63690f60c96a0a9a64b48fbc","63691f0cbe9b99135913e7db","431","","j","","","","","","","","./tasks/HMM-beads/Images/NewTrialBC.png","highH","54","2","2","1","2","true","","","","","","","","","","","","","","","","",""
"image-keyboard-response","240","619192","0.0-4.0-6.0-1.0-1.54","622a07840fcdc97704f929a9","63690f60c96a0a9a64b48fbc","63691f0cbe9b99135913e7db","null","","null","","","","","","","","./tasks/HMM-beads/Images/WhiteBeadChoice.png","","","","","","","","","","","","","","","","","","","","","","","",""
"image-keyboard-response","241","619711","0.0-4.0-6.0-1.0-2.54","622a07840fcdc97704f929a9","63690f60c96a0a9a64b48fbc","63691f0cbe9b99135913e7db","null","","null","","","","","","","","./tasks/HMM-beads/Images/WhiteBeadChoiceCorrect.png","","","","","","","","","","","","","","","","","","","","","","","",""
"image-keyboard-response","242","620262","0.0-4.0-6.0-1.0-0.55","622a07840fcdc97704f929a9","63690f60c96a0a9a64b48fbc","63691f0cbe9b99135913e7db","550","","f","","","","","","","","./tasks/HMM-beads/Images/NewTrialWC.png","highH","55","1","1","2","1","true","","","","","","","","","","","","","","","","",""
"image-keyboard-response","243","620574","0.0-4.0-6.0-1.0-1.55","622a07840fcdc97704f929a9","63690f60c96a0a9a64b48fbc","63691f0cbe9b99135913e7db","null","","null","","","","","","","","./tasks/HMM-beads/Images/BlackBeadChoice.png","","","","","","","","","","","","","","","","","","","","","","","",""
"image-keyboard-response","244","621092","0.0-4.0-6.0-1.0-2.55","622a07840fcdc97704f929a9","63690f60c96a0a9a64b48fbc","63691f0cbe9b99135913e7db","null","","null","","","","","","","","./tasks/HMM-beads/Images/BlackBeadChoiceCorrect.png","","","","","","","","","","","","","","","","","","","","","","","",""
"image-keyboard-response","245","621622","0.0-4.0-6.0-1.0-0.56","622a07840fcdc97704f929a9","63690f60c96a0a9a64b48fbc","63691f0cbe9b99135913e7db","527","","j","","","","","","","","./tasks/HMM-beads/Images/NewTrialBC.png","highH","56","2","2","1","2","true","","","","","","","","","","","","","","","","",""
"image-keyboard-response","246","621938","0.0-4.0-6.0-1.0-1.56","622a07840fcdc97704f929a9","63690f60c96a0a9a64b48fbc","63691f0cbe9b99135913e7db","null","","null","","","","","","","","./tasks/HMM-beads/Images/WhiteBeadChoice.png","","","","","","","","","","","","","","","","","","","","","","","",""
"image-keyboard-response","247","622458","0.0-4.0-6.0-1.0-2.56","622a07840fcdc97704f929a9","63690f60c96a0a9a64b48fbc","63691f0cbe9b99135913e7db","null","","null","","","","","","","","./tasks/HMM-beads/Images/WhiteBeadChoiceCorrect.png","","","","","","","","","","","","","","","","","","","","","","","",""
"image-keyboard-response","248","622974","0.0-4.0-6.0-1.0-0.57","622a07840fcdc97704f929a9","63690f60c96a0a9a64b48fbc","63691f0cbe9b99135913e7db","514","","f","","","","","","","","./tasks/HMM-beads/Images/NewTrialWC.png","highH","57","1","1","2","1","true","","","","","","","","","","","","","","","","",""
"image-keyboard-response","249","623287","0.0-4.0-6.0-1.0-1.57","622a07840fcdc97704f929a9","63690f60c96a0a9a64b48fbc","63691f0cbe9b99135913e7db","null","","null","","","","","","","","./tasks/HMM-beads/Images/BlackBeadChoice.png","","","","","","","","","","","","","","","","","","","","","","","",""
"image-keyboard-response","250","623806","0.0-4.0-6.0-1.0-2.57","622a07840fcdc97704f929a9","63690f60c96a0a9a64b48fbc","63691f0cbe9b99135913e7db","null","","null","","","","","","","","./tasks/HMM-beads/Images/BlackBeadChoiceCorrect.png","","","","","","","","","","","","","","","","","","","","","","","",""
"image-keyboard-response","251","624302","0.0-4.0-6.0-1.0-0.58","622a07840fcdc97704f929a9","63690f60c96a0a9a64b48fbc","63691f0cbe9b99135913e7db","494","","j","","","","","","","","./tasks/HMM-beads/Images/NewTrialBC.png","highH","58","2","2","1","2","true","","","","","","","","","","","","","","","","",""
"image-keyboard-response","252","624619","0.0-4.0-6.0-1.0-1.58","622a07840fcdc97704f929a9","63690f60c96a0a9a64b48fbc","63691f0cbe9b99135913e7db","null","","null","","","","","","","","./tasks/HMM-beads/Images/WhiteBeadChoice.png","","","","","","","","","","","","","","","","","","","","","","","",""
"image-keyboard-response","253","625138","0.0-4.0-6.0-1.0-2.58","622a07840fcdc97704f929a9","63690f60c96a0a9a64b48fbc","63691f0cbe9b99135913e7db","null","","null","","","","","","","","./tasks/HMM-beads/Images/WhiteBeadChoiceCorrect.png","","","","","","","","","","","","","","","","","","","","","","","",""
"image-keyboard-response","254","625702","0.0-4.0-6.0-1.0-0.59","622a07840fcdc97704f929a9","63690f60c96a0a9a64b48fbc","63691f0cbe9b99135913e7db","562","","f","","","","","","","","./tasks/HMM-beads/Images/NewTrialWC.png","highH","59","1","1","2","1","true","","","","","","","","","","","","","","","","",""
"image-keyboard-response","255","626017","0.0-4.0-6.0-1.0-1.59","622a07840fcdc97704f929a9","63690f60c96a0a9a64b48fbc","63691f0cbe9b99135913e7db","null","","null","","","","","","","","./tasks/HMM-beads/Images/BlackBeadChoice.png","","","","","","","","","","","","","","","","","","","","","","","",""
"image-keyboard-response","256","626536","0.0-4.0-6.0-1.0-2.59","622a07840fcdc97704f929a9","63690f60c96a0a9a64b48fbc","63691f0cbe9b99135913e7db","null","","null","","","","","","","","./tasks/HMM-beads/Images/BlackBeadChoiceCorrect.png","","","","","","","","","","","","","","","","","","","","","","","",""
"image-keyboard-response","257","627030","0.0-4.0-6.0-1.0-0.60","622a07840fcdc97704f929a9","63690f60c96a0a9a64b48fbc","63691f0cbe9b99135913e7db","492","","j","","","","","","","","./tasks/HMM-beads/Images/NewTrialBC.png","highH","60","2","2","1","2","true","","","","","","","","","","","","","","","","",""
"image-keyboard-response","258","627348","0.0-4.0-6.0-1.0-1.60","622a07840fcdc97704f929a9","63690f60c96a0a9a64b48fbc","63691f0cbe9b99135913e7db","null","","null","","","","","","","","./tasks/HMM-beads/Images/WhiteBeadChoice.png","","","","","","","","","","","","","","","","","","","","","","","",""
"image-keyboard-response","259","627868","0.0-4.0-6.0-1.0-2.60","622a07840fcdc97704f929a9","63690f60c96a0a9a64b48fbc","63691f0cbe9b99135913e7db","null","","null","","","","","","","","./tasks/HMM-beads/Images/WhiteBeadChoiceCorrect.png","","","","","","","","","","","","","","","","","","","","","","","",""
"image-keyboard-response","260","628334","0.0-4.0-6.0-1.0-0.61","622a07840fcdc97704f929a9","63690f60c96a0a9a64b48fbc","63691f0cbe9b99135913e7db","464","","f","","","","","","","","./tasks/HMM-beads/Images/NewTrialWC.png","highH","61","1","2","2","1","false","","","","","","","","","","","","","","","","",""
"image-keyboard-response","261","628647","0.0-4.0-6.0-1.0-1.61","622a07840fcdc97704f929a9","63690f60c96a0a9a64b48fbc","63691f0cbe9b99135913e7db","null","","null","","","","","","","","./tasks/HMM-beads/Images/BlackBeadChoice.png","","","","","","","","","","","","","","","","","","","","","","","",""
"image-keyboard-response","262","629166","0.0-4.0-6.0-1.0-2.61","622a07840fcdc97704f929a9","63690f60c96a0a9a64b48fbc","63691f0cbe9b99135913e7db","null","","null","","","","","","","","./tasks/HMM-beads/Images/BlackBeadChoiceWrong.png","","","","","","","","","","","","","","","","","","","","","","","",""
"image-keyboard-response","263","629758","0.0-4.0-6.0-1.0-0.62","622a07840fcdc97704f929a9","63690f60c96a0a9a64b48fbc","63691f0cbe9b99135913e7db","583","","f","","","","","","","","./tasks/HMM-beads/Images/NewTrialWC.png","highH","62","2","2","2","1","false","","","","","","","","","","","","","","","","",""
"image-keyboard-response","264","630078","0.0-4.0-6.0-1.0-1.62","622a07840fcdc97704f929a9","63690f60c96a0a9a64b48fbc","63691f0cbe9b99135913e7db","null","","null","","","","","","","","./tasks/HMM-beads/Images/BlackBeadChoice.png","","","","","","","","","","","","","","","","","","","","","","","",""
"image-keyboard-response","265","630583","0.0-4.0-6.0-1.0-2.62","622a07840fcdc97704f929a9","63690f60c96a0a9a64b48fbc","63691f0cbe9b99135913e7db","null","","null","","","","","","","","./tasks/HMM-beads/Images/BlackBeadChoiceWrong.png","","","","","","","","","","","","","","","","","","","","","","","",""
"image-keyboard-response","266","631078","0.0-4.0-6.0-1.0-0.63","622a07840fcdc97704f929a9","63690f60c96a0a9a64b48fbc","63691f0cbe9b99135913e7db","493","","f","","","","","","","","./tasks/HMM-beads/Images/NewTrialWC.png","highH","63","1","1","2","1","true","","","","","","","","","","","","","","","","",""
"image-keyboard-response","267","631394","0.0-4.0-6.0-1.0-1.63","622a07840fcdc97704f929a9","63690f60c96a0a9a64b48fbc","63691f0cbe9b99135913e7db","null","","null","","","","","","","","./tasks/HMM-beads/Images/BlackBeadChoice.png","","","","","","","","","","","","","","","","","","","","","","","",""
"image-keyboard-response","268","631913","0.0-4.0-6.0-1.0-2.63","622a07840fcdc97704f929a9","63690f60c96a0a9a64b48fbc","63691f0cbe9b99135913e7db","null","","null","","","","","","","","./tasks/HMM-beads/Images/BlackBeadChoiceCorrect.png","","","","","","","","","","","","","","","","","","","","","","","",""
"image-keyboard-response","269","632238","0.0-4.0-6.0-1.0-0.64","622a07840fcdc97704f929a9","63690f60c96a0a9a64b48fbc","63691f0cbe9b99135913e7db","323","","j","","","","","","","","./tasks/HMM-beads/Images/NewTrialBC.png","highH","64","2","2","1","2","true","","","","","","","","","","","","","","","","",""
"image-keyboard-response","270","632544","0.0-4.0-6.0-1.0-1.64","622a07840fcdc97704f929a9","63690f60c96a0a9a64b48fbc","63691f0cbe9b99135913e7db","null","","null","","","","","","","","./tasks/HMM-beads/Images/WhiteBeadChoice.png","","","","","","","","","","","","","","","","","","","","","","","",""
"image-keyboard-response","271","633061","0.0-4.0-6.0-1.0-2.64","622a07840fcdc97704f929a9","63690f60c96a0a9a64b48fbc","63691f0cbe9b99135913e7db","null","","null","","","","","","","","./tasks/HMM-beads/Images/WhiteBeadChoiceCorrect.png","","","","","","","","","","","","","","","","","","","","","","","",""
"image-keyboard-response","272","633534","0.0-4.0-6.0-1.0-0.65","622a07840fcdc97704f929a9","63690f60c96a0a9a64b48fbc","63691f0cbe9b99135913e7db","470","","f","","","","","","","","./tasks/HMM-beads/Images/NewTrialWC.png","highH","65","1","1","2","1","true","","","","","","","","","","","","","","","","",""
"image-keyboard-response","273","633841","0.0-4.0-6.0-1.0-1.65","622a07840fcdc97704f929a9","63690f60c96a0a9a64b48fbc","63691f0cbe9b99135913e7db","null","","null","","","","","","","","./tasks/HMM-beads/Images/BlackBeadChoice.png","","","","","","","","","","","","","","","","","","","","","","","",""
"image-keyboard-response","274","634360","0.0-4.0-6.0-1.0-2.65","622a07840fcdc97704f929a9","63690f60c96a0a9a64b48fbc","63691f0cbe9b99135913e7db","null","","null","","","","","","","","./tasks/HMM-beads/Images/BlackBeadChoiceCorrect.png","","","","","","","","","","","","","","","","","","","","","","","",""
"image-keyboard-response","275","634790","0.0-4.0-6.0-1.0-0.66","622a07840fcdc97704f929a9","63690f60c96a0a9a64b48fbc","63691f0cbe9b99135913e7db","422","","j","","","","","","","","./tasks/HMM-beads/Images/NewTrialBC.png","highH","66","2","2","1","2","true","","","","","","","","","","","","","","","","",""
"image-keyboard-response","276","635106","0.0-4.0-6.0-1.0-1.66","622a07840fcdc97704f929a9","63690f60c96a0a9a64b48fbc","63691f0cbe9b99135913e7db","null","","null","","","","","","","","./tasks/HMM-beads/Images/WhiteBeadChoice.png","","","","","","","","","","","","","","","","","","","","","","","",""
"image-keyboard-response","277","635625","0.0-4.0-6.0-1.0-2.66","622a07840fcdc97704f929a9","63690f60c96a0a9a64b48fbc","63691f0cbe9b99135913e7db","null","","null","","","","","","","","./tasks/HMM-beads/Images/WhiteBeadChoiceCorrect.png","","","","","","","","","","","","","","","","","","","","","","","",""
"image-keyboard-response","278","636030","0.0-4.0-6.0-1.0-0.67","622a07840fcdc97704f929a9","63690f60c96a0a9a64b48fbc","63691f0cbe9b99135913e7db","403","","f","","","","","","","","./tasks/HMM-beads/Images/NewTrialWC.png","highH","67","1","1","2","1","true","","","","","","","","","","","","","","","","",""
"image-keyboard-response","279","636340","0.0-4.0-6.0-1.0-1.67","622a07840fcdc97704f929a9","63690f60c96a0a9a64b48fbc","63691f0cbe9b99135913e7db","null","","null","","","","","","","","./tasks/HMM-beads/Images/BlackBeadChoice.png","","","","","","","","","","","","","","","","","","","","","","","",""
"image-keyboard-response","280","636857","0.0-4.0-6.0-1.0-2.67","622a07840fcdc97704f929a9","63690f60c96a0a9a64b48fbc","63691f0cbe9b99135913e7db","null","","null","","","","","","","","./tasks/HMM-beads/Images/BlackBeadChoiceCorrect.png","","","","","","","","","","","","","","","","","","","","","","","",""
"image-keyboard-response","281","637318","0.0-4.0-6.0-1.0-0.68","622a07840fcdc97704f929a9","63690f60c96a0a9a64b48fbc","63691f0cbe9b99135913e7db","459","","j","","","","","","","","./tasks/HMM-beads/Images/NewTrialBC.png","highH","68","2","2","1","2","true","","","","","","","","","","","","","","","","",""
"image-keyboard-response","282","637636","0.0-4.0-6.0-1.0-1.68","622a07840fcdc97704f929a9","63690f60c96a0a9a64b48fbc","63691f0cbe9b99135913e7db","null","","null","","","","","","","","./tasks/HMM-beads/Images/WhiteBeadChoice.png","","","","","","","","","","","","","","","","","","","","","","","",""
"image-keyboard-response","283","638156","0.0-4.0-6.0-1.0-2.68","622a07840fcdc97704f929a9","63690f60c96a0a9a64b48fbc","63691f0cbe9b99135913e7db","null","","null","","","","","","","","./tasks/HMM-beads/Images/WhiteBeadChoiceCorrect.png","","","","","","","","","","","","","","","","","","","","","","","",""
"image-keyboard-response","284","638654","0.0-4.0-6.0-1.0-0.69","622a07840fcdc97704f929a9","63690f60c96a0a9a64b48fbc","63691f0cbe9b99135913e7db","496","","f","","","","","","","","./tasks/HMM-beads/Images/NewTrialWC.png","highH","69","1","2","2","1","false","","","","","","","","","","","","","","","","",""
"image-keyboard-response","285","638969","0.0-4.0-6.0-1.0-1.69","622a07840fcdc97704f929a9","63690f60c96a0a9a64b48fbc","63691f0cbe9b99135913e7db","null","","null","","","","","","","","./tasks/HMM-beads/Images/BlackBeadChoice.png","","","","","","","","","","","","","","","","","","","","","","","",""
"image-keyboard-response","286","639488","0.0-4.0-6.0-1.0-2.69","622a07840fcdc97704f929a9","63690f60c96a0a9a64b48fbc","63691f0cbe9b99135913e7db","null","","null","","","","","","","","./tasks/HMM-beads/Images/BlackBeadChoiceWrong.png","","","","","","","","","","","","","","","","","","","","","","","",""
"image-keyboard-response","287","639918","0.0-4.0-6.0-1.0-0.70","622a07840fcdc97704f929a9","63690f60c96a0a9a64b48fbc","63691f0cbe9b99135913e7db","428","","f","","","","","","","","./tasks/HMM-beads/Images/NewTrialWC.png","highH","70","2","2","2","1","false","","","","","","","","","","","","","","","","",""
"image-keyboard-response","288","640233","0.0-4.0-6.0-1.0-1.70","622a07840fcdc97704f929a9","63690f60c96a0a9a64b48fbc","63691f0cbe9b99135913e7db","null","","null","","","","","","","","./tasks/HMM-beads/Images/BlackBeadChoice.png","","","","","","","","","","","","","","","","","","","","","","","",""
"image-keyboard-response","289","640753","0.0-4.0-6.0-1.0-2.70","622a07840fcdc97704f929a9","63690f60c96a0a9a64b48fbc","63691f0cbe9b99135913e7db","null","","null","","","","","","","","./tasks/HMM-beads/Images/BlackBeadChoiceWrong.png","","","","","","","","","","","","","","","","","","","","","","","",""
"image-keyboard-response","290","641118","0.0-4.0-6.0-1.0-0.71","622a07840fcdc97704f929a9","63690f60c96a0a9a64b48fbc","63691f0cbe9b99135913e7db","363","","f","","","","","","","","./tasks/HMM-beads/Images/NewTrialWC.png","highH","71","1","2","2","1","false","","","","","","","","","","","","","","","","",""
"image-keyboard-response","291","641432","0.0-4.0-6.0-1.0-1.71","622a07840fcdc97704f929a9","63690f60c96a0a9a64b48fbc","63691f0cbe9b99135913e7db","null","","null","","","","","","","","./tasks/HMM-beads/Images/BlackBeadChoice.png","","","","","","","","","","","","","","","","","","","","","","","",""
"image-keyboard-response","292","641949","0.0-4.0-6.0-1.0-2.71","622a07840fcdc97704f929a9","63690f60c96a0a9a64b48fbc","63691f0cbe9b99135913e7db","null","","null","","","","","","","","./tasks/HMM-beads/Images/BlackBeadChoiceWrong.png","","","","","","","","","","","","","","","","","","","","","","","",""
"image-keyboard-response","293","642317","0.0-4.0-6.0-1.0-0.72","622a07840fcdc97704f929a9","63690f60c96a0a9a64b48fbc","63691f0cbe9b99135913e7db","366","","f","","","","","","","","./tasks/HMM-beads/Images/NewTrialWC.png","highH","72","2","2","2","1","false","","","","","","","","","","","","","","","","",""
"image-keyboard-response","294","642631","0.0-4.0-6.0-1.0-1.72","622a07840fcdc97704f929a9","63690f60c96a0a9a64b48fbc","63691f0cbe9b99135913e7db","null","","null","","","","","","","","./tasks/HMM-beads/Images/BlackBeadChoice.png","","","","","","","","","","","","","","","","","","","","","","","",""
"image-keyboard-response","295","643151","0.0-4.0-6.0-1.0-2.72","622a07840fcdc97704f929a9","63690f60c96a0a9a64b48fbc","63691f0cbe9b99135913e7db","null","","null","","","","","","","","./tasks/HMM-beads/Images/BlackBeadChoiceWrong.png","","","","","","","","","","","","","","","","","","","","","","","",""
"image-keyboard-response","296","643518","0.0-4.0-6.0-1.0-0.73","622a07840fcdc97704f929a9","63690f60c96a0a9a64b48fbc","63691f0cbe9b99135913e7db","365","","f","","","","","","","","./tasks/HMM-beads/Images/NewTrialWC.png","highH","73","1","1","2","1","true","","","","","","","","","","","","","","","","",""
"image-keyboard-response","297","643831","0.0-4.0-6.0-1.0-1.73","622a07840fcdc97704f929a9","63690f60c96a0a9a64b48fbc","63691f0cbe9b99135913e7db","null","","null","","","","","","","","./tasks/HMM-beads/Images/BlackBeadChoice.png","","","","","","","","","","","","","","","","","","","","","","","",""
"image-keyboard-response","298","644349","0.0-4.0-6.0-1.0-2.73","622a07840fcdc97704f929a9","63690f60c96a0a9a64b48fbc","63691f0cbe9b99135913e7db","null","","null","","","","","","","","./tasks/HMM-beads/Images/BlackBeadChoiceCorrect.png","","","","","","","","","","","","","","","","","","","","","","","",""
"image-keyboard-response","299","644710","0.0-4.0-6.0-1.0-0.74","622a07840fcdc97704f929a9","63690f60c96a0a9a64b48fbc","63691f0cbe9b99135913e7db","359","","j","","","","","","","","./tasks/HMM-beads/Images/NewTrialBC.png","highH","74","2","2","1","2","true","","","","","","","","","","","","","","","","",""
"image-keyboard-response","300","645028","0.0-4.0-6.0-1.0-1.74","622a07840fcdc97704f929a9","63690f60c96a0a9a64b48fbc","63691f0cbe9b99135913e7db","null","","null","","","","","","","","./tasks/HMM-beads/Images/WhiteBeadChoice.png","","","","","","","","","","","","","","","","","","","","","","","",""
"image-keyboard-response","301","645548","0.0-4.0-6.0-1.0-2.74","622a07840fcdc97704f929a9","63690f60c96a0a9a64b48fbc","63691f0cbe9b99135913e7db","null","","null","","","","","","","","./tasks/HMM-beads/Images/WhiteBeadChoiceCorrect.png","","","","","","","","","","","","","","","","","","","","","","","",""
"image-keyboard-response","302","645846","0.0-4.0-6.0-1.0-0.75","622a07840fcdc97704f929a9","63690f60c96a0a9a64b48fbc","63691f0cbe9b99135913e7db","296","","f","","","","","","","","./tasks/HMM-beads/Images/NewTrialWC.png","highH","75","1","1","2","1","true","","","","","","","","","","","","","","","","",""
"image-keyboard-response","303","646160","0.0-4.0-6.0-1.0-1.75","622a07840fcdc97704f929a9","63690f60c96a0a9a64b48fbc","63691f0cbe9b99135913e7db","null","","null","","","","","","","","./tasks/HMM-beads/Images/BlackBeadChoice.png","","","","","","","","","","","","","","","","","","","","","","","",""
"image-keyboard-response","304","646663","0.0-4.0-6.0-1.0-2.75","622a07840fcdc97704f929a9","63690f60c96a0a9a64b48fbc","63691f0cbe9b99135913e7db","null","","null","","","","","","","","./tasks/HMM-beads/Images/BlackBeadChoiceCorrect.png","","","","","","","","","","","","","","","","","","","","","","","",""
"image-keyboard-response","305","647014","0.0-4.0-6.0-1.0-0.76","622a07840fcdc97704f929a9","63690f60c96a0a9a64b48fbc","63691f0cbe9b99135913e7db","349","","j","","","","","","","","./tasks/HMM-beads/Images/NewTrialBC.png","highH","76","2","2","1","2","true","","","","","","","","","","","","","","","","",""
"image-keyboard-response","306","647325","0.0-4.0-6.0-1.0-1.76","622a07840fcdc97704f929a9","63690f60c96a0a9a64b48fbc","63691f0cbe9b99135913e7db","null","","null","","","","","","","","./tasks/HMM-beads/Images/WhiteBeadChoice.png","","","","","","","","","","","","","","","","","","","","","","","",""
"image-keyboard-response","307","647845","0.0-4.0-6.0-1.0-2.76","622a07840fcdc97704f929a9","63690f60c96a0a9a64b48fbc","63691f0cbe9b99135913e7db","null","","null","","","","","","","","./tasks/HMM-beads/Images/WhiteBeadChoiceCorrect.png","","","","","","","","","","","","","","","","","","","","","","","",""
"image-keyboard-response","308","648157","0.0-4.0-6.0-1.0-0.77","622a07840fcdc97704f929a9","63690f60c96a0a9a64b48fbc","63691f0cbe9b99135913e7db","311","","f","","","","","","","","./tasks/HMM-beads/Images/NewTrialWC.png","highH","77","1","1","2","1","true","","","","","","","","","","","","","","","","",""
"image-keyboard-response","309","648473","0.0-4.0-6.0-1.0-1.77","622a07840fcdc97704f929a9","63690f60c96a0a9a64b48fbc","63691f0cbe9b99135913e7db","null","","null","","","","","","","","./tasks/HMM-beads/Images/BlackBeadChoice.png","","","","","","","","","","","","","","","","","","","","","","","",""
"image-keyboard-response","310","648993","0.0-4.0-6.0-1.0-2.77","622a07840fcdc97704f929a9","63690f60c96a0a9a64b48fbc","63691f0cbe9b99135913e7db","null","","null","","","","","","","","./tasks/HMM-beads/Images/BlackBeadChoiceCorrect.png","","","","","","","","","","","","","","","","","","","","","","","",""
"image-keyboard-response","311","649789","0.0-4.0-6.0-1.0-0.78","622a07840fcdc97704f929a9","63690f60c96a0a9a64b48fbc","63691f0cbe9b99135913e7db","795","","j","","","","","","","","./tasks/HMM-beads/Images/NewTrialBC.png","highH","78","2","2","1","2","true","","","","","","","","","","","","","","","","",""
"image-keyboard-response","312","650105","0.0-4.0-6.0-1.0-1.78","622a07840fcdc97704f929a9","63690f60c96a0a9a64b48fbc","63691f0cbe9b99135913e7db","null","","null","","","","","","","","./tasks/HMM-beads/Images/WhiteBeadChoice.png","","","","","","","","","","","","","","","","","","","","","","","",""
"image-keyboard-response","313","650625","0.0-4.0-6.0-1.0-2.78","622a07840fcdc97704f929a9","63690f60c96a0a9a64b48fbc","63691f0cbe9b99135913e7db","null","","null","","","","","","","","./tasks/HMM-beads/Images/WhiteBeadChoiceCorrect.png","","","","","","","","","","","","","","","","","","","","","","","",""
"image-keyboard-response","314","651029","0.0-4.0-6.0-1.0-0.79","622a07840fcdc97704f929a9","63690f60c96a0a9a64b48fbc","63691f0cbe9b99135913e7db","403","","f","","","","","","","","./tasks/HMM-beads/Images/NewTrialWC.png","highH","79","1","1","2","1","true","","","","","","","","","","","","","","","","",""
"image-keyboard-response","315","651337","0.0-4.0-6.0-1.0-1.79","622a07840fcdc97704f929a9","63690f60c96a0a9a64b48fbc","63691f0cbe9b99135913e7db","null","","null","","","","","","","","./tasks/HMM-beads/Images/BlackBeadChoice.png","","","","","","","","","","","","","","","","","","","","","","","",""
"image-keyboard-response","316","651856","0.0-4.0-6.0-1.0-2.79","622a07840fcdc97704f929a9","63690f60c96a0a9a64b48fbc","63691f0cbe9b99135913e7db","null","","null","","","","","","","","./tasks/HMM-beads/Images/BlackBeadChoiceCorrect.png","","","","","","","","","","","","","","","","","","","","","","","",""
"image-keyboard-response","317","652358","0.0-4.0-6.0-1.0-0.80","622a07840fcdc97704f929a9","63690f60c96a0a9a64b48fbc","63691f0cbe9b99135913e7db","500","","j","","","","","","","","./tasks/HMM-beads/Images/NewTrialBC.png","highH","80","2","1","1","2","false","","","","","","","","","","","","","","","","",""
"image-keyboard-response","318","652669","0.0-4.0-6.0-1.0-1.80","622a07840fcdc97704f929a9","63690f60c96a0a9a64b48fbc","63691f0cbe9b99135913e7db","null","","null","","","","","","","","./tasks/HMM-beads/Images/WhiteBeadChoice.png","","","","","","","","","","","","","","","","","","","","","","","",""
"image-keyboard-response","319","653188","0.0-4.0-6.0-1.0-2.80","622a07840fcdc97704f929a9","63690f60c96a0a9a64b48fbc","63691f0cbe9b99135913e7db","null","","null","","","","","","","","./tasks/HMM-beads/Images/WhiteBeadChoiceWrong.png","","","","","","","","","","","","","","","","","","","","","","","",""
"image-keyboard-response","320","654670","0.0-4.0-6.0-1.0-0.81","622a07840fcdc97704f929a9","63690f60c96a0a9a64b48fbc","63691f0cbe9b99135913e7db","1479","","j","","","","","","","","./tasks/HMM-beads/Images/NewTrialBC.png","highH","81","1","1","1","2","false","","","","","","","","","","","","","","","","",""
"image-keyboard-response","321","654983","0.0-4.0-6.0-1.0-1.81","622a07840fcdc97704f929a9","63690f60c96a0a9a64b48fbc","63691f0cbe9b99135913e7db","null","","null","","","","","","","","./tasks/HMM-beads/Images/WhiteBeadChoice.png","","","","","","","","","","","","","","","","","","","","","","","",""
