"trial_type","trial_index","time_elapsed","internal_node_id","subject_id","study_id","session_id","rt","url","response","question_order","view_history","success","timeout","failed_images","failed_audio","failed_video","stimulus","block","trial_number","jar","bead","previous_bead","choice","correct","lowH_score","highH_score","state","rewarded","state1_action","state2_visited","state1_key","state2_key","state1_rt","state2_rt","block_num","seq_file","trial_seq_info","two_arm_score_block1","two_arm_score_block2","two_arm_score_total","total_bonus"
"pavlovia","0","3281","0.0-0.0","5f6056e9a41e0d14d4c19f4c","63690f60c96a0a9a64b48fbc","63691d893b806c079eef62dd","","","","","","","","","","","","","","","","","","","","","","","","","","","","","","","","","","",""
"external-html","1","174134","0.0-1.0-0.0","5f6056e9a41e0d14d4c19f4c","63690f60c96a0a9a64b48fbc","63691d893b806c079eef62dd","170420","new_consent.html","","","","","","","","","","","","","","","","","","","","","","","","","","","","","","","","",""
"survey-multi-choice","2","179086","0.0-1.0-1.0","5f6056e9a41e0d14d4c19f4c","63690f60c96a0a9a64b48fbc","63691d893b806c079eef62dd","4950","","{""Q0"":""Male"",""Q1"":""White""}","[0,1]","","","","","","","","","","","","","","","","","","","","","","","","","","","","","","",""
"survey-text","3","182910","0.0-1.0-2.0","5f6056e9a41e0d14d4c19f4c","63690f60c96a0a9a64b48fbc","63691d893b806c079eef62dd","3819","","{""Q0"":""36""}","","","","","","","","","","","","","","","","","","","","","","","","","","","","","","","",""
"instructions","4","527316","0.0-2.0","5f6056e9a41e0d14d4c19f4c","63690f60c96a0a9a64b48fbc","63691d893b806c079eef62dd","344300","","","","[{""page_index"":0,""viewing_time"":342235},{""page_index"":1,""viewing_time"":2064}]","","","","","","","","","","","","","","","","","","","","","","","","","","","","","",""
"instructions","5","538571","0.0-3.0","5f6056e9a41e0d14d4c19f4c","63690f60c96a0a9a64b48fbc","63691d893b806c079eef62dd","11254","","","","[{""page_index"":0,""viewing_time"":11254}]","","","","","","","","","","","","","","","","","","","","","","","","","","","","","",""
"preload","6","570017","0.0-4.0-0.0","5f6056e9a41e0d14d4c19f4c","63690f60c96a0a9a64b48fbc","63691d893b806c079eef62dd","","","","","","true","false","[]","[]","[]","","","","","","","","","","","","","","","","","","","","","","","","",""
"instructions","7","1236790","0.0-4.0-1.0","5f6056e9a41e0d14d4c19f4c","63690f60c96a0a9a64b48fbc","63691d893b806c079eef62dd","666772","","","","[{""page_index"":0,""viewing_time"":405686},{""page_index"":1,""viewing_time"":11576},{""page_index"":2,""viewing_time"":5296},{""page_index"":3,""viewing_time"":1688},{""page_index"":4,""viewing_time"":5429},{""page_index"":3,""viewing_time"":2427},{""page_index"":4,""viewing_time"":1420},{""page_index"":5,""viewing_time"":46052},{""page_index"":6,""viewing_time"":12312},{""page_index"":7,""viewing_time"":9072},{""page_index"":8,""viewing_time"":8152},{""page_index"":9,""viewing_time"":12544},{""page_index"":10,""viewing_time"":143231},{""page_index"":11,""viewing_time"":1888}]","","","","","","","","","","","","","","","","","","","","","","","","","","","","","",""
"html-button-response","8","1273110","0.0-4.0-2.0-0.0-0.0","5f6056e9a41e0d14d4c19f4c","63690f60c96a0a9a64b48fbc","63691d893b806c079eef62dd","36318","","1","","","","","","","","<div align=center>Your goal is to predict…?<br><br></div>","","","","","","","","","","","","","","","","","","","","","","","",""
"html-button-response","9","1277006","0.0-4.0-2.0-1.0-0.0","5f6056e9a41e0d14d4c19f4c","63690f60c96a0a9a64b48fbc","63691d893b806c079eef62dd","2527","","2","","","","","","","","<div align=center>In the jar with mostly white beads, there are ___% white beads and ___% black beads?<br><br></div>","","","","","","","","","","","","","","","","","","","","","","","",""
"html-button-response","10","1293509","0.0-4.0-2.0-2.0-0.0","5f6056e9a41e0d14d4c19f4c","63690f60c96a0a9a64b48fbc","63691d893b806c079eef62dd","15383","","0","","","","","","","","<div align=center>When there is a 1% probability that the jars will switch, the next bead will most likely be drawn from the…<br><br></div>","","","","","","","","","","","","","","","","","","","","","","","",""
"html-button-response","11","1295893","0.0-4.0-2.0-3.0-0.0","5f6056e9a41e0d14d4c19f4c","63690f60c96a0a9a64b48fbc","63691d893b806c079eef62dd","1295","","1","","","","","","","","<div align=center>When there is a 99% probability that the jars will switch, the next bead will most likely be drawn from the…<br><br></div>","","","","","","","","","","","","","","","","","","","","","","","",""
"instructions","12","1298646","0.0-4.0-3.0","5f6056e9a41e0d14d4c19f4c","63690f60c96a0a9a64b48fbc","63691d893b806c079eef62dd","1824","","","","[{""page_index"":0,""viewing_time"":1824}]","","","","","","","","","","","","","","","","","","","","","","","","","","","","","",""
"html-keyboard-response","13","1317297","0.0-4.0-4.0-0.0","5f6056e9a41e0d14d4c19f4c","63690f60c96a0a9a64b48fbc","63691d893b806c079eef62dd","18650",""," ","","","","","","","","<div align=center>In this practice block, there will be a <b>10% chance</b> that the jar on the next trial will be different from the jar on the current trial.<br><br></div>","","","","","","","","","","","","","","","","","","","","","","","",""
"image-keyboard-response","14","1321641","0.0-4.0-4.0-1.0-0.0","5f6056e9a41e0d14d4c19f4c","63690f60c96a0a9a64b48fbc","63691d893b806c079eef62dd","4341","","f","","","","","","","","./tasks/HMM-beads/Images/NoChoice.png","practice","0","1","1","0","1","true","","","","","","","","","","","","","","","","",""
"image-keyboard-response","15","1321946","0.0-4.0-4.0-1.0-1.0","5f6056e9a41e0d14d4c19f4c","63690f60c96a0a9a64b48fbc","63691d893b806c079eef62dd","null","","null","","","","","","","","./tasks/HMM-beads/Images/BlackBeadChoice.png","","","","","","","","","","","","","","","","","","","","","","","",""
"image-keyboard-response","16","1322455","0.0-4.0-4.0-1.0-2.0","5f6056e9a41e0d14d4c19f4c","63690f60c96a0a9a64b48fbc","63691d893b806c079eef62dd","null","","null","","","","","","","","./tasks/HMM-beads/Images/BlackBeadChoiceCorrect.png","","","","","","","","","","","","","","","","","","","","","","","",""
"image-keyboard-response","17","1325417","0.0-4.0-4.0-1.0-0.1","5f6056e9a41e0d14d4c19f4c","63690f60c96a0a9a64b48fbc","63691d893b806c079eef62dd","2960","","f","","","","","","","","./tasks/HMM-beads/Images/NewTrialBC.png","practice","1","1","1","1","1","true","","","","","","","","","","","","","","","","",""
"image-keyboard-response","18","1325725","0.0-4.0-4.0-1.0-1.1","5f6056e9a41e0d14d4c19f4c","63690f60c96a0a9a64b48fbc","63691d893b806c079eef62dd","null","","null","","","","","","","","./tasks/HMM-beads/Images/BlackBeadChoice.png","","","","","","","","","","","","","","","","","","","","","","","",""
"image-keyboard-response","19","1326234","0.0-4.0-4.0-1.0-2.1","5f6056e9a41e0d14d4c19f4c","63690f60c96a0a9a64b48fbc","63691d893b806c079eef62dd","null","","null","","","","","","","","./tasks/HMM-beads/Images/BlackBeadChoiceCorrect.png","","","","","","","","","","","","","","","","","","","","","","","",""
"image-keyboard-response","20","1326665","0.0-4.0-4.0-1.0-0.2","5f6056e9a41e0d14d4c19f4c","63690f60c96a0a9a64b48fbc","63691d893b806c079eef62dd","429","","f","","","","","","","","./tasks/HMM-beads/Images/NewTrialBC.png","practice","2","1","2","1","1","false","","","","","","","","","","","","","","","","",""
"image-keyboard-response","21","1326971","0.0-4.0-4.0-1.0-1.2","5f6056e9a41e0d14d4c19f4c","63690f60c96a0a9a64b48fbc","63691d893b806c079eef62dd","null","","null","","","","","","","","./tasks/HMM-beads/Images/BlackBeadChoice.png","","","","","","","","","","","","","","","","","","","","","","","",""
"image-keyboard-response","22","1327478","0.0-4.0-4.0-1.0-2.2","5f6056e9a41e0d14d4c19f4c","63690f60c96a0a9a64b48fbc","63691d893b806c079eef62dd","null","","null","","","","","","","","./tasks/HMM-beads/Images/BlackBeadChoiceWrong.png","","","","","","","","","","","","","","","","","","","","","","","",""
"image-keyboard-response","23","1328744","0.0-4.0-4.0-1.0-0.3","5f6056e9a41e0d14d4c19f4c","63690f60c96a0a9a64b48fbc","63691d893b806c079eef62dd","1265","","f","","","","","","","","./tasks/HMM-beads/Images/NewTrialWC.png","practice","3","1","1","2","1","true","","","","","","","","","","","","","","","","",""
"image-keyboard-response","24","1329060","0.0-4.0-4.0-1.0-1.3","5f6056e9a41e0d14d4c19f4c","63690f60c96a0a9a64b48fbc","63691d893b806c079eef62dd","null","","null","","","","","","","","./tasks/HMM-beads/Images/BlackBeadChoice.png","","","","","","","","","","","","","","","","","","","","","","","",""
"image-keyboard-response","25","1329572","0.0-4.0-4.0-1.0-2.3","5f6056e9a41e0d14d4c19f4c","63690f60c96a0a9a64b48fbc","63691d893b806c079eef62dd","null","","null","","","","","","","","./tasks/HMM-beads/Images/BlackBeadChoiceCorrect.png","","","","","","","","","","","","","","","","","","","","","","","",""
"image-keyboard-response","26","1329872","0.0-4.0-4.0-1.0-0.4","5f6056e9a41e0d14d4c19f4c","63690f60c96a0a9a64b48fbc","63691d893b806c079eef62dd","299","","f","","","","","","","","./tasks/HMM-beads/Images/NewTrialBC.png","practice","4","1","2","1","1","false","","","","","","","","","","","","","","","","",""
"image-keyboard-response","27","1330187","0.0-4.0-4.0-1.0-1.4","5f6056e9a41e0d14d4c19f4c","63690f60c96a0a9a64b48fbc","63691d893b806c079eef62dd","null","","null","","","","","","","","./tasks/HMM-beads/Images/BlackBeadChoice.png","","","","","","","","","","","","","","","","","","","","","","","",""
"image-keyboard-response","28","1330693","0.0-4.0-4.0-1.0-2.4","5f6056e9a41e0d14d4c19f4c","63690f60c96a0a9a64b48fbc","63691d893b806c079eef62dd","null","","null","","","","","","","","./tasks/HMM-beads/Images/BlackBeadChoiceWrong.png","","","","","","","","","","","","","","","","","","","","","","","",""
"image-keyboard-response","29","1332520","0.0-4.0-4.0-1.0-0.5","5f6056e9a41e0d14d4c19f4c","63690f60c96a0a9a64b48fbc","63691d893b806c079eef62dd","1827","","f","","","","","","","","./tasks/HMM-beads/Images/NewTrialWC.png","practice","5","1","1","2","1","true","","","","","","","","","","","","","","","","",""
"image-keyboard-response","30","1332826","0.0-4.0-4.0-1.0-1.5","5f6056e9a41e0d14d4c19f4c","63690f60c96a0a9a64b48fbc","63691d893b806c079eef62dd","null","","null","","","","","","","","./tasks/HMM-beads/Images/BlackBeadChoice.png","","","","","","","","","","","","","","","","","","","","","","","",""
"image-keyboard-response","31","1333341","0.0-4.0-4.0-1.0-2.5","5f6056e9a41e0d14d4c19f4c","63690f60c96a0a9a64b48fbc","63691d893b806c079eef62dd","null","","null","","","","","","","","./tasks/HMM-beads/Images/BlackBeadChoiceCorrect.png","","","","","","","","","","","","","","","","","","","","","","","",""
"image-keyboard-response","32","1333744","0.0-4.0-4.0-1.0-0.6","5f6056e9a41e0d14d4c19f4c","63690f60c96a0a9a64b48fbc","63691d893b806c079eef62dd","402","","f","","","","","","","","./tasks/HMM-beads/Images/NewTrialBC.png","practice","6","1","2","1","1","false","","","","","","","","","","","","","","","","",""
"image-keyboard-response","33","1334057","0.0-4.0-4.0-1.0-1.6","5f6056e9a41e0d14d4c19f4c","63690f60c96a0a9a64b48fbc","63691d893b806c079eef62dd","null","","null","","","","","","","","./tasks/HMM-beads/Images/BlackBeadChoice.png","","","","","","","","","","","","","","","","","","","","","","","",""
"image-keyboard-response","34","1334571","0.0-4.0-4.0-1.0-2.6","5f6056e9a41e0d14d4c19f4c","63690f60c96a0a9a64b48fbc","63691d893b806c079eef62dd","null","","null","","","","","","","","./tasks/HMM-beads/Images/BlackBeadChoiceWrong.png","","","","","","","","","","","","","","","","","","","","","","","",""
"image-keyboard-response","35","1335168","0.0-4.0-4.0-1.0-0.7","5f6056e9a41e0d14d4c19f4c","63690f60c96a0a9a64b48fbc","63691d893b806c079eef62dd","596","","j","","","","","","","","./tasks/HMM-beads/Images/NewTrialWC.png","practice","7","1","1","2","2","false","","","","","","","","","","","","","","","","",""
"image-keyboard-response","36","1335474","0.0-4.0-4.0-1.0-1.7","5f6056e9a41e0d14d4c19f4c","63690f60c96a0a9a64b48fbc","63691d893b806c079eef62dd","null","","null","","","","","","","","./tasks/HMM-beads/Images/WhiteBeadChoice.png","","","","","","","","","","","","","","","","","","","","","","","",""
"image-keyboard-response","37","1335989","0.0-4.0-4.0-1.0-2.7","5f6056e9a41e0d14d4c19f4c","63690f60c96a0a9a64b48fbc","63691d893b806c079eef62dd","null","","null","","","","","","","","./tasks/HMM-beads/Images/WhiteBeadChoiceWrong.png","","","","","","","","","","","","","","","","","","","","","","","",""
"image-keyboard-response","38","1336409","0.0-4.0-4.0-1.0-0.8","5f6056e9a41e0d14d4c19f4c","63690f60c96a0a9a64b48fbc","63691d893b806c079eef62dd","419","","f","","","","","","","","./tasks/HMM-beads/Images/NewTrialBC.png","practice","8","1","1","1","1","true","","","","","","","","","","","","","","","","",""
"image-keyboard-response","39","1336719","0.0-4.0-4.0-1.0-1.8","5f6056e9a41e0d14d4c19f4c","63690f60c96a0a9a64b48fbc","63691d893b806c079eef62dd","null","","null","","","","","","","","./tasks/HMM-beads/Images/BlackBeadChoice.png","","","","","","","","","","","","","","","","","","","","","","","",""
"image-keyboard-response","40","1337235","0.0-4.0-4.0-1.0-2.8","5f6056e9a41e0d14d4c19f4c","63690f60c96a0a9a64b48fbc","63691d893b806c079eef62dd","null","","null","","","","","","","","./tasks/HMM-beads/Images/BlackBeadChoiceCorrect.png","","","","","","","","","","","","","","","","","","","","","","","",""
"image-keyboard-response","41","1337376","0.0-4.0-4.0-1.0-0.9","5f6056e9a41e0d14d4c19f4c","63690f60c96a0a9a64b48fbc","63691d893b806c079eef62dd","141","","f","","","","","","","","./tasks/HMM-beads/Images/NewTrialBC.png","practice","9","2","2","1","1","false","","","","","","","","","","","","","","","","",""
"image-keyboard-response","42","1337690","0.0-4.0-4.0-1.0-1.9","5f6056e9a41e0d14d4c19f4c","63690f60c96a0a9a64b48fbc","63691d893b806c079eef62dd","null","","null","","","","","","","","./tasks/HMM-beads/Images/BlackBeadChoice.png","","","","","","","","","","","","","","","","","","","","","","","",""
"image-keyboard-response","43","1338202","0.0-4.0-4.0-1.0-2.9","5f6056e9a41e0d14d4c19f4c","63690f60c96a0a9a64b48fbc","63691d893b806c079eef62dd","null","","null","","","","","","","","./tasks/HMM-beads/Images/BlackBeadChoiceWrong.png","","","","","","","","","","","","","","","","","","","","","","","",""
"image-keyboard-response","44","1338696","0.0-4.0-4.0-1.0-0.10","5f6056e9a41e0d14d4c19f4c","63690f60c96a0a9a64b48fbc","63691d893b806c079eef62dd","493","","f","","","","","","","","./tasks/HMM-beads/Images/NewTrialWC.png","practice","10","2","1","2","1","true","","","","","","","","","","","","","","","","",""
"image-keyboard-response","45","1339012","0.0-4.0-4.0-1.0-1.10","5f6056e9a41e0d14d4c19f4c","63690f60c96a0a9a64b48fbc","63691d893b806c079eef62dd","null","","null","","","","","","","","./tasks/HMM-beads/Images/BlackBeadChoice.png","","","","","","","","","","","","","","","","","","","","","","","",""
"image-keyboard-response","46","1339526","0.0-4.0-4.0-1.0-2.10","5f6056e9a41e0d14d4c19f4c","63690f60c96a0a9a64b48fbc","63691d893b806c079eef62dd","null","","null","","","","","","","","./tasks/HMM-beads/Images/BlackBeadChoiceCorrect.png","","","","","","","","","","","","","","","","","","","","","","","",""
"image-keyboard-response","47","1339848","0.0-4.0-4.0-1.0-0.11","5f6056e9a41e0d14d4c19f4c","63690f60c96a0a9a64b48fbc","63691d893b806c079eef62dd","322","","f","","","","","","","","./tasks/HMM-beads/Images/NewTrialBC.png","practice","11","2","2","1","1","false","","","","","","","","","","","","","","","","",""
"image-keyboard-response","48","1340163","0.0-4.0-4.0-1.0-1.11","5f6056e9a41e0d14d4c19f4c","63690f60c96a0a9a64b48fbc","63691d893b806c079eef62dd","null","","null","","","","","","","","./tasks/HMM-beads/Images/BlackBeadChoice.png","","","","","","","","","","","","","","","","","","","","","","","",""
"image-keyboard-response","49","1340676","0.0-4.0-4.0-1.0-2.11","5f6056e9a41e0d14d4c19f4c","63690f60c96a0a9a64b48fbc","63691d893b806c079eef62dd","null","","null","","","","","","","","./tasks/HMM-beads/Images/BlackBeadChoiceWrong.png","","","","","","","","","","","","","","","","","","","","","","","",""
"image-keyboard-response","50","1341520","0.0-4.0-4.0-1.0-0.12","5f6056e9a41e0d14d4c19f4c","63690f60c96a0a9a64b48fbc","63691d893b806c079eef62dd","843","","f","","","","","","","","./tasks/HMM-beads/Images/NewTrialWC.png","practice","12","2","2","2","1","false","","","","","","","","","","","","","","","","",""
"image-keyboard-response","51","1341830","0.0-4.0-4.0-1.0-1.12","5f6056e9a41e0d14d4c19f4c","63690f60c96a0a9a64b48fbc","63691d893b806c079eef62dd","null","","null","","","","","","","","./tasks/HMM-beads/Images/BlackBeadChoice.png","","","","","","","","","","","","","","","","","","","","","","","",""
"image-keyboard-response","52","1342343","0.0-4.0-4.0-1.0-2.12","5f6056e9a41e0d14d4c19f4c","63690f60c96a0a9a64b48fbc","63691d893b806c079eef62dd","null","","null","","","","","","","","./tasks/HMM-beads/Images/BlackBeadChoiceWrong.png","","","","","","","","","","","","","","","","","","","","","","","",""
"image-keyboard-response","53","1342728","0.0-4.0-4.0-1.0-0.13","5f6056e9a41e0d14d4c19f4c","63690f60c96a0a9a64b48fbc","63691d893b806c079eef62dd","385","","f","","","","","","","","./tasks/HMM-beads/Images/NewTrialWC.png","practice","13","2","2","2","1","false","","","","","","","","","","","","","","","","",""
"image-keyboard-response","54","1343043","0.0-4.0-4.0-1.0-1.13","5f6056e9a41e0d14d4c19f4c","63690f60c96a0a9a64b48fbc","63691d893b806c079eef62dd","null","","null","","","","","","","","./tasks/HMM-beads/Images/BlackBeadChoice.png","","","","","","","","","","","","","","","","","","","","","","","",""
"image-keyboard-response","55","1343558","0.0-4.0-4.0-1.0-2.13","5f6056e9a41e0d14d4c19f4c","63690f60c96a0a9a64b48fbc","63691d893b806c079eef62dd","null","","null","","","","","","","","./tasks/HMM-beads/Images/BlackBeadChoiceWrong.png","","","","","","","","","","","","","","","","","","","","","","","",""
"image-keyboard-response","56","1343776","0.0-4.0-4.0-1.0-0.14","5f6056e9a41e0d14d4c19f4c","63690f60c96a0a9a64b48fbc","63691d893b806c079eef62dd","217","","j","","","","","","","","./tasks/HMM-beads/Images/NewTrialWC.png","practice","14","2","2","2","2","true","","","","","","","","","","","","","","","","",""
"image-keyboard-response","57","1344087","0.0-4.0-4.0-1.0-1.14","5f6056e9a41e0d14d4c19f4c","63690f60c96a0a9a64b48fbc","63691d893b806c079eef62dd","null","","null","","","","","","","","./tasks/HMM-beads/Images/WhiteBeadChoice.png","","","","","","","","","","","","","","","","","","","","","","","",""
"image-keyboard-response","58","1344599","0.0-4.0-4.0-1.0-2.14","5f6056e9a41e0d14d4c19f4c","63690f60c96a0a9a64b48fbc","63691d893b806c079eef62dd","null","","null","","","","","","","","./tasks/HMM-beads/Images/WhiteBeadChoiceCorrect.png","","","","","","","","","","","","","","","","","","","","","","","",""
"image-keyboard-response","59","1344880","0.0-4.0-4.0-1.0-0.15","5f6056e9a41e0d14d4c19f4c","63690f60c96a0a9a64b48fbc","63691d893b806c079eef62dd","277","","j","","","","","","","","./tasks/HMM-beads/Images/NewTrialWC.png","practice","15","1","1","2","2","false","","","","","","","","","","","","","","","","",""
"image-keyboard-response","60","1345189","0.0-4.0-4.0-1.0-1.15","5f6056e9a41e0d14d4c19f4c","63690f60c96a0a9a64b48fbc","63691d893b806c079eef62dd","null","","null","","","","","","","","./tasks/HMM-beads/Images/WhiteBeadChoice.png","","","","","","","","","","","","","","","","","","","","","","","",""
"image-keyboard-response","61","1345704","0.0-4.0-4.0-1.0-2.15","5f6056e9a41e0d14d4c19f4c","63690f60c96a0a9a64b48fbc","63691d893b806c079eef62dd","null","","null","","","","","","","","./tasks/HMM-beads/Images/WhiteBeadChoiceWrong.png","","","","","","","","","","","","","","","","","","","","","","","",""
"image-keyboard-response","62","1348224","0.0-4.0-4.0-1.0-0.16","5f6056e9a41e0d14d4c19f4c","63690f60c96a0a9a64b48fbc","63691d893b806c079eef62dd","2519","","j","","","","","","","","./tasks/HMM-beads/Images/NewTrialBC.png","practice","16","1","2","1","2","true","","","","","","","","","","","","","","","","",""
"image-keyboard-response","63","1348540","0.0-4.0-4.0-1.0-1.16","5f6056e9a41e0d14d4c19f4c","63690f60c96a0a9a64b48fbc","63691d893b806c079eef62dd","null","","null","","","","","","","","./tasks/HMM-beads/Images/WhiteBeadChoice.png","","","","","","","","","","","","","","","","","","","","","","","",""
"image-keyboard-response","64","1349054","0.0-4.0-4.0-1.0-2.16","5f6056e9a41e0d14d4c19f4c","63690f60c96a0a9a64b48fbc","63691d893b806c079eef62dd","null","","null","","","","","","","","./tasks/HMM-beads/Images/WhiteBeadChoiceCorrect.png","","","","","","","","","","","","","","","","","","","","","","","",""
"image-keyboard-response","65","1349504","0.0-4.0-4.0-1.0-0.17","5f6056e9a41e0d14d4c19f4c","63690f60c96a0a9a64b48fbc","63691d893b806c079eef62dd","449","","j","","","","","","","","./tasks/HMM-beads/Images/NewTrialWC.png","practice","17","1","1","2","2","false","","","","","","","","","","","","","","","","",""
"image-keyboard-response","66","1349815","0.0-4.0-4.0-1.0-1.17","5f6056e9a41e0d14d4c19f4c","63690f60c96a0a9a64b48fbc","63691d893b806c079eef62dd","null","","null","","","","","","","","./tasks/HMM-beads/Images/WhiteBeadChoice.png","","","","","","","","","","","","","","","","","","","","","","","",""
"image-keyboard-response","67","1350326","0.0-4.0-4.0-1.0-2.17","5f6056e9a41e0d14d4c19f4c","63690f60c96a0a9a64b48fbc","63691d893b806c079eef62dd","null","","null","","","","","","","","./tasks/HMM-beads/Images/WhiteBeadChoiceWrong.png","","","","","","","","","","","","","","","","","","","","","","","",""
"image-keyboard-response","68","1350632","0.0-4.0-4.0-1.0-0.18","5f6056e9a41e0d14d4c19f4c","63690f60c96a0a9a64b48fbc","63691d893b806c079eef62dd","305","","j","","","","","","","","./tasks/HMM-beads/Images/NewTrialBC.png","practice","18","1","1","1","2","false","","","","","","","","","","","","","","","","",""
"image-keyboard-response","69","1350948","0.0-4.0-4.0-1.0-1.18","5f6056e9a41e0d14d4c19f4c","63690f60c96a0a9a64b48fbc","63691d893b806c079eef62dd","null","","null","","","","","","","","./tasks/HMM-beads/Images/WhiteBeadChoice.png","","","","","","","","","","","","","","","","","","","","","","","",""
"image-keyboard-response","70","1351461","0.0-4.0-4.0-1.0-2.18","5f6056e9a41e0d14d4c19f4c","63690f60c96a0a9a64b48fbc","63691d893b806c079eef62dd","null","","null","","","","","","","","./tasks/HMM-beads/Images/WhiteBeadChoiceWrong.png","","","","","","","","","","","","","","","","","","","","","","","",""
"image-keyboard-response","71","1352080","0.0-4.0-4.0-1.0-0.19","5f6056e9a41e0d14d4c19f4c","63690f60c96a0a9a64b48fbc","63691d893b806c079eef62dd","618","","f","","","","","","","","./tasks/HMM-beads/Images/NewTrialBC.png","practice","19","1","1","1","1","true","","","","","","","","","","","","","","","","",""
"image-keyboard-response","72","1352393","0.0-4.0-4.0-1.0-1.19","5f6056e9a41e0d14d4c19f4c","63690f60c96a0a9a64b48fbc","63691d893b806c079eef62dd","null","","null","","","","","","","","./tasks/HMM-beads/Images/BlackBeadChoice.png","","","","","","","","","","","","","","","","","","","","","","","",""
"image-keyboard-response","73","1352907","0.0-4.0-4.0-1.0-2.19","5f6056e9a41e0d14d4c19f4c","63690f60c96a0a9a64b48fbc","63691d893b806c079eef62dd","null","","null","","","","","","","","./tasks/HMM-beads/Images/BlackBeadChoiceCorrect.png","","","","","","","","","","","","","","","","","","","","","","","",""
"html-keyboard-response","74","1355760","0.0-4.0-4.0-2.0","5f6056e9a41e0d14d4c19f4c","63690f60c96a0a9a64b48fbc","63691d893b806c079eef62dd","2852",""," ","","","","","","","","","","","","","","","","","","","","","","","","","","","","","","","",""
"instructions","75","1372397","0.0-4.0-5.0","5f6056e9a41e0d14d4c19f4c","63690f60c96a0a9a64b48fbc","63691d893b806c079eef62dd","16636","","","","[{""page_index"":0,""viewing_time"":15164},{""page_index"":1,""viewing_time"":1472}]","","","","","","","","","","","","","","","","","","","","","","","","","","","","","",""
"html-keyboard-response","76","1425872","0.0-4.0-6.0-0.0","5f6056e9a41e0d14d4c19f4c","63690f60c96a0a9a64b48fbc","63691d893b806c079eef62dd","53475",""," ","","","","","","","","<div align=center>In this block, there will be a <b>1% chance</b> that the jar on the next trial will be different from the jar on the current trial.<br><br></div>","","","","","","","","","","","","","","","","","","","","","","","",""
"image-keyboard-response","77","1427311","0.0-4.0-6.0-1.0-0.0","5f6056e9a41e0d14d4c19f4c","63690f60c96a0a9a64b48fbc","63691d893b806c079eef62dd","1439","","f","","","","","","","","./tasks/HMM-beads/Images/NoChoice.png","lowH","0","2","2","0","1","false","","","","","","","","","","","","","","","","",""
"image-keyboard-response","78","1427613","0.0-4.0-6.0-1.0-1.0","5f6056e9a41e0d14d4c19f4c","63690f60c96a0a9a64b48fbc","63691d893b806c079eef62dd","null","","null","","","","","","","","./tasks/HMM-beads/Images/BlackBeadChoice.png","","","","","","","","","","","","","","","","","","","","","","","",""
"image-keyboard-response","79","1428122","0.0-4.0-6.0-1.0-2.0","5f6056e9a41e0d14d4c19f4c","63690f60c96a0a9a64b48fbc","63691d893b806c079eef62dd","null","","null","","","","","","","","./tasks/HMM-beads/Images/BlackBeadChoiceWrong.png","","","","","","","","","","","","","","","","","","","","","","","",""
"image-keyboard-response","80","1429495","0.0-4.0-6.0-1.0-0.1","5f6056e9a41e0d14d4c19f4c","63690f60c96a0a9a64b48fbc","63691d893b806c079eef62dd","1372","","j","","","","","","","","./tasks/HMM-beads/Images/NewTrialWC.png","lowH","1","2","2","2","2","true","","","","","","","","","","","","","","","","",""
"image-keyboard-response","81","1429803","0.0-4.0-6.0-1.0-1.1","5f6056e9a41e0d14d4c19f4c","63690f60c96a0a9a64b48fbc","63691d893b806c079eef62dd","null","","null","","","","","","","","./tasks/HMM-beads/Images/WhiteBeadChoice.png","","","","","","","","","","","","","","","","","","","","","","","",""
"image-keyboard-response","82","1430317","0.0-4.0-6.0-1.0-2.1","5f6056e9a41e0d14d4c19f4c","63690f60c96a0a9a64b48fbc","63691d893b806c079eef62dd","null","","null","","","","","","","","./tasks/HMM-beads/Images/WhiteBeadChoiceCorrect.png","","","","","","","","","","","","","","","","","","","","","","","",""
"image-keyboard-response","83","1430615","0.0-4.0-6.0-1.0-0.2","5f6056e9a41e0d14d4c19f4c","63690f60c96a0a9a64b48fbc","63691d893b806c079eef62dd","297","","j","","","","","","","","./tasks/HMM-beads/Images/NewTrialWC.png","lowH","2","2","2","2","2","true","","","","","","","","","","","","","","","","",""
"image-keyboard-response","84","1430925","0.0-4.0-6.0-1.0-1.2","5f6056e9a41e0d14d4c19f4c","63690f60c96a0a9a64b48fbc","63691d893b806c079eef62dd","null","","null","","","","","","","","./tasks/HMM-beads/Images/WhiteBeadChoice.png","","","","","","","","","","","","","","","","","","","","","","","",""
"image-keyboard-response","85","1431436","0.0-4.0-6.0-1.0-2.2","5f6056e9a41e0d14d4c19f4c","63690f60c96a0a9a64b48fbc","63691d893b806c079eef62dd","null","","null","","","","","","","","./tasks/HMM-beads/Images/WhiteBeadChoiceCorrect.png","","","","","","","","","","","","","","","","","","","","","","","",""
"image-keyboard-response","86","1431832","0.0-4.0-6.0-1.0-0.3","5f6056e9a41e0d14d4c19f4c","63690f60c96a0a9a64b48fbc","63691d893b806c079eef62dd","395","","j","","","","","","","","./tasks/HMM-beads/Images/NewTrialWC.png","lowH","3","2","2","2","2","true","","","","","","","","","","","","","","","","",""
"image-keyboard-response","87","1432136","0.0-4.0-6.0-1.0-1.3","5f6056e9a41e0d14d4c19f4c","63690f60c96a0a9a64b48fbc","63691d893b806c079eef62dd","null","","null","","","","","","","","./tasks/HMM-beads/Images/WhiteBeadChoice.png","","","","","","","","","","","","","","","","","","","","","","","",""
"image-keyboard-response","88","1432649","0.0-4.0-6.0-1.0-2.3","5f6056e9a41e0d14d4c19f4c","63690f60c96a0a9a64b48fbc","63691d893b806c079eef62dd","null","","null","","","","","","","","./tasks/HMM-beads/Images/WhiteBeadChoiceCorrect.png","","","","","","","","","","","","","","","","","","","","","","","",""
"image-keyboard-response","89","1434199","0.0-4.0-6.0-1.0-0.4","5f6056e9a41e0d14d4c19f4c","63690f60c96a0a9a64b48fbc","63691d893b806c079eef62dd","1550","","f","","","","","","","","./tasks/HMM-beads/Images/NewTrialWC.png","lowH","4","2","1","2","1","true","","","","","","","","","","","","","","","","",""
"image-keyboard-response","90","1434503","0.0-4.0-6.0-1.0-1.4","5f6056e9a41e0d14d4c19f4c","63690f60c96a0a9a64b48fbc","63691d893b806c079eef62dd","null","","null","","","","","","","","./tasks/HMM-beads/Images/BlackBeadChoice.png","","","","","","","","","","","","","","","","","","","","","","","",""
"image-keyboard-response","91","1435017","0.0-4.0-6.0-1.0-2.4","5f6056e9a41e0d14d4c19f4c","63690f60c96a0a9a64b48fbc","63691d893b806c079eef62dd","null","","null","","","","","","","","./tasks/HMM-beads/Images/BlackBeadChoiceCorrect.png","","","","","","","","","","","","","","","","","","","","","","","",""
"image-keyboard-response","92","1435351","0.0-4.0-6.0-1.0-0.5","5f6056e9a41e0d14d4c19f4c","63690f60c96a0a9a64b48fbc","63691d893b806c079eef62dd","333","","j","","","","","","","","./tasks/HMM-beads/Images/NewTrialBC.png","lowH","5","2","2","1","2","true","","","","","","","","","","","","","","","","",""
"image-keyboard-response","93","1435654","0.0-4.0-6.0-1.0-1.5","5f6056e9a41e0d14d4c19f4c","63690f60c96a0a9a64b48fbc","63691d893b806c079eef62dd","null","","null","","","","","","","","./tasks/HMM-beads/Images/WhiteBeadChoice.png","","","","","","","","","","","","","","","","","","","","","","","",""
"image-keyboard-response","94","1436168","0.0-4.0-6.0-1.0-2.5","5f6056e9a41e0d14d4c19f4c","63690f60c96a0a9a64b48fbc","63691d893b806c079eef62dd","null","","null","","","","","","","","./tasks/HMM-beads/Images/WhiteBeadChoiceCorrect.png","","","","","","","","","","","","","","","","","","","","","","","",""
"image-keyboard-response","95","1436527","0.0-4.0-6.0-1.0-0.6","5f6056e9a41e0d14d4c19f4c","63690f60c96a0a9a64b48fbc","63691d893b806c079eef62dd","358","","j","","","","","","","","./tasks/HMM-beads/Images/NewTrialWC.png","lowH","6","2","2","2","2","true","","","","","","","","","","","","","","","","",""
"image-keyboard-response","96","1436839","0.0-4.0-6.0-1.0-1.6","5f6056e9a41e0d14d4c19f4c","63690f60c96a0a9a64b48fbc","63691d893b806c079eef62dd","null","","null","","","","","","","","./tasks/HMM-beads/Images/WhiteBeadChoice.png","","","","","","","","","","","","","","","","","","","","","","","",""
"image-keyboard-response","97","1437351","0.0-4.0-6.0-1.0-2.6","5f6056e9a41e0d14d4c19f4c","63690f60c96a0a9a64b48fbc","63691d893b806c079eef62dd","null","","null","","","","","","","","./tasks/HMM-beads/Images/WhiteBeadChoiceCorrect.png","","","","","","","","","","","","","","","","","","","","","","","",""
"image-keyboard-response","98","1437736","0.0-4.0-6.0-1.0-0.7","5f6056e9a41e0d14d4c19f4c","63690f60c96a0a9a64b48fbc","63691d893b806c079eef62dd","383","","f","","","","","","","","./tasks/HMM-beads/Images/NewTrialWC.png","lowH","7","2","2","2","1","false","","","","","","","","","","","","","","","","",""
"image-keyboard-response","99","1438038","0.0-4.0-6.0-1.0-1.7","5f6056e9a41e0d14d4c19f4c","63690f60c96a0a9a64b48fbc","63691d893b806c079eef62dd","null","","null","","","","","","","","./tasks/HMM-beads/Images/BlackBeadChoice.png","","","","","","","","","","","","","","","","","","","","","","","",""
"image-keyboard-response","100","1438551","0.0-4.0-6.0-1.0-2.7","5f6056e9a41e0d14d4c19f4c","63690f60c96a0a9a64b48fbc","63691d893b806c079eef62dd","null","","null","","","","","","","","./tasks/HMM-beads/Images/BlackBeadChoiceWrong.png","","","","","","","","","","","","","","","","","","","","","","","",""
"image-keyboard-response","101","1439079","0.0-4.0-6.0-1.0-0.8","5f6056e9a41e0d14d4c19f4c","63690f60c96a0a9a64b48fbc","63691d893b806c079eef62dd","527","","j","","","","","","","","./tasks/HMM-beads/Images/NewTrialWC.png","lowH","8","2","2","2","2","true","","","","","","","","","","","","","","","","",""
"image-keyboard-response","102","1439392","0.0-4.0-6.0-1.0-1.8","5f6056e9a41e0d14d4c19f4c","63690f60c96a0a9a64b48fbc","63691d893b806c079eef62dd","null","","null","","","","","","","","./tasks/HMM-beads/Images/WhiteBeadChoice.png","","","","","","","","","","","","","","","","","","","","","","","",""
"image-keyboard-response","103","1439906","0.0-4.0-6.0-1.0-2.8","5f6056e9a41e0d14d4c19f4c","63690f60c96a0a9a64b48fbc","63691d893b806c079eef62dd","null","","null","","","","","","","","./tasks/HMM-beads/Images/WhiteBeadChoiceCorrect.png","","","","","","","","","","","","","","","","","","","","","","","",""
"image-keyboard-response","104","1440287","0.0-4.0-6.0-1.0-0.9","5f6056e9a41e0d14d4c19f4c","63690f60c96a0a9a64b48fbc","63691d893b806c079eef62dd","381","","j","","","","","","","","./tasks/HMM-beads/Images/NewTrialWC.png","lowH","9","2","2","2","2","true","","","","","","","","","","","","","","","","",""
"image-keyboard-response","105","1440590","0.0-4.0-6.0-1.0-1.9","5f6056e9a41e0d14d4c19f4c","63690f60c96a0a9a64b48fbc","63691d893b806c079eef62dd","null","","null","","","","","","","","./tasks/HMM-beads/Images/WhiteBeadChoice.png","","","","","","","","","","","","","","","","","","","","","","","",""
"image-keyboard-response","106","1441103","0.0-4.0-6.0-1.0-2.9","5f6056e9a41e0d14d4c19f4c","63690f60c96a0a9a64b48fbc","63691d893b806c079eef62dd","null","","null","","","","","","","","./tasks/HMM-beads/Images/WhiteBeadChoiceCorrect.png","","","","","","","","","","","","","","","","","","","","","","","",""
"image-keyboard-response","107","1441455","0.0-4.0-6.0-1.0-0.10","5f6056e9a41e0d14d4c19f4c","63690f60c96a0a9a64b48fbc","63691d893b806c079eef62dd","352","","f","","","","","","","","./tasks/HMM-beads/Images/NewTrialWC.png","lowH","10","2","2","2","1","false","","","","","","","","","","","","","","","","",""
"image-keyboard-response","108","1441772","0.0-4.0-6.0-1.0-1.10","5f6056e9a41e0d14d4c19f4c","63690f60c96a0a9a64b48fbc","63691d893b806c079eef62dd","null","","null","","","","","","","","./tasks/HMM-beads/Images/BlackBeadChoice.png","","","","","","","","","","","","","","","","","","","","","","","",""
"image-keyboard-response","109","1442286","0.0-4.0-6.0-1.0-2.10","5f6056e9a41e0d14d4c19f4c","63690f60c96a0a9a64b48fbc","63691d893b806c079eef62dd","null","","null","","","","","","","","./tasks/HMM-beads/Images/BlackBeadChoiceWrong.png","","","","","","","","","","","","","","","","","","","","","","","",""
"image-keyboard-response","110","1442599","0.0-4.0-6.0-1.0-0.11","5f6056e9a41e0d14d4c19f4c","63690f60c96a0a9a64b48fbc","63691d893b806c079eef62dd","313","","j","","","","","","","","./tasks/HMM-beads/Images/NewTrialWC.png","lowH","11","2","2","2","2","true","","","","","","","","","","","","","","","","",""
"image-keyboard-response","111","1442909","0.0-4.0-6.0-1.0-1.11","5f6056e9a41e0d14d4c19f4c","63690f60c96a0a9a64b48fbc","63691d893b806c079eef62dd","null","","null","","","","","","","","./tasks/HMM-beads/Images/WhiteBeadChoice.png","","","","","","","","","","","","","","","","","","","","","","","",""
"image-keyboard-response","112","1443423","0.0-4.0-6.0-1.0-2.11","5f6056e9a41e0d14d4c19f4c","63690f60c96a0a9a64b48fbc","63691d893b806c079eef62dd","null","","null","","","","","","","","./tasks/HMM-beads/Images/WhiteBeadChoiceCorrect.png","","","","","","","","","","","","","","","","","","","","","","","",""
"image-keyboard-response","113","1443687","0.0-4.0-6.0-1.0-0.12","5f6056e9a41e0d14d4c19f4c","63690f60c96a0a9a64b48fbc","63691d893b806c079eef62dd","264","","j","","","","","","","","./tasks/HMM-beads/Images/NewTrialWC.png","lowH","12","2","2","2","2","true","","","","","","","","","","","","","","","","",""
"image-keyboard-response","114","1443998","0.0-4.0-6.0-1.0-1.12","5f6056e9a41e0d14d4c19f4c","63690f60c96a0a9a64b48fbc","63691d893b806c079eef62dd","null","","null","","","","","","","","./tasks/HMM-beads/Images/WhiteBeadChoice.png","","","","","","","","","","","","","","","","","","","","","","","",""
"image-keyboard-response","115","1444511","0.0-4.0-6.0-1.0-2.12","5f6056e9a41e0d14d4c19f4c","63690f60c96a0a9a64b48fbc","63691d893b806c079eef62dd","null","","null","","","","","","","","./tasks/HMM-beads/Images/WhiteBeadChoiceCorrect.png","","","","","","","","","","","","","","","","","","","","","","","",""
"image-keyboard-response","116","1444759","0.0-4.0-6.0-1.0-0.13","5f6056e9a41e0d14d4c19f4c","63690f60c96a0a9a64b48fbc","63691d893b806c079eef62dd","247","","j","","","","","","","","./tasks/HMM-beads/Images/NewTrialWC.png","lowH","13","2","2","2","2","true","","","","","","","","","","","","","","","","",""
"image-keyboard-response","117","1445071","0.0-4.0-6.0-1.0-1.13","5f6056e9a41e0d14d4c19f4c","63690f60c96a0a9a64b48fbc","63691d893b806c079eef62dd","null","","null","","","","","","","","./tasks/HMM-beads/Images/WhiteBeadChoice.png","","","","","","","","","","","","","","","","","","","","","","","",""
"image-keyboard-response","118","1445585","0.0-4.0-6.0-1.0-2.13","5f6056e9a41e0d14d4c19f4c","63690f60c96a0a9a64b48fbc","63691d893b806c079eef62dd","null","","null","","","","","","","","./tasks/HMM-beads/Images/WhiteBeadChoiceCorrect.png","","","","","","","","","","","","","","","","","","","","","","","",""
"image-keyboard-response","119","1445903","0.0-4.0-6.0-1.0-0.14","5f6056e9a41e0d14d4c19f4c","63690f60c96a0a9a64b48fbc","63691d893b806c079eef62dd","317","","j","","","","","","","","./tasks/HMM-beads/Images/NewTrialWC.png","lowH","14","2","2","2","2","true","","","","","","","","","","","","","","","","",""
"image-keyboard-response","120","1446210","0.0-4.0-6.0-1.0-1.14","5f6056e9a41e0d14d4c19f4c","63690f60c96a0a9a64b48fbc","63691d893b806c079eef62dd","null","","null","","","","","","","","./tasks/HMM-beads/Images/WhiteBeadChoice.png","","","","","","","","","","","","","","","","","","","","","","","",""
"image-keyboard-response","121","1446725","0.0-4.0-6.0-1.0-2.14","5f6056e9a41e0d14d4c19f4c","63690f60c96a0a9a64b48fbc","63691d893b806c079eef62dd","null","","null","","","","","","","","./tasks/HMM-beads/Images/WhiteBeadChoiceCorrect.png","","","","","","","","","","","","","","","","","","","","","","","",""
"image-keyboard-response","122","1446799","0.0-4.0-6.0-1.0-0.15","5f6056e9a41e0d14d4c19f4c","63690f60c96a0a9a64b48fbc","63691d893b806c079eef62dd","73","","j","","","","","","","","./tasks/HMM-beads/Images/NewTrialWC.png","lowH","15","2","1","2","2","false","","","","","","","","","","","","","","","","",""
"image-keyboard-response","123","1447112","0.0-4.0-6.0-1.0-1.15","5f6056e9a41e0d14d4c19f4c","63690f60c96a0a9a64b48fbc","63691d893b806c079eef62dd","null","","null","","","","","","","","./tasks/HMM-beads/Images/WhiteBeadChoice.png","","","","","","","","","","","","","","","","","","","","","","","",""
"image-keyboard-response","124","1447626","0.0-4.0-6.0-1.0-2.15","5f6056e9a41e0d14d4c19f4c","63690f60c96a0a9a64b48fbc","63691d893b806c079eef62dd","null","","null","","","","","","","","./tasks/HMM-beads/Images/WhiteBeadChoiceWrong.png","","","","","","","","","","","","","","","","","","","","","","","",""
"image-keyboard-response","125","1449863","0.0-4.0-6.0-1.0-0.16","5f6056e9a41e0d14d4c19f4c","63690f60c96a0a9a64b48fbc","63691d893b806c079eef62dd","2237","","j","","","","","","","","./tasks/HMM-beads/Images/NewTrialBC.png","lowH","16","2","1","1","2","false","","","","","","","","","","","","","","","","",""
"image-keyboard-response","126","1450178","0.0-4.0-6.0-1.0-1.16","5f6056e9a41e0d14d4c19f4c","63690f60c96a0a9a64b48fbc","63691d893b806c079eef62dd","null","","null","","","","","","","","./tasks/HMM-beads/Images/WhiteBeadChoice.png","","","","","","","","","","","","","","","","","","","","","","","",""
"image-keyboard-response","127","1450693","0.0-4.0-6.0-1.0-2.16","5f6056e9a41e0d14d4c19f4c","63690f60c96a0a9a64b48fbc","63691d893b806c079eef62dd","null","","null","","","","","","","","./tasks/HMM-beads/Images/WhiteBeadChoiceWrong.png","","","","","","","","","","","","","","","","","","","","","","","",""
"image-keyboard-response","128","1451023","0.0-4.0-6.0-1.0-0.17","5f6056e9a41e0d14d4c19f4c","63690f60c96a0a9a64b48fbc","63691d893b806c079eef62dd","330","","f","","","","","","","","./tasks/HMM-beads/Images/NewTrialBC.png","lowH","17","2","2","1","1","false","","","","","","","","","","","","","","","","",""
"image-keyboard-response","129","1451330","0.0-4.0-6.0-1.0-1.17","5f6056e9a41e0d14d4c19f4c","63690f60c96a0a9a64b48fbc","63691d893b806c079eef62dd","null","","null","","","","","","","","./tasks/HMM-beads/Images/BlackBeadChoice.png","","","","","","","","","","","","","","","","","","","","","","","",""
"image-keyboard-response","130","1451844","0.0-4.0-6.0-1.0-2.17","5f6056e9a41e0d14d4c19f4c","63690f60c96a0a9a64b48fbc","63691d893b806c079eef62dd","null","","null","","","","","","","","./tasks/HMM-beads/Images/BlackBeadChoiceWrong.png","","","","","","","","","","","","","","","","","","","","","","","",""
"image-keyboard-response","131","1452287","0.0-4.0-6.0-1.0-0.18","5f6056e9a41e0d14d4c19f4c","63690f60c96a0a9a64b48fbc","63691d893b806c079eef62dd","443","","j","","","","","","","","./tasks/HMM-beads/Images/NewTrialWC.png","lowH","18","2","2","2","2","true","","","","","","","","","","","","","","","","",""
"image-keyboard-response","132","1452589","0.0-4.0-6.0-1.0-1.18","5f6056e9a41e0d14d4c19f4c","63690f60c96a0a9a64b48fbc","63691d893b806c079eef62dd","null","","null","","","","","","","","./tasks/HMM-beads/Images/WhiteBeadChoice.png","","","","","","","","","","","","","","","","","","","","","","","",""
"image-keyboard-response","133","1453102","0.0-4.0-6.0-1.0-2.18","5f6056e9a41e0d14d4c19f4c","63690f60c96a0a9a64b48fbc","63691d893b806c079eef62dd","null","","null","","","","","","","","./tasks/HMM-beads/Images/WhiteBeadChoiceCorrect.png","","","","","","","","","","","","","","","","","","","","","","","",""
"image-keyboard-response","134","1453503","0.0-4.0-6.0-1.0-0.19","5f6056e9a41e0d14d4c19f4c","63690f60c96a0a9a64b48fbc","63691d893b806c079eef62dd","400","","j","","","","","","","","./tasks/HMM-beads/Images/NewTrialWC.png","lowH","19","2","2","2","2","true","","","","","","","","","","","","","","","","",""
"image-keyboard-response","135","1453817","0.0-4.0-6.0-1.0-1.19","5f6056e9a41e0d14d4c19f4c","63690f60c96a0a9a64b48fbc","63691d893b806c079eef62dd","null","","null","","","","","","","","./tasks/HMM-beads/Images/WhiteBeadChoice.png","","","","","","","","","","","","","","","","","","","","","","","",""
"image-keyboard-response","136","1454331","0.0-4.0-6.0-1.0-2.19","5f6056e9a41e0d14d4c19f4c","63690f60c96a0a9a64b48fbc","63691d893b806c079eef62dd","null","","null","","","","","","","","./tasks/HMM-beads/Images/WhiteBeadChoiceCorrect.png","","","","","","","","","","","","","","","","","","","","","","","",""
"image-keyboard-response","137","1454647","0.0-4.0-6.0-1.0-0.20","5f6056e9a41e0d14d4c19f4c","63690f60c96a0a9a64b48fbc","63691d893b806c079eef62dd","316","","j","","","","","","","","./tasks/HMM-beads/Images/NewTrialWC.png","lowH","20","2","2","2","2","true","","","","","","","","","","","","","","","","",""
"image-keyboard-response","138","1454953","0.0-4.0-6.0-1.0-1.20","5f6056e9a41e0d14d4c19f4c","63690f60c96a0a9a64b48fbc","63691d893b806c079eef62dd","null","","null","","","","","","","","./tasks/HMM-beads/Images/WhiteBeadChoice.png","","","","","","","","","","","","","","","","","","","","","","","",""
"image-keyboard-response","139","1455467","0.0-4.0-6.0-1.0-2.20","5f6056e9a41e0d14d4c19f4c","63690f60c96a0a9a64b48fbc","63691d893b806c079eef62dd","null","","null","","","","","","","","./tasks/HMM-beads/Images/WhiteBeadChoiceCorrect.png","","","","","","","","","","","","","","","","","","","","","","","",""
"image-keyboard-response","140","1455711","0.0-4.0-6.0-1.0-0.21","5f6056e9a41e0d14d4c19f4c","63690f60c96a0a9a64b48fbc","63691d893b806c079eef62dd","243","","j","","","","","","","","./tasks/HMM-beads/Images/NewTrialWC.png","lowH","21","2","2","2","2","true","","","","","","","","","","","","","","","","",""
"image-keyboard-response","141","1456028","0.0-4.0-6.0-1.0-1.21","5f6056e9a41e0d14d4c19f4c","63690f60c96a0a9a64b48fbc","63691d893b806c079eef62dd","null","","null","","","","","","","","./tasks/HMM-beads/Images/WhiteBeadChoice.png","","","","","","","","","","","","","","","","","","","","","","","",""
"image-keyboard-response","142","1456541","0.0-4.0-6.0-1.0-2.21","5f6056e9a41e0d14d4c19f4c","63690f60c96a0a9a64b48fbc","63691d893b806c079eef62dd","null","","null","","","","","","","","./tasks/HMM-beads/Images/WhiteBeadChoiceCorrect.png","","","","","","","","","","","","","","","","","","","","","","","",""
"image-keyboard-response","143","1456856","0.0-4.0-6.0-1.0-0.22","5f6056e9a41e0d14d4c19f4c","63690f60c96a0a9a64b48fbc","63691d893b806c079eef62dd","313","","j","","","","","","","","./tasks/HMM-beads/Images/NewTrialWC.png","lowH","22","2","2","2","2","true","","","","","","","","","","","","","","","","",""
"image-keyboard-response","144","1457166","0.0-4.0-6.0-1.0-1.22","5f6056e9a41e0d14d4c19f4c","63690f60c96a0a9a64b48fbc","63691d893b806c079eef62dd","null","","null","","","","","","","","./tasks/HMM-beads/Images/WhiteBeadChoice.png","","","","","","","","","","","","","","","","","","","","","","","",""
"image-keyboard-response","145","1457682","0.0-4.0-6.0-1.0-2.22","5f6056e9a41e0d14d4c19f4c","63690f60c96a0a9a64b48fbc","63691d893b806c079eef62dd","null","","null","","","","","","","","./tasks/HMM-beads/Images/WhiteBeadChoiceCorrect.png","","","","","","","","","","","","","","","","","","","","","","","",""
"image-keyboard-response","146","1457983","0.0-4.0-6.0-1.0-0.23","5f6056e9a41e0d14d4c19f4c","63690f60c96a0a9a64b48fbc","63691d893b806c079eef62dd","301","","j","","","","","","","","./tasks/HMM-beads/Images/NewTrialWC.png","lowH","23","2","2","2","2","true","","","","","","","","","","","","","","","","",""
"image-keyboard-response","147","1458290","0.0-4.0-6.0-1.0-1.23","5f6056e9a41e0d14d4c19f4c","63690f60c96a0a9a64b48fbc","63691d893b806c079eef62dd","null","","null","","","","","","","","./tasks/HMM-beads/Images/WhiteBeadChoice.png","","","","","","","","","","","","","","","","","","","","","","","",""
"image-keyboard-response","148","1458801","0.0-4.0-6.0-1.0-2.23","5f6056e9a41e0d14d4c19f4c","63690f60c96a0a9a64b48fbc","63691d893b806c079eef62dd","null","","null","","","","","","","","./tasks/HMM-beads/Images/WhiteBeadChoiceCorrect.png","","","","","","","","","","","","","","","","","","","","","","","",""
"image-keyboard-response","149","1459143","0.0-4.0-6.0-1.0-0.24","5f6056e9a41e0d14d4c19f4c","63690f60c96a0a9a64b48fbc","63691d893b806c079eef62dd","341","","j","","","","","","","","./tasks/HMM-beads/Images/NewTrialWC.png","lowH","24","2","2","2","2","true","","","","","","","","","","","","","","","","",""
"image-keyboard-response","150","1459454","0.0-4.0-6.0-1.0-1.24","5f6056e9a41e0d14d4c19f4c","63690f60c96a0a9a64b48fbc","63691d893b806c079eef62dd","null","","null","","","","","","","","./tasks/HMM-beads/Images/WhiteBeadChoice.png","","","","","","","","","","","","","","","","","","","","","","","",""
"image-keyboard-response","151","1459967","0.0-4.0-6.0-1.0-2.24","5f6056e9a41e0d14d4c19f4c","63690f60c96a0a9a64b48fbc","63691d893b806c079eef62dd","null","","null","","","","","","","","./tasks/HMM-beads/Images/WhiteBeadChoiceCorrect.png","","","","","","","","","","","","","","","","","","","","","","","",""
"image-keyboard-response","152","1460359","0.0-4.0-6.0-1.0-0.25","5f6056e9a41e0d14d4c19f4c","63690f60c96a0a9a64b48fbc","63691d893b806c079eef62dd","389","","j","","","","","","","","./tasks/HMM-beads/Images/NewTrialWC.png","lowH","25","2","2","2","2","true","","","","","","","","","","","","","","","","",""
"image-keyboard-response","153","1460666","0.0-4.0-6.0-1.0-1.25","5f6056e9a41e0d14d4c19f4c","63690f60c96a0a9a64b48fbc","63691d893b806c079eef62dd","null","","null","","","","","","","","./tasks/HMM-beads/Images/WhiteBeadChoice.png","","","","","","","","","","","","","","","","","","","","","","","",""
"image-keyboard-response","154","1461179","0.0-4.0-6.0-1.0-2.25","5f6056e9a41e0d14d4c19f4c","63690f60c96a0a9a64b48fbc","63691d893b806c079eef62dd","null","","null","","","","","","","","./tasks/HMM-beads/Images/WhiteBeadChoiceCorrect.png","","","","","","","","","","","","","","","","","","","","","","","",""
"image-keyboard-response","155","1461335","0.0-4.0-6.0-1.0-0.26","5f6056e9a41e0d14d4c19f4c","63690f60c96a0a9a64b48fbc","63691d893b806c079eef62dd","155","","j","","","","","","","","./tasks/HMM-beads/Images/NewTrialWC.png","lowH","26","2","2","2","2","true","","","","","","","","","","","","","","","","",""
"image-keyboard-response","156","1461648","0.0-4.0-6.0-1.0-1.26","5f6056e9a41e0d14d4c19f4c","63690f60c96a0a9a64b48fbc","63691d893b806c079eef62dd","null","","null","","","","","","","","./tasks/HMM-beads/Images/WhiteBeadChoice.png","","","","","","","","","","","","","","","","","","","","","","","",""
"image-keyboard-response","157","1462161","0.0-4.0-6.0-1.0-2.26","5f6056e9a41e0d14d4c19f4c","63690f60c96a0a9a64b48fbc","63691d893b806c079eef62dd","null","","null","","","","","","","","./tasks/HMM-beads/Images/WhiteBeadChoiceCorrect.png","","","","","","","","","","","","","","","","","","","","","","","",""
"image-keyboard-response","158","1462271","0.0-4.0-6.0-1.0-0.27","5f6056e9a41e0d14d4c19f4c","63690f60c96a0a9a64b48fbc","63691d893b806c079eef62dd","109","","j","","","","","","","","./tasks/HMM-beads/Images/NewTrialWC.png","lowH","27","2","2","2","2","true","","","","","","","","","","","","","","","","",""
"image-keyboard-response","159","1462579","0.0-4.0-6.0-1.0-1.27","5f6056e9a41e0d14d4c19f4c","63690f60c96a0a9a64b48fbc","63691d893b806c079eef62dd","null","","null","","","","","","","","./tasks/HMM-beads/Images/WhiteBeadChoice.png","","","","","","","","","","","","","","","","","","","","","","","",""
"image-keyboard-response","160","1463095","0.0-4.0-6.0-1.0-2.27","5f6056e9a41e0d14d4c19f4c","63690f60c96a0a9a64b48fbc","63691d893b806c079eef62dd","null","","null","","","","","","","","./tasks/HMM-beads/Images/WhiteBeadChoiceCorrect.png","","","","","","","","","","","","","","","","","","","","","","","",""
"image-keyboard-response","161","1463168","0.0-4.0-6.0-1.0-0.28","5f6056e9a41e0d14d4c19f4c","63690f60c96a0a9a64b48fbc","63691d893b806c079eef62dd","72","","j","","","","","","","","./tasks/HMM-beads/Images/NewTrialWC.png","lowH","28","2","2","2","2","true","","","","","","","","","","","","","","","","",""
"image-keyboard-response","162","1463482","0.0-4.0-6.0-1.0-1.28","5f6056e9a41e0d14d4c19f4c","63690f60c96a0a9a64b48fbc","63691d893b806c079eef62dd","null","","null","","","","","","","","./tasks/HMM-beads/Images/WhiteBeadChoice.png","","","","","","","","","","","","","","","","","","","","","","","",""
"image-keyboard-response","163","1463996","0.0-4.0-6.0-1.0-2.28","5f6056e9a41e0d14d4c19f4c","63690f60c96a0a9a64b48fbc","63691d893b806c079eef62dd","null","","null","","","","","","","","./tasks/HMM-beads/Images/WhiteBeadChoiceCorrect.png","","","","","","","","","","","","","","","","","","","","","","","",""
"image-keyboard-response","164","1464271","0.0-4.0-6.0-1.0-0.29","5f6056e9a41e0d14d4c19f4c","63690f60c96a0a9a64b48fbc","63691d893b806c079eef62dd","274","","j","","","","","","","","./tasks/HMM-beads/Images/NewTrialWC.png","lowH","29","2","1","2","2","false","","","","","","","","","","","","","","","","",""
"image-keyboard-response","165","1464588","0.0-4.0-6.0-1.0-1.29","5f6056e9a41e0d14d4c19f4c","63690f60c96a0a9a64b48fbc","63691d893b806c079eef62dd","null","","null","","","","","","","","./tasks/HMM-beads/Images/WhiteBeadChoice.png","","","","","","","","","","","","","","","","","","","","","","","",""
"image-keyboard-response","166","1465102","0.0-4.0-6.0-1.0-2.29","5f6056e9a41e0d14d4c19f4c","63690f60c96a0a9a64b48fbc","63691d893b806c079eef62dd","null","","null","","","","","","","","./tasks/HMM-beads/Images/WhiteBeadChoiceWrong.png","","","","","","","","","","","","","","","","","","","","","","","",""
"image-keyboard-response","167","1465463","0.0-4.0-6.0-1.0-0.30","5f6056e9a41e0d14d4c19f4c","63690f60c96a0a9a64b48fbc","63691d893b806c079eef62dd","361","","j","","","","","","","","./tasks/HMM-beads/Images/NewTrialBC.png","lowH","30","2","2","1","2","true","","","","","","","","","","","","","","","","",""
"image-keyboard-response","168","1465773","0.0-4.0-6.0-1.0-1.30","5f6056e9a41e0d14d4c19f4c","63690f60c96a0a9a64b48fbc","63691d893b806c079eef62dd","null","","null","","","","","","","","./tasks/HMM-beads/Images/WhiteBeadChoice.png","","","","","","","","","","","","","","","","","","","","","","","",""
"image-keyboard-response","169","1466288","0.0-4.0-6.0-1.0-2.30","5f6056e9a41e0d14d4c19f4c","63690f60c96a0a9a64b48fbc","63691d893b806c079eef62dd","null","","null","","","","","","","","./tasks/HMM-beads/Images/WhiteBeadChoiceCorrect.png","","","","","","","","","","","","","","","","","","","","","","","",""
"image-keyboard-response","170","1466647","0.0-4.0-6.0-1.0-0.31","5f6056e9a41e0d14d4c19f4c","63690f60c96a0a9a64b48fbc","63691d893b806c079eef62dd","359","","j","","","","","","","","./tasks/HMM-beads/Images/NewTrialWC.png","lowH","31","2","1","2","2","false","","","","","","","","","","","","","","","","",""
"image-keyboard-response","171","1466957","0.0-4.0-6.0-1.0-1.31","5f6056e9a41e0d14d4c19f4c","63690f60c96a0a9a64b48fbc","63691d893b806c079eef62dd","null","","null","","","","","","","","./tasks/HMM-beads/Images/WhiteBeadChoice.png","","","","","","","","","","","","","","","","","","","","","","","",""
"image-keyboard-response","172","1467471","0.0-4.0-6.0-1.0-2.31","5f6056e9a41e0d14d4c19f4c","63690f60c96a0a9a64b48fbc","63691d893b806c079eef62dd","null","","null","","","","","","","","./tasks/HMM-beads/Images/WhiteBeadChoiceWrong.png","","","","","","","","","","","","","","","","","","","","","","","",""
"image-keyboard-response","173","1467839","0.0-4.0-6.0-1.0-0.32","5f6056e9a41e0d14d4c19f4c","63690f60c96a0a9a64b48fbc","63691d893b806c079eef62dd","368","","j","","","","","","","","./tasks/HMM-beads/Images/NewTrialBC.png","lowH","32","2","2","1","2","true","","","","","","","","","","","","","","","","",""
"image-keyboard-response","174","1468153","0.0-4.0-6.0-1.0-1.32","5f6056e9a41e0d14d4c19f4c","63690f60c96a0a9a64b48fbc","63691d893b806c079eef62dd","null","","null","","","","","","","","./tasks/HMM-beads/Images/WhiteBeadChoice.png","","","","","","","","","","","","","","","","","","","","","","","",""
"image-keyboard-response","175","1468666","0.0-4.0-6.0-1.0-2.32","5f6056e9a41e0d14d4c19f4c","63690f60c96a0a9a64b48fbc","63691d893b806c079eef62dd","null","","null","","","","","","","","./tasks/HMM-beads/Images/WhiteBeadChoiceCorrect.png","","","","","","","","","","","","","","","","","","","","","","","",""
"image-keyboard-response","176","1468911","0.0-4.0-6.0-1.0-0.33","5f6056e9a41e0d14d4c19f4c","63690f60c96a0a9a64b48fbc","63691d893b806c079eef62dd","244","","j","","","","","","","","./tasks/HMM-beads/Images/NewTrialWC.png","lowH","33","2","2","2","2","true","","","","","","","","","","","","","","","","",""
"image-keyboard-response","177","1469225","0.0-4.0-6.0-1.0-1.33","5f6056e9a41e0d14d4c19f4c","63690f60c96a0a9a64b48fbc","63691d893b806c079eef62dd","null","","null","","","","","","","","./tasks/HMM-beads/Images/WhiteBeadChoice.png","","","","","","","","","","","","","","","","","","","","","","","",""
"image-keyboard-response","178","1469740","0.0-4.0-6.0-1.0-2.33","5f6056e9a41e0d14d4c19f4c","63690f60c96a0a9a64b48fbc","63691d893b806c079eef62dd","null","","null","","","","","","","","./tasks/HMM-beads/Images/WhiteBeadChoiceCorrect.png","","","","","","","","","","","","","","","","","","","","","","","",""
"image-keyboard-response","179","1469975","0.0-4.0-6.0-1.0-0.34","5f6056e9a41e0d14d4c19f4c","63690f60c96a0a9a64b48fbc","63691d893b806c079eef62dd","234","","j","","","","","","","","./tasks/HMM-beads/Images/NewTrialWC.png","lowH","34","2","2","2","2","true","","","","","","","","","","","","","","","","",""
"image-keyboard-response","180","1470285","0.0-4.0-6.0-1.0-1.34","5f6056e9a41e0d14d4c19f4c","63690f60c96a0a9a64b48fbc","63691d893b806c079eef62dd","null","","null","","","","","","","","./tasks/HMM-beads/Images/WhiteBeadChoice.png","","","","","","","","","","","","","","","","","","","","","","","",""
"image-keyboard-response","181","1470799","0.0-4.0-6.0-1.0-2.34","5f6056e9a41e0d14d4c19f4c","63690f60c96a0a9a64b48fbc","63691d893b806c079eef62dd","null","","null","","","","","","","","./tasks/HMM-beads/Images/WhiteBeadChoiceCorrect.png","","","","","","","","","","","","","","","","","","","","","","","",""
"image-keyboard-response","182","1471119","0.0-4.0-6.0-1.0-0.35","5f6056e9a41e0d14d4c19f4c","63690f60c96a0a9a64b48fbc","63691d893b806c079eef62dd","320","","j","","","","","","","","./tasks/HMM-beads/Images/NewTrialWC.png","lowH","35","2","2","2","2","true","","","","","","","","","","","","","","","","",""
"image-keyboard-response","183","1471420","0.0-4.0-6.0-1.0-1.35","5f6056e9a41e0d14d4c19f4c","63690f60c96a0a9a64b48fbc","63691d893b806c079eef62dd","null","","null","","","","","","","","./tasks/HMM-beads/Images/WhiteBeadChoice.png","","","","","","","","","","","","","","","","","","","","","","","",""
"image-keyboard-response","184","1471934","0.0-4.0-6.0-1.0-2.35","5f6056e9a41e0d14d4c19f4c","63690f60c96a0a9a64b48fbc","63691d893b806c079eef62dd","null","","null","","","","","","","","./tasks/HMM-beads/Images/WhiteBeadChoiceCorrect.png","","","","","","","","","","","","","","","","","","","","","","","",""
"image-keyboard-response","185","1472143","0.0-4.0-6.0-1.0-0.36","5f6056e9a41e0d14d4c19f4c","63690f60c96a0a9a64b48fbc","63691d893b806c079eef62dd","208","","j","","","","","","","","./tasks/HMM-beads/Images/NewTrialWC.png","lowH","36","2","2","2","2","true","","","","","","","","","","","","","","","","",""
"image-keyboard-response","186","1472445","0.0-4.0-6.0-1.0-1.36","5f6056e9a41e0d14d4c19f4c","63690f60c96a0a9a64b48fbc","63691d893b806c079eef62dd","null","","null","","","","","","","","./tasks/HMM-beads/Images/WhiteBeadChoice.png","","","","","","","","","","","","","","","","","","","","","","","",""
"image-keyboard-response","187","1472960","0.0-4.0-6.0-1.0-2.36","5f6056e9a41e0d14d4c19f4c","63690f60c96a0a9a64b48fbc","63691d893b806c079eef62dd","null","","null","","","","","","","","./tasks/HMM-beads/Images/WhiteBeadChoiceCorrect.png","","","","","","","","","","","","","","","","","","","","","","","",""
"image-keyboard-response","188","1473239","0.0-4.0-6.0-1.0-0.37","5f6056e9a41e0d14d4c19f4c","63690f60c96a0a9a64b48fbc","63691d893b806c079eef62dd","279","","j","","","","","","","","./tasks/HMM-beads/Images/NewTrialWC.png","lowH","37","2","2","2","2","true","","","","","","","","","","","","","","","","",""
"image-keyboard-response","189","1473550","0.0-4.0-6.0-1.0-1.37","5f6056e9a41e0d14d4c19f4c","63690f60c96a0a9a64b48fbc","63691d893b806c079eef62dd","null","","null","","","","","","","","./tasks/HMM-beads/Images/WhiteBeadChoice.png","","","","","","","","","","","","","","","","","","","","","","","",""
"image-keyboard-response","190","1474063","0.0-4.0-6.0-1.0-2.37","5f6056e9a41e0d14d4c19f4c","63690f60c96a0a9a64b48fbc","63691d893b806c079eef62dd","null","","null","","","","","","","","./tasks/HMM-beads/Images/WhiteBeadChoiceCorrect.png","","","","","","","","","","","","","","","","","","","","","","","",""
"image-keyboard-response","191","1474215","0.0-4.0-6.0-1.0-0.38","5f6056e9a41e0d14d4c19f4c","63690f60c96a0a9a64b48fbc","63691d893b806c079eef62dd","151","","j","","","","","","","","./tasks/HMM-beads/Images/NewTrialWC.png","lowH","38","2","2","2","2","true","","","","","","","","","","","","","","","","",""
"image-keyboard-response","192","1474530","0.0-4.0-6.0-1.0-1.38","5f6056e9a41e0d14d4c19f4c","63690f60c96a0a9a64b48fbc","63691d893b806c079eef62dd","null","","null","","","","","","","","./tasks/HMM-beads/Images/WhiteBeadChoice.png","","","","","","","","","","","","","","","","","","","","","","","",""
"image-keyboard-response","193","1475043","0.0-4.0-6.0-1.0-2.38","5f6056e9a41e0d14d4c19f4c","63690f60c96a0a9a64b48fbc","63691d893b806c079eef62dd","null","","null","","","","","","","","./tasks/HMM-beads/Images/WhiteBeadChoiceCorrect.png","","","","","","","","","","","","","","","","","","","","","","","",""
"image-keyboard-response","194","1475136","0.0-4.0-6.0-1.0-0.39","5f6056e9a41e0d14d4c19f4c","63690f60c96a0a9a64b48fbc","63691d893b806c079eef62dd","92","","j","","","","","","","","./tasks/HMM-beads/Images/NewTrialWC.png","lowH","39","2","1","2","2","false","","","","","","","","","","","","","","","","",""
"image-keyboard-response","195","1475447","0.0-4.0-6.0-1.0-1.39","5f6056e9a41e0d14d4c19f4c","63690f60c96a0a9a64b48fbc","63691d893b806c079eef62dd","null","","null","","","","","","","","./tasks/HMM-beads/Images/WhiteBeadChoice.png","","","","","","","","","","","","","","","","","","","","","","","",""
"image-keyboard-response","196","1475960","0.0-4.0-6.0-1.0-2.39","5f6056e9a41e0d14d4c19f4c","63690f60c96a0a9a64b48fbc","63691d893b806c079eef62dd","null","","null","","","","","","","","./tasks/HMM-beads/Images/WhiteBeadChoiceWrong.png","","","","","","","","","","","","","","","","","","","","","","","",""
"image-keyboard-response","197","1476727","0.0-4.0-6.0-1.0-0.40","5f6056e9a41e0d14d4c19f4c","63690f60c96a0a9a64b48fbc","63691d893b806c079eef62dd","767","","j","","","","","","","","./tasks/HMM-beads/Images/NewTrialBC.png","lowH","40","2","2","1","2","true","","","","","","","","","","","","","","","","",""
"image-keyboard-response","198","1477035","0.0-4.0-6.0-1.0-1.40","5f6056e9a41e0d14d4c19f4c","63690f60c96a0a9a64b48fbc","63691d893b806c079eef62dd","null","","null","","","","","","","","./tasks/HMM-beads/Images/WhiteBeadChoice.png","","","","","","","","","","","","","","","","","","","","","","","",""
"image-keyboard-response","199","1477550","0.0-4.0-6.0-1.0-2.40","5f6056e9a41e0d14d4c19f4c","63690f60c96a0a9a64b48fbc","63691d893b806c079eef62dd","null","","null","","","","","","","","./tasks/HMM-beads/Images/WhiteBeadChoiceCorrect.png","","","","","","","","","","","","","","","","","","","","","","","",""
"image-keyboard-response","200","1477631","0.0-4.0-6.0-1.0-0.41","5f6056e9a41e0d14d4c19f4c","63690f60c96a0a9a64b48fbc","63691d893b806c079eef62dd","80","","j","","","","","","","","./tasks/HMM-beads/Images/NewTrialWC.png","lowH","41","2","1","2","2","false","","","","","","","","","","","","","","","","",""
"image-keyboard-response","201","1477938","0.0-4.0-6.0-1.0-1.41","5f6056e9a41e0d14d4c19f4c","63690f60c96a0a9a64b48fbc","63691d893b806c079eef62dd","null","","null","","","","","","","","./tasks/HMM-beads/Images/WhiteBeadChoice.png","","","","","","","","","","","","","","","","","","","","","","","",""
"image-keyboard-response","202","1478453","0.0-4.0-6.0-1.0-2.41","5f6056e9a41e0d14d4c19f4c","63690f60c96a0a9a64b48fbc","63691d893b806c079eef62dd","null","","null","","","","","","","","./tasks/HMM-beads/Images/WhiteBeadChoiceWrong.png","","","","","","","","","","","","","","","","","","","","","","","",""
"image-keyboard-response","203","1478783","0.0-4.0-6.0-1.0-0.42","5f6056e9a41e0d14d4c19f4c","63690f60c96a0a9a64b48fbc","63691d893b806c079eef62dd","329","","j","","","","","","","","./tasks/HMM-beads/Images/NewTrialBC.png","lowH","42","2","1","1","2","false","","","","","","","","","","","","","","","","",""
"image-keyboard-response","204","1479090","0.0-4.0-6.0-1.0-1.42","5f6056e9a41e0d14d4c19f4c","63690f60c96a0a9a64b48fbc","63691d893b806c079eef62dd","null","","null","","","","","","","","./tasks/HMM-beads/Images/WhiteBeadChoice.png","","","","","","","","","","","","","","","","","","","","","","","",""
"image-keyboard-response","205","1479602","0.0-4.0-6.0-1.0-2.42","5f6056e9a41e0d14d4c19f4c","63690f60c96a0a9a64b48fbc","63691d893b806c079eef62dd","null","","null","","","","","","","","./tasks/HMM-beads/Images/WhiteBeadChoiceWrong.png","","","","","","","","","","","","","","","","","","","","","","","",""
"image-keyboard-response","206","1479759","0.0-4.0-6.0-1.0-0.43","5f6056e9a41e0d14d4c19f4c","63690f60c96a0a9a64b48fbc","63691d893b806c079eef62dd","156","","f","","","","","","","","./tasks/HMM-beads/Images/NewTrialBC.png","lowH","43","2","2","1","1","false","","","","","","","","","","","","","","","","",""
"image-keyboard-response","207","1480073","0.0-4.0-6.0-1.0-1.43","5f6056e9a41e0d14d4c19f4c","63690f60c96a0a9a64b48fbc","63691d893b806c079eef62dd","null","","null","","","","","","","","./tasks/HMM-beads/Images/BlackBeadChoice.png","","","","","","","","","","","","","","","","","","","","","","","",""
"image-keyboard-response","208","1480587","0.0-4.0-6.0-1.0-2.43","5f6056e9a41e0d14d4c19f4c","63690f60c96a0a9a64b48fbc","63691d893b806c079eef62dd","null","","null","","","","","","","","./tasks/HMM-beads/Images/BlackBeadChoiceWrong.png","","","","","","","","","","","","","","","","","","","","","","","",""
"image-keyboard-response","209","1480607","0.0-4.0-6.0-1.0-0.44","5f6056e9a41e0d14d4c19f4c","63690f60c96a0a9a64b48fbc","63691d893b806c079eef62dd","20","","j","","","","","","","","./tasks/HMM-beads/Images/NewTrialWC.png","lowH","44","2","2","2","2","true","","","","","","","","","","","","","","","","",""
"image-keyboard-response","210","1480913","0.0-4.0-6.0-1.0-1.44","5f6056e9a41e0d14d4c19f4c","63690f60c96a0a9a64b48fbc","63691d893b806c079eef62dd","null","","null","","","","","","","","./tasks/HMM-beads/Images/WhiteBeadChoice.png","","","","","","","","","","","","","","","","","","","","","","","",""
"image-keyboard-response","211","1481427","0.0-4.0-6.0-1.0-2.44","5f6056e9a41e0d14d4c19f4c","63690f60c96a0a9a64b48fbc","63691d893b806c079eef62dd","null","","null","","","","","","","","./tasks/HMM-beads/Images/WhiteBeadChoiceCorrect.png","","","","","","","","","","","","","","","","","","","","","","","",""
"image-keyboard-response","212","1481687","0.0-4.0-6.0-1.0-0.45","5f6056e9a41e0d14d4c19f4c","63690f60c96a0a9a64b48fbc","63691d893b806c079eef62dd","259","","j","","","","","","","","./tasks/HMM-beads/Images/NewTrialWC.png","lowH","45","2","1","2","2","false","","","","","","","","","","","","","","","","",""
"image-keyboard-response","213","1481989","0.0-4.0-6.0-1.0-1.45","5f6056e9a41e0d14d4c19f4c","63690f60c96a0a9a64b48fbc","63691d893b806c079eef62dd","null","","null","","","","","","","","./tasks/HMM-beads/Images/WhiteBeadChoice.png","","","","","","","","","","","","","","","","","","","","","","","",""
"image-keyboard-response","214","1482502","0.0-4.0-6.0-1.0-2.45","5f6056e9a41e0d14d4c19f4c","63690f60c96a0a9a64b48fbc","63691d893b806c079eef62dd","null","","null","","","","","","","","./tasks/HMM-beads/Images/WhiteBeadChoiceWrong.png","","","","","","","","","","","","","","","","","","","","","","","",""
"image-keyboard-response","215","1483359","0.0-4.0-6.0-1.0-0.46","5f6056e9a41e0d14d4c19f4c","63690f60c96a0a9a64b48fbc","63691d893b806c079eef62dd","856","","j","","","","","","","","./tasks/HMM-beads/Images/NewTrialBC.png","lowH","46","2","2","1","2","true","","","","","","","","","","","","","","","","",""
"image-keyboard-response","216","1483671","0.0-4.0-6.0-1.0-1.46","5f6056e9a41e0d14d4c19f4c","63690f60c96a0a9a64b48fbc","63691d893b806c079eef62dd","null","","null","","","","","","","","./tasks/HMM-beads/Images/WhiteBeadChoice.png","","","","","","","","","","","","","","","","","","","","","","","",""
"image-keyboard-response","217","1484185","0.0-4.0-6.0-1.0-2.46","5f6056e9a41e0d14d4c19f4c","63690f60c96a0a9a64b48fbc","63691d893b806c079eef62dd","null","","null","","","","","","","","./tasks/HMM-beads/Images/WhiteBeadChoiceCorrect.png","","","","","","","","","","","","","","","","","","","","","","","",""
"image-keyboard-response","218","1484495","0.0-4.0-6.0-1.0-0.47","5f6056e9a41e0d14d4c19f4c","63690f60c96a0a9a64b48fbc","63691d893b806c079eef62dd","309","","j","","","","","","","","./tasks/HMM-beads/Images/NewTrialWC.png","lowH","47","2","2","2","2","true","","","","","","","","","","","","","","","","",""
"image-keyboard-response","219","1484807","0.0-4.0-6.0-1.0-1.47","5f6056e9a41e0d14d4c19f4c","63690f60c96a0a9a64b48fbc","63691d893b806c079eef62dd","null","","null","","","","","","","","./tasks/HMM-beads/Images/WhiteBeadChoice.png","","","","","","","","","","","","","","","","","","","","","","","",""
"image-keyboard-response","220","1485321","0.0-4.0-6.0-1.0-2.47","5f6056e9a41e0d14d4c19f4c","63690f60c96a0a9a64b48fbc","63691d893b806c079eef62dd","null","","null","","","","","","","","./tasks/HMM-beads/Images/WhiteBeadChoiceCorrect.png","","","","","","","","","","","","","","","","","","","","","","","",""
"image-keyboard-response","221","1485808","0.0-4.0-6.0-1.0-0.48","5f6056e9a41e0d14d4c19f4c","63690f60c96a0a9a64b48fbc","63691d893b806c079eef62dd","485","","j","","","","","","","","./tasks/HMM-beads/Images/NewTrialWC.png","lowH","48","2","2","2","2","true","","","","","","","","","","","","","","","","",""
"image-keyboard-response","222","1486116","0.0-4.0-6.0-1.0-1.48","5f6056e9a41e0d14d4c19f4c","63690f60c96a0a9a64b48fbc","63691d893b806c079eef62dd","null","","null","","","","","","","","./tasks/HMM-beads/Images/WhiteBeadChoice.png","","","","","","","","","","","","","","","","","","","","","","","",""
"image-keyboard-response","223","1486630","0.0-4.0-6.0-1.0-2.48","5f6056e9a41e0d14d4c19f4c","63690f60c96a0a9a64b48fbc","63691d893b806c079eef62dd","null","","null","","","","","","","","./tasks/HMM-beads/Images/WhiteBeadChoiceCorrect.png","","","","","","","","","","","","","","","","","","","","","","","",""
"image-keyboard-response","224","1487007","0.0-4.0-6.0-1.0-0.49","5f6056e9a41e0d14d4c19f4c","63690f60c96a0a9a64b48fbc","63691d893b806c079eef62dd","377","","j","","","","","","","","./tasks/HMM-beads/Images/NewTrialWC.png","lowH","49","2","2","2","2","true","","","","","","","","","","","","","","","","",""
"image-keyboard-response","225","1487315","0.0-4.0-6.0-1.0-1.49","5f6056e9a41e0d14d4c19f4c","63690f60c96a0a9a64b48fbc","63691d893b806c079eef62dd","null","","null","","","","","","","","./tasks/HMM-beads/Images/WhiteBeadChoice.png","","","","","","","","","","","","","","","","","","","","","","","",""
"image-keyboard-response","226","1487828","0.0-4.0-6.0-1.0-2.49","5f6056e9a41e0d14d4c19f4c","63690f60c96a0a9a64b48fbc","63691d893b806c079eef62dd","null","","null","","","","","","","","./tasks/HMM-beads/Images/WhiteBeadChoiceCorrect.png","","","","","","","","","","","","","","","","","","","","","","","",""
"image-keyboard-response","227","1487943","0.0-4.0-6.0-1.0-0.50","5f6056e9a41e0d14d4c19f4c","63690f60c96a0a9a64b48fbc","63691d893b806c079eef62dd","115","","j","","","","","","","","./tasks/HMM-beads/Images/NewTrialWC.png","lowH","50","2","1","2","2","false","","","","","","","","","","","","","","","","",""
"image-keyboard-response","228","1488248","0.0-4.0-6.0-1.0-1.50","5f6056e9a41e0d14d4c19f4c","63690f60c96a0a9a64b48fbc","63691d893b806c079eef62dd","null","","null","","","","","","","","./tasks/HMM-beads/Images/WhiteBeadChoice.png","","","","","","","","","","","","","","","","","","","","","","","",""
"image-keyboard-response","229","1488762","0.0-4.0-6.0-1.0-2.50","5f6056e9a41e0d14d4c19f4c","63690f60c96a0a9a64b48fbc","63691d893b806c079eef62dd","null","","null","","","","","","","","./tasks/HMM-beads/Images/WhiteBeadChoiceWrong.png","","","","","","","","","","","","","","","","","","","","","","","",""
"image-keyboard-response","230","1489231","0.0-4.0-6.0-1.0-0.51","5f6056e9a41e0d14d4c19f4c","63690f60c96a0a9a64b48fbc","63691d893b806c079eef62dd","468","","j","","","","","","","","./tasks/HMM-beads/Images/NewTrialBC.png","lowH","51","2","1","1","2","false","","","","","","","","","","","","","","","","",""
"image-keyboard-response","231","1489543","0.0-4.0-6.0-1.0-1.51","5f6056e9a41e0d14d4c19f4c","63690f60c96a0a9a64b48fbc","63691d893b806c079eef62dd","null","","null","","","","","","","","./tasks/HMM-beads/Images/WhiteBeadChoice.png","","","","","","","","","","","","","","","","","","","","","","","",""
"image-keyboard-response","232","1490058","0.0-4.0-6.0-1.0-2.51","5f6056e9a41e0d14d4c19f4c","63690f60c96a0a9a64b48fbc","63691d893b806c079eef62dd","null","","null","","","","","","","","./tasks/HMM-beads/Images/WhiteBeadChoiceWrong.png","","","","","","","","","","","","","","","","","","","","","","","",""
"image-keyboard-response","233","1490191","0.0-4.0-6.0-1.0-0.52","5f6056e9a41e0d14d4c19f4c","63690f60c96a0a9a64b48fbc","63691d893b806c079eef62dd","133","","j","","","","","","","","./tasks/HMM-beads/Images/NewTrialBC.png","lowH","52","2","2","1","2","true","","","","","","","","","","","","","","","","",""
"image-keyboard-response","234","1490508","0.0-4.0-6.0-1.0-1.52","5f6056e9a41e0d14d4c19f4c","63690f60c96a0a9a64b48fbc","63691d893b806c079eef62dd","null","","null","","","","","","","","./tasks/HMM-beads/Images/WhiteBeadChoice.png","","","","","","","","","","","","","","","","","","","","","","","",""
"image-keyboard-response","235","1491021","0.0-4.0-6.0-1.0-2.52","5f6056e9a41e0d14d4c19f4c","63690f60c96a0a9a64b48fbc","63691d893b806c079eef62dd","null","","null","","","","","","","","./tasks/HMM-beads/Images/WhiteBeadChoiceCorrect.png","","","","","","","","","","","","","","","","","","","","","","","",""
"image-keyboard-response","236","1491039","0.0-4.0-6.0-1.0-0.53","5f6056e9a41e0d14d4c19f4c","63690f60c96a0a9a64b48fbc","63691d893b806c079eef62dd","17","","j","","","","","","","","./tasks/HMM-beads/Images/NewTrialWC.png","lowH","53","2","2","2","2","true","","","","","","","","","","","","","","","","",""
"image-keyboard-response","237","1491348","0.0-4.0-6.0-1.0-1.53","5f6056e9a41e0d14d4c19f4c","63690f60c96a0a9a64b48fbc","63691d893b806c079eef62dd","null","","null","","","","","","","","./tasks/HMM-beads/Images/WhiteBeadChoice.png","","","","","","","","","","","","","","","","","","","","","","","",""
"image-keyboard-response","238","1491861","0.0-4.0-6.0-1.0-2.53","5f6056e9a41e0d14d4c19f4c","63690f60c96a0a9a64b48fbc","63691d893b806c079eef62dd","null","","null","","","","","","","","./tasks/HMM-beads/Images/WhiteBeadChoiceCorrect.png","","","","","","","","","","","","","","","","","","","","","","","",""
"image-keyboard-response","239","1491879","0.0-4.0-6.0-1.0-0.54","5f6056e9a41e0d14d4c19f4c","63690f60c96a0a9a64b48fbc","63691d893b806c079eef62dd","17","","j","","","","","","","","./tasks/HMM-beads/Images/NewTrialWC.png","lowH","54","2","2","2","2","true","","","","","","","","","","","","","","","","",""
"image-keyboard-response","240","1492188","0.0-4.0-6.0-1.0-1.54","5f6056e9a41e0d14d4c19f4c","63690f60c96a0a9a64b48fbc","63691d893b806c079eef62dd","null","","null","","","","","","","","./tasks/HMM-beads/Images/WhiteBeadChoice.png","","","","","","","","","","","","","","","","","","","","","","","",""
"image-keyboard-response","241","1492701","0.0-4.0-6.0-1.0-2.54","5f6056e9a41e0d14d4c19f4c","63690f60c96a0a9a64b48fbc","63691d893b806c079eef62dd","null","","null","","","","","","","","./tasks/HMM-beads/Images/WhiteBeadChoiceCorrect.png","","","","","","","","","","","","","","","","","","","","","","","",""
"image-keyboard-response","242","1492816","0.0-4.0-6.0-1.0-0.55","5f6056e9a41e0d14d4c19f4c","63690f60c96a0a9a64b48fbc","63691d893b806c079eef62dd","113","","j","","","","","","","","./tasks/HMM-beads/Images/NewTrialWC.png","lowH","55","2","2","2","2","true","","","","","","","","","","","","","","","","",""
"image-keyboard-response","243","1493120","0.0-4.0-6.0-1.0-1.55","5f6056e9a41e0d14d4c19f4c","63690f60c96a0a9a64b48fbc","63691d893b806c079eef62dd","null","","null","","","","","","","","./tasks/HMM-beads/Images/WhiteBeadChoice.png","","","","","","","","","","","","","","","","","","","","","","","",""
"image-keyboard-response","244","1493634","0.0-4.0-6.0-1.0-2.55","5f6056e9a41e0d14d4c19f4c","63690f60c96a0a9a64b48fbc","63691d893b806c079eef62dd","null","","null","","","","","","","","./tasks/HMM-beads/Images/WhiteBeadChoiceCorrect.png","","","","","","","","","","","","","","","","","","","","","","","",""
"image-keyboard-response","245","1493776","0.0-4.0-6.0-1.0-0.56","5f6056e9a41e0d14d4c19f4c","63690f60c96a0a9a64b48fbc","63691d893b806c079eef62dd","140","","j","","","","","","","","./tasks/HMM-beads/Images/NewTrialWC.png","lowH","56","2","1","2","2","false","","","","","","","","","","","","","","","","",""
"image-keyboard-response","246","1494085","0.0-4.0-6.0-1.0-1.56","5f6056e9a41e0d14d4c19f4c","63690f60c96a0a9a64b48fbc","63691d893b806c079eef62dd","null","","null","","","","","","","","./tasks/HMM-beads/Images/WhiteBeadChoice.png","","","","","","","","","","","","","","","","","","","","","","","",""
"image-keyboard-response","247","1494598","0.0-4.0-6.0-1.0-2.56","5f6056e9a41e0d14d4c19f4c","63690f60c96a0a9a64b48fbc","63691d893b806c079eef62dd","null","","null","","","","","","","","./tasks/HMM-beads/Images/WhiteBeadChoiceWrong.png","","","","","","","","","","","","","","","","","","","","","","","",""
"image-keyboard-response","248","1494848","0.0-4.0-6.0-1.0-0.57","5f6056e9a41e0d14d4c19f4c","63690f60c96a0a9a64b48fbc","63691d893b806c079eef62dd","248","","j","","","","","","","","./tasks/HMM-beads/Images/NewTrialBC.png","lowH","57","2","2","1","2","true","","","","","","","","","","","","","","","","",""
"image-keyboard-response","249","1495159","0.0-4.0-6.0-1.0-1.57","5f6056e9a41e0d14d4c19f4c","63690f60c96a0a9a64b48fbc","63691d893b806c079eef62dd","null","","null","","","","","","","","./tasks/HMM-beads/Images/WhiteBeadChoice.png","","","","","","","","","","","","","","","","","","","","","","","",""
"image-keyboard-response","250","1495672","0.0-4.0-6.0-1.0-2.57","5f6056e9a41e0d14d4c19f4c","63690f60c96a0a9a64b48fbc","63691d893b806c079eef62dd","null","","null","","","","","","","","./tasks/HMM-beads/Images/WhiteBeadChoiceCorrect.png","","","","","","","","","","","","","","","","","","","","","","","",""
"image-keyboard-response","251","1496216","0.0-4.0-6.0-1.0-0.58","5f6056e9a41e0d14d4c19f4c","63690f60c96a0a9a64b48fbc","63691d893b806c079eef62dd","543","","j","","","","","","","","./tasks/HMM-beads/Images/NewTrialWC.png","lowH","58","2","1","2","2","false","","","","","","","","","","","","","","","","",""
"image-keyboard-response","252","1496528","0.0-4.0-6.0-1.0-1.58","5f6056e9a41e0d14d4c19f4c","63690f60c96a0a9a64b48fbc","63691d893b806c079eef62dd","null","","null","","","","","","","","./tasks/HMM-beads/Images/WhiteBeadChoice.png","","","","","","","","","","","","","","","","","","","","","","","",""
"image-keyboard-response","253","1497043","0.0-4.0-6.0-1.0-2.58","5f6056e9a41e0d14d4c19f4c","63690f60c96a0a9a64b48fbc","63691d893b806c079eef62dd","null","","null","","","","","","","","./tasks/HMM-beads/Images/WhiteBeadChoiceWrong.png","","","","","","","","","","","","","","","","","","","","","","","",""
"image-keyboard-response","254","1500711","0.0-4.0-6.0-1.0-0.59","5f6056e9a41e0d14d4c19f4c","63690f60c96a0a9a64b48fbc","63691d893b806c079eef62dd","3667","","j","","","","","","","","./tasks/HMM-beads/Images/NewTrialBC.png","lowH","59","2","1","1","2","false","","","","","","","","","","","","","","","","",""
"image-keyboard-response","255","1501015","0.0-4.0-6.0-1.0-1.59","5f6056e9a41e0d14d4c19f4c","63690f60c96a0a9a64b48fbc","63691d893b806c079eef62dd","null","","null","","","","","","","","./tasks/HMM-beads/Images/WhiteBeadChoice.png","","","","","","","","","","","","","","","","","","","","","","","",""
"image-keyboard-response","256","1501531","0.0-4.0-6.0-1.0-2.59","5f6056e9a41e0d14d4c19f4c","63690f60c96a0a9a64b48fbc","63691d893b806c079eef62dd","null","","null","","","","","","","","./tasks/HMM-beads/Images/WhiteBeadChoiceWrong.png","","","","","","","","","","","","","","","","","","","","","","","",""
"image-keyboard-response","257","1501967","0.0-4.0-6.0-1.0-0.60","5f6056e9a41e0d14d4c19f4c","63690f60c96a0a9a64b48fbc","63691d893b806c079eef62dd","436","","f","","","","","","","","./tasks/HMM-beads/Images/NewTrialBC.png","lowH","60","2","2","1","1","false","","","","","","","","","","","","","","","","",""
"image-keyboard-response","258","1502277","0.0-4.0-6.0-1.0-1.60","5f6056e9a41e0d14d4c19f4c","63690f60c96a0a9a64b48fbc","63691d893b806c079eef62dd","null","","null","","","","","","","","./tasks/HMM-beads/Images/BlackBeadChoice.png","","","","","","","","","","","","","","","","","","","","","","","",""
"image-keyboard-response","259","1502791","0.0-4.0-6.0-1.0-2.60","5f6056e9a41e0d14d4c19f4c","63690f60c96a0a9a64b48fbc","63691d893b806c079eef62dd","null","","null","","","","","","","","./tasks/HMM-beads/Images/BlackBeadChoiceWrong.png","","","","","","","","","","","","","","","","","","","","","","","",""
"image-keyboard-response","260","1502896","0.0-4.0-6.0-1.0-0.61","5f6056e9a41e0d14d4c19f4c","63690f60c96a0a9a64b48fbc","63691d893b806c079eef62dd","104","","j","","","","","","","","./tasks/HMM-beads/Images/NewTrialWC.png","lowH","61","2","2","2","2","true","","","","","","","","","","","","","","","","",""
"image-keyboard-response","261","1503210","0.0-4.0-6.0-1.0-1.61","5f6056e9a41e0d14d4c19f4c","63690f60c96a0a9a64b48fbc","63691d893b806c079eef62dd","null","","null","","","","","","","","./tasks/HMM-beads/Images/WhiteBeadChoice.png","","","","","","","","","","","","","","","","","","","","","","","",""
"image-keyboard-response","262","1503723","0.0-4.0-6.0-1.0-2.61","5f6056e9a41e0d14d4c19f4c","63690f60c96a0a9a64b48fbc","63691d893b806c079eef62dd","null","","null","","","","","","","","./tasks/HMM-beads/Images/WhiteBeadChoiceCorrect.png","","","","","","","","","","","","","","","","","","","","","","","",""
"image-keyboard-response","263","1504079","0.0-4.0-6.0-1.0-0.62","5f6056e9a41e0d14d4c19f4c","63690f60c96a0a9a64b48fbc","63691d893b806c079eef62dd","355","","j","","","","","","","","./tasks/HMM-beads/Images/NewTrialWC.png","lowH","62","2","2","2","2","true","","","","","","","","","","","","","","","","",""
"image-keyboard-response","264","1504392","0.0-4.0-6.0-1.0-1.62","5f6056e9a41e0d14d4c19f4c","63690f60c96a0a9a64b48fbc","63691d893b806c079eef62dd","null","","null","","","","","","","","./tasks/HMM-beads/Images/WhiteBeadChoice.png","","","","","","","","","","","","","","","","","","","","","","","",""
"image-keyboard-response","265","1504906","0.0-4.0-6.0-1.0-2.62","5f6056e9a41e0d14d4c19f4c","63690f60c96a0a9a64b48fbc","63691d893b806c079eef62dd","null","","null","","","","","","","","./tasks/HMM-beads/Images/WhiteBeadChoiceCorrect.png","","","","","","","","","","","","","","","","","","","","","","","",""
"image-keyboard-response","266","1504959","0.0-4.0-6.0-1.0-0.63","5f6056e9a41e0d14d4c19f4c","63690f60c96a0a9a64b48fbc","63691d893b806c079eef62dd","53","","j","","","","","","","","./tasks/HMM-beads/Images/NewTrialWC.png","lowH","63","2","1","2","2","false","","","","","","","","","","","","","","","","",""
"image-keyboard-response","267","1505263","0.0-4.0-6.0-1.0-1.63","5f6056e9a41e0d14d4c19f4c","63690f60c96a0a9a64b48fbc","63691d893b806c079eef62dd","null","","null","","","","","","","","./tasks/HMM-beads/Images/WhiteBeadChoice.png","","","","","","","","","","","","","","","","","","","","","","","",""
"image-keyboard-response","268","1505764","0.0-4.0-6.0-1.0-2.63","5f6056e9a41e0d14d4c19f4c","63690f60c96a0a9a64b48fbc","63691d893b806c079eef62dd","null","","null","","","","","","","","./tasks/HMM-beads/Images/WhiteBeadChoiceWrong.png","","","","","","","","","","","","","","","","","","","","","","","",""
"image-keyboard-response","269","1505815","0.0-4.0-6.0-1.0-0.64","5f6056e9a41e0d14d4c19f4c","63690f60c96a0a9a64b48fbc","63691d893b806c079eef62dd","50","","f","","","","","","","","./tasks/HMM-beads/Images/NewTrialBC.png","lowH","64","2","2","1","1","false","","","","","","","","","","","","","","","","",""
"image-keyboard-response","270","1506122","0.0-4.0-6.0-1.0-1.64","5f6056e9a41e0d14d4c19f4c","63690f60c96a0a9a64b48fbc","63691d893b806c079eef62dd","null","","null","","","","","","","","./tasks/HMM-beads/Images/BlackBeadChoice.png","","","","","","","","","","","","","","","","","","","","","","","",""
"image-keyboard-response","271","1506635","0.0-4.0-6.0-1.0-2.64","5f6056e9a41e0d14d4c19f4c","63690f60c96a0a9a64b48fbc","63691d893b806c079eef62dd","null","","null","","","","","","","","./tasks/HMM-beads/Images/BlackBeadChoiceWrong.png","","","","","","","","","","","","","","","","","","","","","","","",""
"image-keyboard-response","272","1507103","0.0-4.0-6.0-1.0-0.65","5f6056e9a41e0d14d4c19f4c","63690f60c96a0a9a64b48fbc","63691d893b806c079eef62dd","467","","j","","","","","","","","./tasks/HMM-beads/Images/NewTrialWC.png","lowH","65","2","2","2","2","true","","","","","","","","","","","","","","","","",""
"image-keyboard-response","273","1507412","0.0-4.0-6.0-1.0-1.65","5f6056e9a41e0d14d4c19f4c","63690f60c96a0a9a64b48fbc","63691d893b806c079eef62dd","null","","null","","","","","","","","./tasks/HMM-beads/Images/WhiteBeadChoice.png","","","","","","","","","","","","","","","","","","","","","","","",""
"image-keyboard-response","274","1507926","0.0-4.0-6.0-1.0-2.65","5f6056e9a41e0d14d4c19f4c","63690f60c96a0a9a64b48fbc","63691d893b806c079eef62dd","null","","null","","","","","","","","./tasks/HMM-beads/Images/WhiteBeadChoiceCorrect.png","","","","","","","","","","","","","","","","","","","","","","","",""
"image-keyboard-response","275","1508191","0.0-4.0-6.0-1.0-0.66","5f6056e9a41e0d14d4c19f4c","63690f60c96a0a9a64b48fbc","63691d893b806c079eef62dd","265","","j","","","","","","","","./tasks/HMM-beads/Images/NewTrialWC.png","lowH","66","2","1","2","2","false","","","","","","","","","","","","","","","","",""
"image-keyboard-response","276","1508501","0.0-4.0-6.0-1.0-1.66","5f6056e9a41e0d14d4c19f4c","63690f60c96a0a9a64b48fbc","63691d893b806c079eef62dd","null","","null","","","","","","","","./tasks/HMM-beads/Images/WhiteBeadChoice.png","","","","","","","","","","","","","","","","","","","","","","","",""
"image-keyboard-response","277","1509014","0.0-4.0-6.0-1.0-2.66","5f6056e9a41e0d14d4c19f4c","63690f60c96a0a9a64b48fbc","63691d893b806c079eef62dd","null","","null","","","","","","","","./tasks/HMM-beads/Images/WhiteBeadChoiceWrong.png","","","","","","","","","","","","","","","","","","","","","","","",""
"image-keyboard-response","278","1509496","0.0-4.0-6.0-1.0-0.67","5f6056e9a41e0d14d4c19f4c","63690f60c96a0a9a64b48fbc","63691d893b806c079eef62dd","481","","j","","","","","","","","./tasks/HMM-beads/Images/NewTrialBC.png","lowH","67","2","2","1","2","true","","","","","","","","","","","","","","","","",""
"image-keyboard-response","279","1509810","0.0-4.0-6.0-1.0-1.67","5f6056e9a41e0d14d4c19f4c","63690f60c96a0a9a64b48fbc","63691d893b806c079eef62dd","null","","null","","","","","","","","./tasks/HMM-beads/Images/WhiteBeadChoice.png","","","","","","","","","","","","","","","","","","","","","","","",""
"image-keyboard-response","280","1510325","0.0-4.0-6.0-1.0-2.67","5f6056e9a41e0d14d4c19f4c","63690f60c96a0a9a64b48fbc","63691d893b806c079eef62dd","null","","null","","","","","","","","./tasks/HMM-beads/Images/WhiteBeadChoiceCorrect.png","","","","","","","","","","","","","","","","","","","","","","","",""
"image-keyboard-response","281","1510783","0.0-4.0-6.0-1.0-0.68","5f6056e9a41e0d14d4c19f4c","63690f60c96a0a9a64b48fbc","63691d893b806c079eef62dd","458","","j","","","","","","","","./tasks/HMM-beads/Images/NewTrialWC.png","lowH","68","2","2","2","2","true","","","","","","","","","","","","","","","","",""
"image-keyboard-response","282","1511087","0.0-4.0-6.0-1.0-1.68","5f6056e9a41e0d14d4c19f4c","63690f60c96a0a9a64b48fbc","63691d893b806c079eef62dd","null","","null","","","","","","","","./tasks/HMM-beads/Images/WhiteBeadChoice.png","","","","","","","","","","","","","","","","","","","","","","","",""
"image-keyboard-response","283","1511601","0.0-4.0-6.0-1.0-2.68","5f6056e9a41e0d14d4c19f4c","63690f60c96a0a9a64b48fbc","63691d893b806c079eef62dd","null","","null","","","","","","","","./tasks/HMM-beads/Images/WhiteBeadChoiceCorrect.png","","","","","","","","","","","","","","","","","","","","","","","",""
"image-keyboard-response","284","1512559","0.0-4.0-6.0-1.0-0.69","5f6056e9a41e0d14d4c19f4c","63690f60c96a0a9a64b48fbc","63691d893b806c079eef62dd","958","","j","","","","","","","","./tasks/HMM-beads/Images/NewTrialWC.png","lowH","69","2","2","2","2","true","","","","","","","","","","","","","","","","",""
"image-keyboard-response","285","1512861","0.0-4.0-6.0-1.0-1.69","5f6056e9a41e0d14d4c19f4c","63690f60c96a0a9a64b48fbc","63691d893b806c079eef62dd","null","","null","","","","","","","","./tasks/HMM-beads/Images/WhiteBeadChoice.png","","","","","","","","","","","","","","","","","","","","","","","",""
"image-keyboard-response","286","1513374","0.0-4.0-6.0-1.0-2.69","5f6056e9a41e0d14d4c19f4c","63690f60c96a0a9a64b48fbc","63691d893b806c079eef62dd","null","","null","","","","","","","","./tasks/HMM-beads/Images/WhiteBeadChoiceCorrect.png","","","","","","","","","","","","","","","","","","","","","","","",""
"image-keyboard-response","287","1513767","0.0-4.0-6.0-1.0-0.70","5f6056e9a41e0d14d4c19f4c","63690f60c96a0a9a64b48fbc","63691d893b806c079eef62dd","392","","j","","","","","","","","./tasks/HMM-beads/Images/NewTrialWC.png","lowH","70","2","2","2","2","true","","","","","","","","","","","","","","","","",""
"image-keyboard-response","288","1514076","0.0-4.0-6.0-1.0-1.70","5f6056e9a41e0d14d4c19f4c","63690f60c96a0a9a64b48fbc","63691d893b806c079eef62dd","null","","null","","","","","","","","./tasks/HMM-beads/Images/WhiteBeadChoice.png","","","","","","","","","","","","","","","","","","","","","","","",""
"image-keyboard-response","289","1514589","0.0-4.0-6.0-1.0-2.70","5f6056e9a41e0d14d4c19f4c","63690f60c96a0a9a64b48fbc","63691d893b806c079eef62dd","null","","null","","","","","","","","./tasks/HMM-beads/Images/WhiteBeadChoiceCorrect.png","","","","","","","","","","","","","","","","","","","","","","","",""
"image-keyboard-response","290","1514839","0.0-4.0-6.0-1.0-0.71","5f6056e9a41e0d14d4c19f4c","63690f60c96a0a9a64b48fbc","63691d893b806c079eef62dd","250","","j","","","","","","","","./tasks/HMM-beads/Images/NewTrialWC.png","lowH","71","2","2","2","2","true","","","","","","","","","","","","","","","","",""
"image-keyboard-response","291","1515148","0.0-4.0-6.0-1.0-1.71","5f6056e9a41e0d14d4c19f4c","63690f60c96a0a9a64b48fbc","63691d893b806c079eef62dd","null","","null","","","","","","","","./tasks/HMM-beads/Images/WhiteBeadChoice.png","","","","","","","","","","","","","","","","","","","","","","","",""
"image-keyboard-response","292","1515662","0.0-4.0-6.0-1.0-2.71","5f6056e9a41e0d14d4c19f4c","63690f60c96a0a9a64b48fbc","63691d893b806c079eef62dd","null","","null","","","","","","","","./tasks/HMM-beads/Images/WhiteBeadChoiceCorrect.png","","","","","","","","","","","","","","","","","","","","","","","",""
"image-keyboard-response","293","1515927","0.0-4.0-6.0-1.0-0.72","5f6056e9a41e0d14d4c19f4c","63690f60c96a0a9a64b48fbc","63691d893b806c079eef62dd","264","","j","","","","","","","","./tasks/HMM-beads/Images/NewTrialWC.png","lowH","72","2","1","2","2","false","","","","","","","","","","","","","","","","",""
"image-keyboard-response","294","1516238","0.0-4.0-6.0-1.0-1.72","5f6056e9a41e0d14d4c19f4c","63690f60c96a0a9a64b48fbc","63691d893b806c079eef62dd","null","","null","","","","","","","","./tasks/HMM-beads/Images/WhiteBeadChoice.png","","","","","","","","","","","","","","","","","","","","","","","",""
"image-keyboard-response","295","1516752","0.0-4.0-6.0-1.0-2.72","5f6056e9a41e0d14d4c19f4c","63690f60c96a0a9a64b48fbc","63691d893b806c079eef62dd","null","","null","","","","","","","","./tasks/HMM-beads/Images/WhiteBeadChoiceWrong.png","","","","","","","","","","","","","","","","","","","","","","","",""
"image-keyboard-response","296","1517016","0.0-4.0-6.0-1.0-0.73","5f6056e9a41e0d14d4c19f4c","63690f60c96a0a9a64b48fbc","63691d893b806c079eef62dd","263","","j","","","","","","","","./tasks/HMM-beads/Images/NewTrialBC.png","lowH","73","2","2","1","2","true","","","","","","","","","","","","","","","","",""
"image-keyboard-response","297","1517330","0.0-4.0-6.0-1.0-1.73","5f6056e9a41e0d14d4c19f4c","63690f60c96a0a9a64b48fbc","63691d893b806c079eef62dd","null","","null","","","","","","","","./tasks/HMM-beads/Images/WhiteBeadChoice.png","","","","","","","","","","","","","","","","","","","","","","","",""
"image-keyboard-response","298","1517845","0.0-4.0-6.0-1.0-2.73","5f6056e9a41e0d14d4c19f4c","63690f60c96a0a9a64b48fbc","63691d893b806c079eef62dd","null","","null","","","","","","","","./tasks/HMM-beads/Images/WhiteBeadChoiceCorrect.png","","","","","","","","","","","","","","","","","","","","","","","",""
"image-keyboard-response","299","1518263","0.0-4.0-6.0-1.0-0.74","5f6056e9a41e0d14d4c19f4c","63690f60c96a0a9a64b48fbc","63691d893b806c079eef62dd","417","","j","","","","","","","","./tasks/HMM-beads/Images/NewTrialWC.png","lowH","74","2","1","2","2","false","","","","","","","","","","","","","","","","",""
"image-keyboard-response","300","1518574","0.0-4.0-6.0-1.0-1.74","5f6056e9a41e0d14d4c19f4c","63690f60c96a0a9a64b48fbc","63691d893b806c079eef62dd","null","","null","","","","","","","","./tasks/HMM-beads/Images/WhiteBeadChoice.png","","","","","","","","","","","","","","","","","","","","","","","",""
"image-keyboard-response","301","1519089","0.0-4.0-6.0-1.0-2.74","5f6056e9a41e0d14d4c19f4c","63690f60c96a0a9a64b48fbc","63691d893b806c079eef62dd","null","","null","","","","","","","","./tasks/HMM-beads/Images/WhiteBeadChoiceWrong.png","","","","","","","","","","","","","","","","","","","","","","","",""
"image-keyboard-response","302","1519455","0.0-4.0-6.0-1.0-0.75","5f6056e9a41e0d14d4c19f4c","63690f60c96a0a9a64b48fbc","63691d893b806c079eef62dd","365","","j","","","","","","","","./tasks/HMM-beads/Images/NewTrialBC.png","lowH","75","2","2","1","2","true","","","","","","","","","","","","","","","","",""
"image-keyboard-response","303","1519758","0.0-4.0-6.0-1.0-1.75","5f6056e9a41e0d14d4c19f4c","63690f60c96a0a9a64b48fbc","63691d893b806c079eef62dd","null","","null","","","","","","","","./tasks/HMM-beads/Images/WhiteBeadChoice.png","","","","","","","","","","","","","","","","","","","","","","","",""
"image-keyboard-response","304","1520272","0.0-4.0-6.0-1.0-2.75","5f6056e9a41e0d14d4c19f4c","63690f60c96a0a9a64b48fbc","63691d893b806c079eef62dd","null","","null","","","","","","","","./tasks/HMM-beads/Images/WhiteBeadChoiceCorrect.png","","","","","","","","","","","","","","","","","","","","","","","",""
"image-keyboard-response","305","1520823","0.0-4.0-6.0-1.0-0.76","5f6056e9a41e0d14d4c19f4c","63690f60c96a0a9a64b48fbc","63691d893b806c079eef62dd","550","","j","","","","","","","","./tasks/HMM-beads/Images/NewTrialWC.png","lowH","76","2","1","2","2","false","","","","","","","","","","","","","","","","",""
"image-keyboard-response","306","1521127","0.0-4.0-6.0-1.0-1.76","5f6056e9a41e0d14d4c19f4c","63690f60c96a0a9a64b48fbc","63691d893b806c079eef62dd","null","","null","","","","","","","","./tasks/HMM-beads/Images/WhiteBeadChoice.png","","","","","","","","","","","","","","","","","","","","","","","",""
"image-keyboard-response","307","1521641","0.0-4.0-6.0-1.0-2.76","5f6056e9a41e0d14d4c19f4c","63690f60c96a0a9a64b48fbc","63691d893b806c079eef62dd","null","","null","","","","","","","","./tasks/HMM-beads/Images/WhiteBeadChoiceWrong.png","","","","","","","","","","","","","","","","","","","","","","","",""
"image-keyboard-response","308","1522015","0.0-4.0-6.0-1.0-0.77","5f6056e9a41e0d14d4c19f4c","63690f60c96a0a9a64b48fbc","63691d893b806c079eef62dd","373","","j","","","","","","","","./tasks/HMM-beads/Images/NewTrialBC.png","lowH","77","2","2","1","2","true","","","","","","","","","","","","","","","","",""
"image-keyboard-response","309","1522325","0.0-4.0-6.0-1.0-1.77","5f6056e9a41e0d14d4c19f4c","63690f60c96a0a9a64b48fbc","63691d893b806c079eef62dd","null","","null","","","","","","","","./tasks/HMM-beads/Images/WhiteBeadChoice.png","","","","","","","","","","","","","","","","","","","","","","","",""
"image-keyboard-response","310","1522839","0.0-4.0-6.0-1.0-2.77","5f6056e9a41e0d14d4c19f4c","63690f60c96a0a9a64b48fbc","63691d893b806c079eef62dd","null","","null","","","","","","","","./tasks/HMM-beads/Images/WhiteBeadChoiceCorrect.png","","","","","","","","","","","","","","","","","","","","","","","",""
"image-keyboard-response","311","1523111","0.0-4.0-6.0-1.0-0.78","5f6056e9a41e0d14d4c19f4c","63690f60c96a0a9a64b48fbc","63691d893b806c079eef62dd","272","","j","","","","","","","","./tasks/HMM-beads/Images/NewTrialWC.png","lowH","78","2","2","2","2","true","","","","","","","","","","","","","","","","",""
"image-keyboard-response","312","1523414","0.0-4.0-6.0-1.0-1.78","5f6056e9a41e0d14d4c19f4c","63690f60c96a0a9a64b48fbc","63691d893b806c079eef62dd","null","","null","","","","","","","","./tasks/HMM-beads/Images/WhiteBeadChoice.png","","","","","","","","","","","","","","","","","","","","","","","",""
"image-keyboard-response","313","1523928","0.0-4.0-6.0-1.0-2.78","5f6056e9a41e0d14d4c19f4c","63690f60c96a0a9a64b48fbc","63691d893b806c079eef62dd","null","","null","","","","","","","","./tasks/HMM-beads/Images/WhiteBeadChoiceCorrect.png","","","","","","","","","","","","","","","","","","","","","","","",""
"image-keyboard-response","314","1524159","0.0-4.0-6.0-1.0-0.79","5f6056e9a41e0d14d4c19f4c","63690f60c96a0a9a64b48fbc","63691d893b806c079eef62dd","230","","j","","","","","","","","./tasks/HMM-beads/Images/NewTrialWC.png","lowH","79","2","2","2","2","true","","","","","","","","","","","","","","","","",""
"image-keyboard-response","315","1524472","0.0-4.0-6.0-1.0-1.79","5f6056e9a41e0d14d4c19f4c","63690f60c96a0a9a64b48fbc","63691d893b806c079eef62dd","null","","null","","","","","","","","./tasks/HMM-beads/Images/WhiteBeadChoice.png","","","","","","","","","","","","","","","","","","","","","","","",""
"image-keyboard-response","316","1524986","0.0-4.0-6.0-1.0-2.79","5f6056e9a41e0d14d4c19f4c","63690f60c96a0a9a64b48fbc","63691d893b806c079eef62dd","null","","null","","","","","","","","./tasks/HMM-beads/Images/WhiteBeadChoiceCorrect.png","","","","","","","","","","","","","","","","","","","","","","","",""
"image-keyboard-response","317","1525455","0.0-4.0-6.0-1.0-0.80","5f6056e9a41e0d14d4c19f4c","63690f60c96a0a9a64b48fbc","63691d893b806c079eef62dd","468","","j","","","","","","","","./tasks/HMM-beads/Images/NewTrialWC.png","lowH","80","2","2","2","2","true","","","","","","","","","","","","","","","","",""
"image-keyboard-response","318","1525767","0.0-4.0-6.0-1.0-1.80","5f6056e9a41e0d14d4c19f4c","63690f60c96a0a9a64b48fbc","63691d893b806c079eef62dd","null","","null","","","","","","","","./tasks/HMM-beads/Images/WhiteBeadChoice.png","","","","","","","","","","","","","","","","","","","","","","","",""
"image-keyboard-response","319","1526281","0.0-4.0-6.0-1.0-2.80","5f6056e9a41e0d14d4c19f4c","63690f60c96a0a9a64b48fbc","63691d893b806c079eef62dd","null","","null","","","","","","","","./tasks/HMM-beads/Images/WhiteBeadChoiceCorrect.png","","","","","","","","","","","","","","","","","","","","","","","",""
"image-keyboard-response","320","1526647","0.0-4.0-6.0-1.0-0.81","5f6056e9a41e0d14d4c19f4c","63690f60c96a0a9a64b48fbc","63691d893b806c079eef62dd","365","","j","","","","","","","","./tasks/HMM-beads/Images/NewTrialWC.png","lowH","81","2","2","2","2","true","","","","","","","","","","","","","","","","",""
