"trial_type","trial_index","time_elapsed","internal_node_id","subject_id","study_id","session_id","rt","url","response","question_order","view_history","success","timeout","failed_images","failed_audio","failed_video","stimulus","block","trial_number","jar","bead","previous_bead","choice","correct","highH_score","lowH_score","state","rewarded","state1_action","state2_visited","state1_key","state2_key","state1_rt","state2_rt","block_num","seq_file","trial_seq_info","two_arm_score_block1","two_arm_score_block2","two_arm_score_total","total_bonus"
"pavlovia","0","1512","0.0-0.0","601b9077694f034f0092dd8f","63690f60c96a0a9a64b48fbd","6369209fd1847d4416b358e2","","","","","","","","","","","","","","","","","","","","","","","","","","","","","","","","","","",""
"external-html","1","36212","0.0-1.0-0.0","601b9077694f034f0092dd8f","63690f60c96a0a9a64b48fbd","6369209fd1847d4416b358e2","34518","new_consent.html","","","","","","","","","","","","","","","","","","","","","","","","","","","","","","","","",""
"survey-multi-choice","2","40842","0.0-1.0-1.0","601b9077694f034f0092dd8f","63690f60c96a0a9a64b48fbd","6369209fd1847d4416b358e2","4628","","{""Q0"":""Female"",""Q1"":""White""}","[0,1]","","","","","","","","","","","","","","","","","","","","","","","","","","","","","","",""
"survey-text","3","44593","0.0-1.0-2.0","601b9077694f034f0092dd8f","63690f60c96a0a9a64b48fbd","6369209fd1847d4416b358e2","3747","","{""Q0"":""35""}","","","","","","","","","","","","","","","","","","","","","","","","","","","","","","","",""
"instructions","4","73219","0.0-2.0","601b9077694f034f0092dd8f","63690f60c96a0a9a64b48fbd","6369209fd1847d4416b358e2","28519","","","","[{""page_index"":0,""viewing_time"":25555},{""page_index"":1,""viewing_time"":2964}]","","","","","","","","","","","","","","","","","","","","","","","","","","","","","",""
"instructions","5","75961","0.0-3.0","601b9077694f034f0092dd8f","63690f60c96a0a9a64b48fbd","6369209fd1847d4416b358e2","2741","","","","[{""page_index"":0,""viewing_time"":2741}]","","","","","","","","","","","","","","","","","","","","","","","","","","","","","",""
"preload","6","79196","0.0-4.0-0.0","601b9077694f034f0092dd8f","63690f60c96a0a9a64b48fbd","6369209fd1847d4416b358e2","","","","","","true","false","[]","[]","[]","","","","","","","","","","","","","","","","","","","","","","","","",""
"instructions","7","235119","0.0-4.0-1.0","601b9077694f034f0092dd8f","63690f60c96a0a9a64b48fbd","6369209fd1847d4416b358e2","155924","","","","[{""page_index"":0,""viewing_time"":20017},{""page_index"":1,""viewing_time"":16425},{""page_index"":2,""viewing_time"":8760},{""page_index"":3,""viewing_time"":5890},{""page_index"":4,""viewing_time"":11208},{""page_index"":5,""viewing_time"":34066},{""page_index"":6,""viewing_time"":11584},{""page_index"":7,""viewing_time"":7792},{""page_index"":8,""viewing_time"":7292},{""page_index"":9,""viewing_time"":9374},{""page_index"":10,""viewing_time"":20308},{""page_index"":11,""viewing_time"":3208}]","","","","","","","","","","","","","","","","","","","","","","","","","","","","","",""
"html-button-response","8","239207","0.0-4.0-2.0-0.0-0.0","601b9077694f034f0092dd8f","63690f60c96a0a9a64b48fbd","6369209fd1847d4416b358e2","4087","","1","","","","","","","","<div align=center>Your goal is to predict…?<br><br></div>","","","","","","","","","","","","","","","","","","","","","","","",""
"html-button-response","9","248275","0.0-4.0-2.0-1.0-0.0","601b9077694f034f0092dd8f","63690f60c96a0a9a64b48fbd","6369209fd1847d4416b358e2","7081","","2","","","","","","","","<div align=center>In the jar with mostly white beads, there are ___% white beads and ___% black beads?<br><br></div>","","","","","","","","","","","","","","","","","","","","","","","",""
"html-button-response","10","257651","0.0-4.0-2.0-2.0-0.0","601b9077694f034f0092dd8f","63690f60c96a0a9a64b48fbd","6369209fd1847d4416b358e2","7992","","0","","","","","","","","<div align=center>When there is a 1% probability that the jars will switch, the next bead will most likely be drawn from the…<br><br></div>","","","","","","","","","","","","","","","","","","","","","","","",""
"html-button-response","11","265055","0.0-4.0-2.0-3.0-0.0","601b9077694f034f0092dd8f","63690f60c96a0a9a64b48fbd","6369209fd1847d4416b358e2","6346","","1","","","","","","","","<div align=center>When there is a 99% probability that the jars will switch, the next bead will most likely be drawn from the…<br><br></div>","","","","","","","","","","","","","","","","","","","","","","","",""
"instructions","12","290742","0.0-4.0-3.0","601b9077694f034f0092dd8f","63690f60c96a0a9a64b48fbd","6369209fd1847d4416b358e2","24589","","","","[{""page_index"":0,""viewing_time"":24589}]","","","","","","","","","","","","","","","","","","","","","","","","","","","","","",""
"html-keyboard-response","13","307695","0.0-4.0-4.0-0.0","601b9077694f034f0092dd8f","63690f60c96a0a9a64b48fbd","6369209fd1847d4416b358e2","16952",""," ","","","","","","","","<div align=center>In this practice block, there will be a <b>10% chance</b> that the jar on the next trial will be different from the jar on the current trial.<br><br></div>","","","","","","","","","","","","","","","","","","","","","","","",""
"image-keyboard-response","14","314734","0.0-4.0-4.0-1.0-0.0","601b9077694f034f0092dd8f","63690f60c96a0a9a64b48fbd","6369209fd1847d4416b358e2","7012","","j","","","","","","","","./tasks/HMM-beads/Images/NoChoice.png","practice","0","1","1","0","2","false","","","","","","","","","","","","","","","","",""
"image-keyboard-response","15","315040","0.0-4.0-4.0-1.0-1.0","601b9077694f034f0092dd8f","63690f60c96a0a9a64b48fbd","6369209fd1847d4416b358e2","null","","null","","","","","","","","./tasks/HMM-beads/Images/WhiteBeadChoice.png","","","","","","","","","","","","","","","","","","","","","","","",""
"image-keyboard-response","16","315542","0.0-4.0-4.0-1.0-2.0","601b9077694f034f0092dd8f","63690f60c96a0a9a64b48fbd","6369209fd1847d4416b358e2","null","","null","","","","","","","","./tasks/HMM-beads/Images/WhiteBeadChoiceWrong.png","","","","","","","","","","","","","","","","","","","","","","","",""
"image-keyboard-response","17","321009","0.0-4.0-4.0-1.0-0.1","601b9077694f034f0092dd8f","63690f60c96a0a9a64b48fbd","6369209fd1847d4416b358e2","5466","","f","","","","","","","","./tasks/HMM-beads/Images/NewTrialBC.png","practice","1","1","1","1","1","true","","","","","","","","","","","","","","","","",""
"image-keyboard-response","18","321314","0.0-4.0-4.0-1.0-1.1","601b9077694f034f0092dd8f","63690f60c96a0a9a64b48fbd","6369209fd1847d4416b358e2","null","","null","","","","","","","","./tasks/HMM-beads/Images/BlackBeadChoice.png","","","","","","","","","","","","","","","","","","","","","","","",""
"image-keyboard-response","19","321819","0.0-4.0-4.0-1.0-2.1","601b9077694f034f0092dd8f","63690f60c96a0a9a64b48fbd","6369209fd1847d4416b358e2","null","","null","","","","","","","","./tasks/HMM-beads/Images/BlackBeadChoiceCorrect.png","","","","","","","","","","","","","","","","","","","","","","","",""
"image-keyboard-response","20","324921","0.0-4.0-4.0-1.0-0.2","601b9077694f034f0092dd8f","63690f60c96a0a9a64b48fbd","6369209fd1847d4416b358e2","3101","","f","","","","","","","","./tasks/HMM-beads/Images/NewTrialBC.png","practice","2","1","2","1","1","false","","","","","","","","","","","","","","","","",""
"image-keyboard-response","21","325226","0.0-4.0-4.0-1.0-1.2","601b9077694f034f0092dd8f","63690f60c96a0a9a64b48fbd","6369209fd1847d4416b358e2","null","","null","","","","","","","","./tasks/HMM-beads/Images/BlackBeadChoice.png","","","","","","","","","","","","","","","","","","","","","","","",""
"image-keyboard-response","22","325732","0.0-4.0-4.0-1.0-2.2","601b9077694f034f0092dd8f","63690f60c96a0a9a64b48fbd","6369209fd1847d4416b358e2","null","","null","","","","","","","","./tasks/HMM-beads/Images/BlackBeadChoiceWrong.png","","","","","","","","","","","","","","","","","","","","","","","",""
"image-keyboard-response","23","327706","0.0-4.0-4.0-1.0-0.3","601b9077694f034f0092dd8f","63690f60c96a0a9a64b48fbd","6369209fd1847d4416b358e2","1973","","f","","","","","","","","./tasks/HMM-beads/Images/NewTrialWC.png","practice","3","1","1","2","1","true","","","","","","","","","","","","","","","","",""
"image-keyboard-response","24","328023","0.0-4.0-4.0-1.0-1.3","601b9077694f034f0092dd8f","63690f60c96a0a9a64b48fbd","6369209fd1847d4416b358e2","null","","null","","","","","","","","./tasks/HMM-beads/Images/BlackBeadChoice.png","","","","","","","","","","","","","","","","","","","","","","","",""
"image-keyboard-response","25","328526","0.0-4.0-4.0-1.0-2.3","601b9077694f034f0092dd8f","63690f60c96a0a9a64b48fbd","6369209fd1847d4416b358e2","null","","null","","","","","","","","./tasks/HMM-beads/Images/BlackBeadChoiceCorrect.png","","","","","","","","","","","","","","","","","","","","","","","",""
"image-keyboard-response","26","330369","0.0-4.0-4.0-1.0-0.4","601b9077694f034f0092dd8f","63690f60c96a0a9a64b48fbd","6369209fd1847d4416b358e2","1843","","f","","","","","","","","./tasks/HMM-beads/Images/NewTrialBC.png","practice","4","1","2","1","1","false","","","","","","","","","","","","","","","","",""
"image-keyboard-response","27","330674","0.0-4.0-4.0-1.0-1.4","601b9077694f034f0092dd8f","63690f60c96a0a9a64b48fbd","6369209fd1847d4416b358e2","null","","null","","","","","","","","./tasks/HMM-beads/Images/BlackBeadChoice.png","","","","","","","","","","","","","","","","","","","","","","","",""
"image-keyboard-response","28","331180","0.0-4.0-4.0-1.0-2.4","601b9077694f034f0092dd8f","63690f60c96a0a9a64b48fbd","6369209fd1847d4416b358e2","null","","null","","","","","","","","./tasks/HMM-beads/Images/BlackBeadChoiceWrong.png","","","","","","","","","","","","","","","","","","","","","","","",""
"image-keyboard-response","29","332945","0.0-4.0-4.0-1.0-0.5","601b9077694f034f0092dd8f","63690f60c96a0a9a64b48fbd","6369209fd1847d4416b358e2","1764","","f","","","","","","","","./tasks/HMM-beads/Images/NewTrialWC.png","practice","5","1","1","2","1","true","","","","","","","","","","","","","","","","",""
"image-keyboard-response","30","333249","0.0-4.0-4.0-1.0-1.5","601b9077694f034f0092dd8f","63690f60c96a0a9a64b48fbd","6369209fd1847d4416b358e2","null","","null","","","","","","","","./tasks/HMM-beads/Images/BlackBeadChoice.png","","","","","","","","","","","","","","","","","","","","","","","",""
"image-keyboard-response","31","333753","0.0-4.0-4.0-1.0-2.5","601b9077694f034f0092dd8f","63690f60c96a0a9a64b48fbd","6369209fd1847d4416b358e2","null","","null","","","","","","","","./tasks/HMM-beads/Images/BlackBeadChoiceCorrect.png","","","","","","","","","","","","","","","","","","","","","","","",""
"image-keyboard-response","32","337189","0.0-4.0-4.0-1.0-0.6","601b9077694f034f0092dd8f","63690f60c96a0a9a64b48fbd","6369209fd1847d4416b358e2","3435","","j","","","","","","","","./tasks/HMM-beads/Images/NewTrialBC.png","practice","6","1","2","1","2","true","","","","","","","","","","","","","","","","",""
"image-keyboard-response","33","337495","0.0-4.0-4.0-1.0-1.6","601b9077694f034f0092dd8f","63690f60c96a0a9a64b48fbd","6369209fd1847d4416b358e2","null","","null","","","","","","","","./tasks/HMM-beads/Images/WhiteBeadChoice.png","","","","","","","","","","","","","","","","","","","","","","","",""
"image-keyboard-response","34","337999","0.0-4.0-4.0-1.0-2.6","601b9077694f034f0092dd8f","63690f60c96a0a9a64b48fbd","6369209fd1847d4416b358e2","null","","null","","","","","","","","./tasks/HMM-beads/Images/WhiteBeadChoiceCorrect.png","","","","","","","","","","","","","","","","","","","","","","","",""
"image-keyboard-response","35","340431","0.0-4.0-4.0-1.0-0.7","601b9077694f034f0092dd8f","63690f60c96a0a9a64b48fbd","6369209fd1847d4416b358e2","2432","","f","","","","","","","","./tasks/HMM-beads/Images/NewTrialWC.png","practice","7","1","1","2","1","true","","","","","","","","","","","","","","","","",""
"image-keyboard-response","36","340737","0.0-4.0-4.0-1.0-1.7","601b9077694f034f0092dd8f","63690f60c96a0a9a64b48fbd","6369209fd1847d4416b358e2","null","","null","","","","","","","","./tasks/HMM-beads/Images/BlackBeadChoice.png","","","","","","","","","","","","","","","","","","","","","","","",""
"image-keyboard-response","37","341254","0.0-4.0-4.0-1.0-2.7","601b9077694f034f0092dd8f","63690f60c96a0a9a64b48fbd","6369209fd1847d4416b358e2","null","","null","","","","","","","","./tasks/HMM-beads/Images/BlackBeadChoiceCorrect.png","","","","","","","","","","","","","","","","","","","","","","","",""
"image-keyboard-response","38","342963","0.0-4.0-4.0-1.0-0.8","601b9077694f034f0092dd8f","63690f60c96a0a9a64b48fbd","6369209fd1847d4416b358e2","1709","","f","","","","","","","","./tasks/HMM-beads/Images/NewTrialBC.png","practice","8","1","1","1","1","true","","","","","","","","","","","","","","","","",""
"image-keyboard-response","39","343268","0.0-4.0-4.0-1.0-1.8","601b9077694f034f0092dd8f","63690f60c96a0a9a64b48fbd","6369209fd1847d4416b358e2","null","","null","","","","","","","","./tasks/HMM-beads/Images/BlackBeadChoice.png","","","","","","","","","","","","","","","","","","","","","","","",""
"image-keyboard-response","40","343772","0.0-4.0-4.0-1.0-2.8","601b9077694f034f0092dd8f","63690f60c96a0a9a64b48fbd","6369209fd1847d4416b358e2","null","","null","","","","","","","","./tasks/HMM-beads/Images/BlackBeadChoiceCorrect.png","","","","","","","","","","","","","","","","","","","","","","","",""
"image-keyboard-response","41","345421","0.0-4.0-4.0-1.0-0.9","601b9077694f034f0092dd8f","63690f60c96a0a9a64b48fbd","6369209fd1847d4416b358e2","1649","","j","","","","","","","","./tasks/HMM-beads/Images/NewTrialBC.png","practice","9","2","2","1","2","true","","","","","","","","","","","","","","","","",""
"image-keyboard-response","42","345724","0.0-4.0-4.0-1.0-1.9","601b9077694f034f0092dd8f","63690f60c96a0a9a64b48fbd","6369209fd1847d4416b358e2","null","","null","","","","","","","","./tasks/HMM-beads/Images/WhiteBeadChoice.png","","","","","","","","","","","","","","","","","","","","","","","",""
"image-keyboard-response","43","346226","0.0-4.0-4.0-1.0-2.9","601b9077694f034f0092dd8f","63690f60c96a0a9a64b48fbd","6369209fd1847d4416b358e2","null","","null","","","","","","","","./tasks/HMM-beads/Images/WhiteBeadChoiceCorrect.png","","","","","","","","","","","","","","","","","","","","","","","",""
"image-keyboard-response","44","347990","0.0-4.0-4.0-1.0-0.10","601b9077694f034f0092dd8f","63690f60c96a0a9a64b48fbd","6369209fd1847d4416b358e2","1764","","f","","","","","","","","./tasks/HMM-beads/Images/NewTrialWC.png","practice","10","2","1","2","1","true","","","","","","","","","","","","","","","","",""
"image-keyboard-response","45","348295","0.0-4.0-4.0-1.0-1.10","601b9077694f034f0092dd8f","63690f60c96a0a9a64b48fbd","6369209fd1847d4416b358e2","null","","null","","","","","","","","./tasks/HMM-beads/Images/BlackBeadChoice.png","","","","","","","","","","","","","","","","","","","","","","","",""
"image-keyboard-response","46","348800","0.0-4.0-4.0-1.0-2.10","601b9077694f034f0092dd8f","63690f60c96a0a9a64b48fbd","6369209fd1847d4416b358e2","null","","null","","","","","","","","./tasks/HMM-beads/Images/BlackBeadChoiceCorrect.png","","","","","","","","","","","","","","","","","","","","","","","",""
"image-keyboard-response","47","351136","0.0-4.0-4.0-1.0-0.11","601b9077694f034f0092dd8f","63690f60c96a0a9a64b48fbd","6369209fd1847d4416b358e2","2335","","f","","","","","","","","./tasks/HMM-beads/Images/NewTrialBC.png","practice","11","2","2","1","1","false","","","","","","","","","","","","","","","","",""
"image-keyboard-response","48","351441","0.0-4.0-4.0-1.0-1.11","601b9077694f034f0092dd8f","63690f60c96a0a9a64b48fbd","6369209fd1847d4416b358e2","null","","null","","","","","","","","./tasks/HMM-beads/Images/BlackBeadChoice.png","","","","","","","","","","","","","","","","","","","","","","","",""
"image-keyboard-response","49","351945","0.0-4.0-4.0-1.0-2.11","601b9077694f034f0092dd8f","63690f60c96a0a9a64b48fbd","6369209fd1847d4416b358e2","null","","null","","","","","","","","./tasks/HMM-beads/Images/BlackBeadChoiceWrong.png","","","","","","","","","","","","","","","","","","","","","","","",""
"image-keyboard-response","50","353242","0.0-4.0-4.0-1.0-0.12","601b9077694f034f0092dd8f","63690f60c96a0a9a64b48fbd","6369209fd1847d4416b358e2","1286","","f","","","","","","","","./tasks/HMM-beads/Images/NewTrialWC.png","practice","12","2","2","2","1","false","","","","","","","","","","","","","","","","",""
"image-keyboard-response","51","353547","0.0-4.0-4.0-1.0-1.12","601b9077694f034f0092dd8f","63690f60c96a0a9a64b48fbd","6369209fd1847d4416b358e2","null","","null","","","","","","","","./tasks/HMM-beads/Images/BlackBeadChoice.png","","","","","","","","","","","","","","","","","","","","","","","",""
"image-keyboard-response","52","354052","0.0-4.0-4.0-1.0-2.12","601b9077694f034f0092dd8f","63690f60c96a0a9a64b48fbd","6369209fd1847d4416b358e2","null","","null","","","","","","","","./tasks/HMM-beads/Images/BlackBeadChoiceWrong.png","","","","","","","","","","","","","","","","","","","","","","","",""
"image-keyboard-response","53","355122","0.0-4.0-4.0-1.0-0.13","601b9077694f034f0092dd8f","63690f60c96a0a9a64b48fbd","6369209fd1847d4416b358e2","1069","","f","","","","","","","","./tasks/HMM-beads/Images/NewTrialWC.png","practice","13","2","2","2","1","false","","","","","","","","","","","","","","","","",""
"image-keyboard-response","54","355425","0.0-4.0-4.0-1.0-1.13","601b9077694f034f0092dd8f","63690f60c96a0a9a64b48fbd","6369209fd1847d4416b358e2","null","","null","","","","","","","","./tasks/HMM-beads/Images/BlackBeadChoice.png","","","","","","","","","","","","","","","","","","","","","","","",""
"image-keyboard-response","55","355926","0.0-4.0-4.0-1.0-2.13","601b9077694f034f0092dd8f","63690f60c96a0a9a64b48fbd","6369209fd1847d4416b358e2","null","","null","","","","","","","","./tasks/HMM-beads/Images/BlackBeadChoiceWrong.png","","","","","","","","","","","","","","","","","","","","","","","",""
"image-keyboard-response","56","357626","0.0-4.0-4.0-1.0-0.14","601b9077694f034f0092dd8f","63690f60c96a0a9a64b48fbd","6369209fd1847d4416b358e2","1700","","f","","","","","","","","./tasks/HMM-beads/Images/NewTrialWC.png","practice","14","2","2","2","1","false","","","","","","","","","","","","","","","","",""
"image-keyboard-response","57","357929","0.0-4.0-4.0-1.0-1.14","601b9077694f034f0092dd8f","63690f60c96a0a9a64b48fbd","6369209fd1847d4416b358e2","null","","null","","","","","","","","./tasks/HMM-beads/Images/BlackBeadChoice.png","","","","","","","","","","","","","","","","","","","","","","","",""
"image-keyboard-response","58","358435","0.0-4.0-4.0-1.0-2.14","601b9077694f034f0092dd8f","63690f60c96a0a9a64b48fbd","6369209fd1847d4416b358e2","null","","null","","","","","","","","./tasks/HMM-beads/Images/BlackBeadChoiceWrong.png","","","","","","","","","","","","","","","","","","","","","","","",""
"image-keyboard-response","59","360270","0.0-4.0-4.0-1.0-0.15","601b9077694f034f0092dd8f","63690f60c96a0a9a64b48fbd","6369209fd1847d4416b358e2","1824","","j","","","","","","","","./tasks/HMM-beads/Images/NewTrialWC.png","practice","15","1","1","2","2","false","","","","","","","","","","","","","","","","",""
"image-keyboard-response","60","360576","0.0-4.0-4.0-1.0-1.15","601b9077694f034f0092dd8f","63690f60c96a0a9a64b48fbd","6369209fd1847d4416b358e2","null","","null","","","","","","","","./tasks/HMM-beads/Images/WhiteBeadChoice.png","","","","","","","","","","","","","","","","","","","","","","","",""
"image-keyboard-response","61","361082","0.0-4.0-4.0-1.0-2.15","601b9077694f034f0092dd8f","63690f60c96a0a9a64b48fbd","6369209fd1847d4416b358e2","null","","null","","","","","","","","./tasks/HMM-beads/Images/WhiteBeadChoiceWrong.png","","","","","","","","","","","","","","","","","","","","","","","",""
"image-keyboard-response","62","361766","0.0-4.0-4.0-1.0-0.16","601b9077694f034f0092dd8f","63690f60c96a0a9a64b48fbd","6369209fd1847d4416b358e2","684","","f","","","","","","","","./tasks/HMM-beads/Images/NewTrialBC.png","practice","16","1","2","1","1","false","","","","","","","","","","","","","","","","",""
"image-keyboard-response","63","362072","0.0-4.0-4.0-1.0-1.16","601b9077694f034f0092dd8f","63690f60c96a0a9a64b48fbd","6369209fd1847d4416b358e2","null","","null","","","","","","","","./tasks/HMM-beads/Images/BlackBeadChoice.png","","","","","","","","","","","","","","","","","","","","","","","",""
"image-keyboard-response","64","362578","0.0-4.0-4.0-1.0-2.16","601b9077694f034f0092dd8f","63690f60c96a0a9a64b48fbd","6369209fd1847d4416b358e2","null","","null","","","","","","","","./tasks/HMM-beads/Images/BlackBeadChoiceWrong.png","","","","","","","","","","","","","","","","","","","","","","","",""
"image-keyboard-response","65","363005","0.0-4.0-4.0-1.0-0.17","601b9077694f034f0092dd8f","63690f60c96a0a9a64b48fbd","6369209fd1847d4416b358e2","426","","j","","","","","","","","./tasks/HMM-beads/Images/NewTrialWC.png","practice","17","1","1","2","2","false","","","","","","","","","","","","","","","","",""
"image-keyboard-response","66","363310","0.0-4.0-4.0-1.0-1.17","601b9077694f034f0092dd8f","63690f60c96a0a9a64b48fbd","6369209fd1847d4416b358e2","null","","null","","","","","","","","./tasks/HMM-beads/Images/WhiteBeadChoice.png","","","","","","","","","","","","","","","","","","","","","","","",""
"image-keyboard-response","67","363814","0.0-4.0-4.0-1.0-2.17","601b9077694f034f0092dd8f","63690f60c96a0a9a64b48fbd","6369209fd1847d4416b358e2","null","","null","","","","","","","","./tasks/HMM-beads/Images/WhiteBeadChoiceWrong.png","","","","","","","","","","","","","","","","","","","","","","","",""
"image-keyboard-response","68","365571","0.0-4.0-4.0-1.0-0.18","601b9077694f034f0092dd8f","63690f60c96a0a9a64b48fbd","6369209fd1847d4416b358e2","1756","","f","","","","","","","","./tasks/HMM-beads/Images/NewTrialBC.png","practice","18","1","1","1","1","true","","","","","","","","","","","","","","","","",""
"image-keyboard-response","69","365874","0.0-4.0-4.0-1.0-1.18","601b9077694f034f0092dd8f","63690f60c96a0a9a64b48fbd","6369209fd1847d4416b358e2","null","","null","","","","","","","","./tasks/HMM-beads/Images/BlackBeadChoice.png","","","","","","","","","","","","","","","","","","","","","","","",""
"image-keyboard-response","70","366380","0.0-4.0-4.0-1.0-2.18","601b9077694f034f0092dd8f","63690f60c96a0a9a64b48fbd","6369209fd1847d4416b358e2","null","","null","","","","","","","","./tasks/HMM-beads/Images/BlackBeadChoiceCorrect.png","","","","","","","","","","","","","","","","","","","","","","","",""
"image-keyboard-response","71","368084","0.0-4.0-4.0-1.0-0.19","601b9077694f034f0092dd8f","63690f60c96a0a9a64b48fbd","6369209fd1847d4416b358e2","1703","","j","","","","","","","","./tasks/HMM-beads/Images/NewTrialBC.png","practice","19","1","1","1","2","false","","","","","","","","","","","","","","","","",""
"image-keyboard-response","72","368404","0.0-4.0-4.0-1.0-1.19","601b9077694f034f0092dd8f","63690f60c96a0a9a64b48fbd","6369209fd1847d4416b358e2","null","","null","","","","","","","","./tasks/HMM-beads/Images/WhiteBeadChoice.png","","","","","","","","","","","","","","","","","","","","","","","",""
"image-keyboard-response","73","368910","0.0-4.0-4.0-1.0-2.19","601b9077694f034f0092dd8f","63690f60c96a0a9a64b48fbd","6369209fd1847d4416b358e2","null","","null","","","","","","","","./tasks/HMM-beads/Images/WhiteBeadChoiceWrong.png","","","","","","","","","","","","","","","","","","","","","","","",""
"html-keyboard-response","74","372471","0.0-4.0-4.0-2.0","601b9077694f034f0092dd8f","63690f60c96a0a9a64b48fbd","6369209fd1847d4416b358e2","3561",""," ","","","","","","","","","","","","","","","","","","","","","","","","","","","","","","","",""
"instructions","75","395328","0.0-4.0-5.0","601b9077694f034f0092dd8f","63690f60c96a0a9a64b48fbd","6369209fd1847d4416b358e2","22857","","","","[{""page_index"":0,""viewing_time"":17013},{""page_index"":1,""viewing_time"":5843}]","","","","","","","","","","","","","","","","","","","","","","","","","","","","","",""
"html-keyboard-response","76","402120","0.0-4.0-6.0-0.0","601b9077694f034f0092dd8f","63690f60c96a0a9a64b48fbd","6369209fd1847d4416b358e2","6792",""," ","","","","","","","","<div align=center>In this block, there will be a <b>99%</b> chance that the jar on the next trial will be different from the jar on the current trial.<br><br></div>","","","","","","","","","","","","","","","","","","","","","","","",""
"image-keyboard-response","77","404523","0.0-4.0-6.0-1.0-0.0","601b9077694f034f0092dd8f","63690f60c96a0a9a64b48fbd","6369209fd1847d4416b358e2","2402","","f","","","","","","","","./tasks/HMM-beads/Images/NoChoice.png","highH","0","1","1","0","1","true","","","","","","","","","","","","","","","","",""
"image-keyboard-response","78","404825","0.0-4.0-6.0-1.0-1.0","601b9077694f034f0092dd8f","63690f60c96a0a9a64b48fbd","6369209fd1847d4416b358e2","null","","null","","","","","","","","./tasks/HMM-beads/Images/BlackBeadChoice.png","","","","","","","","","","","","","","","","","","","","","","","",""
"image-keyboard-response","79","405331","0.0-4.0-6.0-1.0-2.0","601b9077694f034f0092dd8f","63690f60c96a0a9a64b48fbd","6369209fd1847d4416b358e2","null","","null","","","","","","","","./tasks/HMM-beads/Images/BlackBeadChoiceCorrect.png","","","","","","","","","","","","","","","","","","","","","","","",""
"image-keyboard-response","80","407445","0.0-4.0-6.0-1.0-0.1","601b9077694f034f0092dd8f","63690f60c96a0a9a64b48fbd","6369209fd1847d4416b358e2","2114","","j","","","","","","","","./tasks/HMM-beads/Images/NewTrialBC.png","highH","1","2","2","1","2","true","","","","","","","","","","","","","","","","",""
"image-keyboard-response","81","407748","0.0-4.0-6.0-1.0-1.1","601b9077694f034f0092dd8f","63690f60c96a0a9a64b48fbd","6369209fd1847d4416b358e2","null","","null","","","","","","","","./tasks/HMM-beads/Images/WhiteBeadChoice.png","","","","","","","","","","","","","","","","","","","","","","","",""
"image-keyboard-response","82","408251","0.0-4.0-6.0-1.0-2.1","601b9077694f034f0092dd8f","63690f60c96a0a9a64b48fbd","6369209fd1847d4416b358e2","null","","null","","","","","","","","./tasks/HMM-beads/Images/WhiteBeadChoiceCorrect.png","","","","","","","","","","","","","","","","","","","","","","","",""
"image-keyboard-response","83","410501","0.0-4.0-6.0-1.0-0.2","601b9077694f034f0092dd8f","63690f60c96a0a9a64b48fbd","6369209fd1847d4416b358e2","2249","","f","","","","","","","","./tasks/HMM-beads/Images/NewTrialWC.png","highH","2","1","1","2","1","true","","","","","","","","","","","","","","","","",""
"image-keyboard-response","84","410805","0.0-4.0-6.0-1.0-1.2","601b9077694f034f0092dd8f","63690f60c96a0a9a64b48fbd","6369209fd1847d4416b358e2","null","","null","","","","","","","","./tasks/HMM-beads/Images/BlackBeadChoice.png","","","","","","","","","","","","","","","","","","","","","","","",""
"image-keyboard-response","85","411311","0.0-4.0-6.0-1.0-2.2","601b9077694f034f0092dd8f","63690f60c96a0a9a64b48fbd","6369209fd1847d4416b358e2","null","","null","","","","","","","","./tasks/HMM-beads/Images/BlackBeadChoiceCorrect.png","","","","","","","","","","","","","","","","","","","","","","","",""
"image-keyboard-response","86","413150","0.0-4.0-6.0-1.0-0.3","601b9077694f034f0092dd8f","63690f60c96a0a9a64b48fbd","6369209fd1847d4416b358e2","1838","","j","","","","","","","","./tasks/HMM-beads/Images/NewTrialBC.png","highH","3","2","2","1","2","true","","","","","","","","","","","","","","","","",""
"image-keyboard-response","87","413456","0.0-4.0-6.0-1.0-1.3","601b9077694f034f0092dd8f","63690f60c96a0a9a64b48fbd","6369209fd1847d4416b358e2","null","","null","","","","","","","","./tasks/HMM-beads/Images/WhiteBeadChoice.png","","","","","","","","","","","","","","","","","","","","","","","",""
"image-keyboard-response","88","413962","0.0-4.0-6.0-1.0-2.3","601b9077694f034f0092dd8f","63690f60c96a0a9a64b48fbd","6369209fd1847d4416b358e2","null","","null","","","","","","","","./tasks/HMM-beads/Images/WhiteBeadChoiceCorrect.png","","","","","","","","","","","","","","","","","","","","","","","",""
"image-keyboard-response","89","415609","0.0-4.0-6.0-1.0-0.4","601b9077694f034f0092dd8f","63690f60c96a0a9a64b48fbd","6369209fd1847d4416b358e2","1646","","f","","","","","","","","./tasks/HMM-beads/Images/NewTrialWC.png","highH","4","1","1","2","1","true","","","","","","","","","","","","","","","","",""
"image-keyboard-response","90","415915","0.0-4.0-6.0-1.0-1.4","601b9077694f034f0092dd8f","63690f60c96a0a9a64b48fbd","6369209fd1847d4416b358e2","null","","null","","","","","","","","./tasks/HMM-beads/Images/BlackBeadChoice.png","","","","","","","","","","","","","","","","","","","","","","","",""
"image-keyboard-response","91","416417","0.0-4.0-6.0-1.0-2.4","601b9077694f034f0092dd8f","63690f60c96a0a9a64b48fbd","6369209fd1847d4416b358e2","null","","null","","","","","","","","./tasks/HMM-beads/Images/BlackBeadChoiceCorrect.png","","","","","","","","","","","","","","","","","","","","","","","",""
"image-keyboard-response","92","418566","0.0-4.0-6.0-1.0-0.5","601b9077694f034f0092dd8f","63690f60c96a0a9a64b48fbd","6369209fd1847d4416b358e2","2148","","j","","","","","","","","./tasks/HMM-beads/Images/NewTrialBC.png","highH","5","2","2","1","2","true","","","","","","","","","","","","","","","","",""
"image-keyboard-response","93","418871","0.0-4.0-6.0-1.0-1.5","601b9077694f034f0092dd8f","63690f60c96a0a9a64b48fbd","6369209fd1847d4416b358e2","null","","null","","","","","","","","./tasks/HMM-beads/Images/WhiteBeadChoice.png","","","","","","","","","","","","","","","","","","","","","","","",""
"image-keyboard-response","94","419377","0.0-4.0-6.0-1.0-2.5","601b9077694f034f0092dd8f","63690f60c96a0a9a64b48fbd","6369209fd1847d4416b358e2","null","","null","","","","","","","","./tasks/HMM-beads/Images/WhiteBeadChoiceCorrect.png","","","","","","","","","","","","","","","","","","","","","","","",""
"image-keyboard-response","95","421504","0.0-4.0-6.0-1.0-0.6","601b9077694f034f0092dd8f","63690f60c96a0a9a64b48fbd","6369209fd1847d4416b358e2","2127","","f","","","","","","","","./tasks/HMM-beads/Images/NewTrialWC.png","highH","6","1","1","2","1","true","","","","","","","","","","","","","","","","",""
"image-keyboard-response","96","421812","0.0-4.0-6.0-1.0-1.6","601b9077694f034f0092dd8f","63690f60c96a0a9a64b48fbd","6369209fd1847d4416b358e2","null","","null","","","","","","","","./tasks/HMM-beads/Images/BlackBeadChoice.png","","","","","","","","","","","","","","","","","","","","","","","",""
"image-keyboard-response","97","422318","0.0-4.0-6.0-1.0-2.6","601b9077694f034f0092dd8f","63690f60c96a0a9a64b48fbd","6369209fd1847d4416b358e2","null","","null","","","","","","","","./tasks/HMM-beads/Images/BlackBeadChoiceCorrect.png","","","","","","","","","","","","","","","","","","","","","","","",""
"image-keyboard-response","98","424770","0.0-4.0-6.0-1.0-0.7","601b9077694f034f0092dd8f","63690f60c96a0a9a64b48fbd","6369209fd1847d4416b358e2","2451","","f","","","","","","","","./tasks/HMM-beads/Images/NewTrialBC.png","highH","7","2","1","1","1","true","","","","","","","","","","","","","","","","",""
"image-keyboard-response","99","425076","0.0-4.0-6.0-1.0-1.7","601b9077694f034f0092dd8f","63690f60c96a0a9a64b48fbd","6369209fd1847d4416b358e2","null","","null","","","","","","","","./tasks/HMM-beads/Images/BlackBeadChoice.png","","","","","","","","","","","","","","","","","","","","","","","",""
"image-keyboard-response","100","425582","0.0-4.0-6.0-1.0-2.7","601b9077694f034f0092dd8f","63690f60c96a0a9a64b48fbd","6369209fd1847d4416b358e2","null","","null","","","","","","","","./tasks/HMM-beads/Images/BlackBeadChoiceCorrect.png","","","","","","","","","","","","","","","","","","","","","","","",""
"image-keyboard-response","101","428362","0.0-4.0-6.0-1.0-0.8","601b9077694f034f0092dd8f","63690f60c96a0a9a64b48fbd","6369209fd1847d4416b358e2","2768","","f","","","","","","","","./tasks/HMM-beads/Images/NewTrialBC.png","highH","8","1","1","1","1","true","","","","","","","","","","","","","","","","",""
"image-keyboard-response","102","428667","0.0-4.0-6.0-1.0-1.8","601b9077694f034f0092dd8f","63690f60c96a0a9a64b48fbd","6369209fd1847d4416b358e2","null","","null","","","","","","","","./tasks/HMM-beads/Images/BlackBeadChoice.png","","","","","","","","","","","","","","","","","","","","","","","",""
"image-keyboard-response","103","429171","0.0-4.0-6.0-1.0-2.8","601b9077694f034f0092dd8f","63690f60c96a0a9a64b48fbd","6369209fd1847d4416b358e2","null","","null","","","","","","","","./tasks/HMM-beads/Images/BlackBeadChoiceCorrect.png","","","","","","","","","","","","","","","","","","","","","","","",""
"image-keyboard-response","104","431877","0.0-4.0-6.0-1.0-0.9","601b9077694f034f0092dd8f","63690f60c96a0a9a64b48fbd","6369209fd1847d4416b358e2","2706","","j","","","","","","","","./tasks/HMM-beads/Images/NewTrialBC.png","highH","9","2","2","1","2","true","","","","","","","","","","","","","","","","",""
"image-keyboard-response","105","432182","0.0-4.0-6.0-1.0-1.9","601b9077694f034f0092dd8f","63690f60c96a0a9a64b48fbd","6369209fd1847d4416b358e2","null","","null","","","","","","","","./tasks/HMM-beads/Images/WhiteBeadChoice.png","","","","","","","","","","","","","","","","","","","","","","","",""
"image-keyboard-response","106","432684","0.0-4.0-6.0-1.0-2.9","601b9077694f034f0092dd8f","63690f60c96a0a9a64b48fbd","6369209fd1847d4416b358e2","null","","null","","","","","","","","./tasks/HMM-beads/Images/WhiteBeadChoiceCorrect.png","","","","","","","","","","","","","","","","","","","","","","","",""
"image-keyboard-response","107","434240","0.0-4.0-6.0-1.0-0.10","601b9077694f034f0092dd8f","63690f60c96a0a9a64b48fbd","6369209fd1847d4416b358e2","1555","","f","","","","","","","","./tasks/HMM-beads/Images/NewTrialWC.png","highH","10","1","1","2","1","true","","","","","","","","","","","","","","","","",""
"image-keyboard-response","108","434546","0.0-4.0-6.0-1.0-1.10","601b9077694f034f0092dd8f","63690f60c96a0a9a64b48fbd","6369209fd1847d4416b358e2","null","","null","","","","","","","","./tasks/HMM-beads/Images/BlackBeadChoice.png","","","","","","","","","","","","","","","","","","","","","","","",""
"image-keyboard-response","109","435049","0.0-4.0-6.0-1.0-2.10","601b9077694f034f0092dd8f","63690f60c96a0a9a64b48fbd","6369209fd1847d4416b358e2","null","","null","","","","","","","","./tasks/HMM-beads/Images/BlackBeadChoiceCorrect.png","","","","","","","","","","","","","","","","","","","","","","","",""
"image-keyboard-response","110","437184","0.0-4.0-6.0-1.0-0.11","601b9077694f034f0092dd8f","63690f60c96a0a9a64b48fbd","6369209fd1847d4416b358e2","2134","","f","","","","","","","","./tasks/HMM-beads/Images/NewTrialBC.png","highH","11","2","2","1","1","false","","","","","","","","","","","","","","","","",""
"image-keyboard-response","111","437487","0.0-4.0-6.0-1.0-1.11","601b9077694f034f0092dd8f","63690f60c96a0a9a64b48fbd","6369209fd1847d4416b358e2","null","","null","","","","","","","","./tasks/HMM-beads/Images/BlackBeadChoice.png","","","","","","","","","","","","","","","","","","","","","","","",""
"image-keyboard-response","112","438036","0.0-4.0-6.0-1.0-2.11","601b9077694f034f0092dd8f","63690f60c96a0a9a64b48fbd","6369209fd1847d4416b358e2","null","","null","","","","","","","","./tasks/HMM-beads/Images/BlackBeadChoiceWrong.png","","","","","","","","","","","","","","","","","","","","","","","",""
"image-keyboard-response","113","439414","0.0-4.0-6.0-1.0-0.12","601b9077694f034f0092dd8f","63690f60c96a0a9a64b48fbd","6369209fd1847d4416b358e2","1378","","f","","","","","","","","./tasks/HMM-beads/Images/NewTrialWC.png","highH","12","1","1","2","1","true","","","","","","","","","","","","","","","","",""
"image-keyboard-response","114","439718","0.0-4.0-6.0-1.0-1.12","601b9077694f034f0092dd8f","63690f60c96a0a9a64b48fbd","6369209fd1847d4416b358e2","null","","null","","","","","","","","./tasks/HMM-beads/Images/BlackBeadChoice.png","","","","","","","","","","","","","","","","","","","","","","","",""
"image-keyboard-response","115","440220","0.0-4.0-6.0-1.0-2.12","601b9077694f034f0092dd8f","63690f60c96a0a9a64b48fbd","6369209fd1847d4416b358e2","null","","null","","","","","","","","./tasks/HMM-beads/Images/BlackBeadChoiceCorrect.png","","","","","","","","","","","","","","","","","","","","","","","",""
"image-keyboard-response","116","440890","0.0-4.0-6.0-1.0-0.13","601b9077694f034f0092dd8f","63690f60c96a0a9a64b48fbd","6369209fd1847d4416b358e2","670","","j","","","","","","","","./tasks/HMM-beads/Images/NewTrialBC.png","highH","13","2","1","1","2","false","","","","","","","","","","","","","","","","",""
"image-keyboard-response","117","441196","0.0-4.0-6.0-1.0-1.13","601b9077694f034f0092dd8f","63690f60c96a0a9a64b48fbd","6369209fd1847d4416b358e2","null","","null","","","","","","","","./tasks/HMM-beads/Images/WhiteBeadChoice.png","","","","","","","","","","","","","","","","","","","","","","","",""
"image-keyboard-response","118","441699","0.0-4.0-6.0-1.0-2.13","601b9077694f034f0092dd8f","63690f60c96a0a9a64b48fbd","6369209fd1847d4416b358e2","null","","null","","","","","","","","./tasks/HMM-beads/Images/WhiteBeadChoiceWrong.png","","","","","","","","","","","","","","","","","","","","","","","",""
"image-keyboard-response","119","443810","0.0-4.0-6.0-1.0-0.14","601b9077694f034f0092dd8f","63690f60c96a0a9a64b48fbd","6369209fd1847d4416b358e2","2110","","f","","","","","","","","./tasks/HMM-beads/Images/NewTrialBC.png","highH","14","1","2","1","1","false","","","","","","","","","","","","","","","","",""
"image-keyboard-response","120","444115","0.0-4.0-6.0-1.0-1.14","601b9077694f034f0092dd8f","63690f60c96a0a9a64b48fbd","6369209fd1847d4416b358e2","null","","null","","","","","","","","./tasks/HMM-beads/Images/BlackBeadChoice.png","","","","","","","","","","","","","","","","","","","","","","","",""
"image-keyboard-response","121","444621","0.0-4.0-6.0-1.0-2.14","601b9077694f034f0092dd8f","63690f60c96a0a9a64b48fbd","6369209fd1847d4416b358e2","null","","null","","","","","","","","./tasks/HMM-beads/Images/BlackBeadChoiceWrong.png","","","","","","","","","","","","","","","","","","","","","","","",""
"image-keyboard-response","122","447727","0.0-4.0-6.0-1.0-0.15","601b9077694f034f0092dd8f","63690f60c96a0a9a64b48fbd","6369209fd1847d4416b358e2","3105","","f","","","","","","","","./tasks/HMM-beads/Images/NewTrialWC.png","highH","15","2","2","2","1","false","","","","","","","","","","","","","","","","",""
"image-keyboard-response","123","448033","0.0-4.0-6.0-1.0-1.15","601b9077694f034f0092dd8f","63690f60c96a0a9a64b48fbd","6369209fd1847d4416b358e2","null","","null","","","","","","","","./tasks/HMM-beads/Images/BlackBeadChoice.png","","","","","","","","","","","","","","","","","","","","","","","",""
"image-keyboard-response","124","448547","0.0-4.0-6.0-1.0-2.15","601b9077694f034f0092dd8f","63690f60c96a0a9a64b48fbd","6369209fd1847d4416b358e2","null","","null","","","","","","","","./tasks/HMM-beads/Images/BlackBeadChoiceWrong.png","","","","","","","","","","","","","","","","","","","","","","","",""
"image-keyboard-response","125","450987","0.0-4.0-6.0-1.0-0.16","601b9077694f034f0092dd8f","63690f60c96a0a9a64b48fbd","6369209fd1847d4416b358e2","2439","","f","","","","","","","","./tasks/HMM-beads/Images/NewTrialWC.png","highH","16","1","1","2","1","true","","","","","","","","","","","","","","","","",""
"image-keyboard-response","126","451289","0.0-4.0-6.0-1.0-1.16","601b9077694f034f0092dd8f","63690f60c96a0a9a64b48fbd","6369209fd1847d4416b358e2","null","","null","","","","","","","","./tasks/HMM-beads/Images/BlackBeadChoice.png","","","","","","","","","","","","","","","","","","","","","","","",""
"image-keyboard-response","127","451792","0.0-4.0-6.0-1.0-2.16","601b9077694f034f0092dd8f","63690f60c96a0a9a64b48fbd","6369209fd1847d4416b358e2","null","","null","","","","","","","","./tasks/HMM-beads/Images/BlackBeadChoiceCorrect.png","","","","","","","","","","","","","","","","","","","","","","","",""
"image-keyboard-response","128","453507","0.0-4.0-6.0-1.0-0.17","601b9077694f034f0092dd8f","63690f60c96a0a9a64b48fbd","6369209fd1847d4416b358e2","1714","","j","","","","","","","","./tasks/HMM-beads/Images/NewTrialBC.png","highH","17","2","2","1","2","true","","","","","","","","","","","","","","","","",""
"image-keyboard-response","129","453813","0.0-4.0-6.0-1.0-1.17","601b9077694f034f0092dd8f","63690f60c96a0a9a64b48fbd","6369209fd1847d4416b358e2","null","","null","","","","","","","","./tasks/HMM-beads/Images/WhiteBeadChoice.png","","","","","","","","","","","","","","","","","","","","","","","",""
"image-keyboard-response","130","454319","0.0-4.0-6.0-1.0-2.17","601b9077694f034f0092dd8f","63690f60c96a0a9a64b48fbd","6369209fd1847d4416b358e2","null","","null","","","","","","","","./tasks/HMM-beads/Images/WhiteBeadChoiceCorrect.png","","","","","","","","","","","","","","","","","","","","","","","",""
"image-keyboard-response","131","455698","0.0-4.0-6.0-1.0-0.18","601b9077694f034f0092dd8f","63690f60c96a0a9a64b48fbd","6369209fd1847d4416b358e2","1378","","f","","","","","","","","./tasks/HMM-beads/Images/NewTrialWC.png","highH","18","1","2","2","1","false","","","","","","","","","","","","","","","","",""
"image-keyboard-response","132","456002","0.0-4.0-6.0-1.0-1.18","601b9077694f034f0092dd8f","63690f60c96a0a9a64b48fbd","6369209fd1847d4416b358e2","null","","null","","","","","","","","./tasks/HMM-beads/Images/BlackBeadChoice.png","","","","","","","","","","","","","","","","","","","","","","","",""
"image-keyboard-response","133","456504","0.0-4.0-6.0-1.0-2.18","601b9077694f034f0092dd8f","63690f60c96a0a9a64b48fbd","6369209fd1847d4416b358e2","null","","null","","","","","","","","./tasks/HMM-beads/Images/BlackBeadChoiceWrong.png","","","","","","","","","","","","","","","","","","","","","","","",""
"image-keyboard-response","134","457977","0.0-4.0-6.0-1.0-0.19","601b9077694f034f0092dd8f","63690f60c96a0a9a64b48fbd","6369209fd1847d4416b358e2","1473","","f","","","","","","","","./tasks/HMM-beads/Images/NewTrialWC.png","highH","19","2","2","2","1","false","","","","","","","","","","","","","","","","",""
"image-keyboard-response","135","458283","0.0-4.0-6.0-1.0-1.19","601b9077694f034f0092dd8f","63690f60c96a0a9a64b48fbd","6369209fd1847d4416b358e2","null","","null","","","","","","","","./tasks/HMM-beads/Images/BlackBeadChoice.png","","","","","","","","","","","","","","","","","","","","","","","",""
"image-keyboard-response","136","458784","0.0-4.0-6.0-1.0-2.19","601b9077694f034f0092dd8f","63690f60c96a0a9a64b48fbd","6369209fd1847d4416b358e2","null","","null","","","","","","","","./tasks/HMM-beads/Images/BlackBeadChoiceWrong.png","","","","","","","","","","","","","","","","","","","","","","","",""
"image-keyboard-response","137","458994","0.0-4.0-6.0-1.0-0.20","601b9077694f034f0092dd8f","63690f60c96a0a9a64b48fbd","6369209fd1847d4416b358e2","209","","f","","","","","","","","./tasks/HMM-beads/Images/NewTrialWC.png","highH","20","1","1","2","1","true","","","","","","","","","","","","","","","","",""
"image-keyboard-response","138","459299","0.0-4.0-6.0-1.0-1.20","601b9077694f034f0092dd8f","63690f60c96a0a9a64b48fbd","6369209fd1847d4416b358e2","null","","null","","","","","","","","./tasks/HMM-beads/Images/BlackBeadChoice.png","","","","","","","","","","","","","","","","","","","","","","","",""
"image-keyboard-response","139","459805","0.0-4.0-6.0-1.0-2.20","601b9077694f034f0092dd8f","63690f60c96a0a9a64b48fbd","6369209fd1847d4416b358e2","null","","null","","","","","","","","./tasks/HMM-beads/Images/BlackBeadChoiceCorrect.png","","","","","","","","","","","","","","","","","","","","","","","",""
"image-keyboard-response","140","461397","0.0-4.0-6.0-1.0-0.21","601b9077694f034f0092dd8f","63690f60c96a0a9a64b48fbd","6369209fd1847d4416b358e2","1592","","j","","","","","","","","./tasks/HMM-beads/Images/NewTrialBC.png","highH","21","2","1","1","2","false","","","","","","","","","","","","","","","","",""
"image-keyboard-response","141","461703","0.0-4.0-6.0-1.0-1.21","601b9077694f034f0092dd8f","63690f60c96a0a9a64b48fbd","6369209fd1847d4416b358e2","null","","null","","","","","","","","./tasks/HMM-beads/Images/WhiteBeadChoice.png","","","","","","","","","","","","","","","","","","","","","","","",""
"image-keyboard-response","142","462206","0.0-4.0-6.0-1.0-2.21","601b9077694f034f0092dd8f","63690f60c96a0a9a64b48fbd","6369209fd1847d4416b358e2","null","","null","","","","","","","","./tasks/HMM-beads/Images/WhiteBeadChoiceWrong.png","","","","","","","","","","","","","","","","","","","","","","","",""
"image-keyboard-response","143","463320","0.0-4.0-6.0-1.0-0.22","601b9077694f034f0092dd8f","63690f60c96a0a9a64b48fbd","6369209fd1847d4416b358e2","1114","","f","","","","","","","","./tasks/HMM-beads/Images/NewTrialBC.png","highH","22","1","1","1","1","true","","","","","","","","","","","","","","","","",""
"image-keyboard-response","144","463624","0.0-4.0-6.0-1.0-1.22","601b9077694f034f0092dd8f","63690f60c96a0a9a64b48fbd","6369209fd1847d4416b358e2","null","","null","","","","","","","","./tasks/HMM-beads/Images/BlackBeadChoice.png","","","","","","","","","","","","","","","","","","","","","","","",""
"image-keyboard-response","145","464140","0.0-4.0-6.0-1.0-2.22","601b9077694f034f0092dd8f","63690f60c96a0a9a64b48fbd","6369209fd1847d4416b358e2","null","","null","","","","","","","","./tasks/HMM-beads/Images/BlackBeadChoiceCorrect.png","","","","","","","","","","","","","","","","","","","","","","","",""
"image-keyboard-response","146","465279","0.0-4.0-6.0-1.0-0.23","601b9077694f034f0092dd8f","63690f60c96a0a9a64b48fbd","6369209fd1847d4416b358e2","1138","","j","","","","","","","","./tasks/HMM-beads/Images/NewTrialBC.png","highH","23","2","2","1","2","true","","","","","","","","","","","","","","","","",""
"image-keyboard-response","147","465583","0.0-4.0-6.0-1.0-1.23","601b9077694f034f0092dd8f","63690f60c96a0a9a64b48fbd","6369209fd1847d4416b358e2","null","","null","","","","","","","","./tasks/HMM-beads/Images/WhiteBeadChoice.png","","","","","","","","","","","","","","","","","","","","","","","",""
"image-keyboard-response","148","466088","0.0-4.0-6.0-1.0-2.23","601b9077694f034f0092dd8f","63690f60c96a0a9a64b48fbd","6369209fd1847d4416b358e2","null","","null","","","","","","","","./tasks/HMM-beads/Images/WhiteBeadChoiceCorrect.png","","","","","","","","","","","","","","","","","","","","","","","",""
"image-keyboard-response","149","467912","0.0-4.0-6.0-1.0-0.24","601b9077694f034f0092dd8f","63690f60c96a0a9a64b48fbd","6369209fd1847d4416b358e2","1823","","f","","","","","","","","./tasks/HMM-beads/Images/NewTrialWC.png","highH","24","1","1","2","1","true","","","","","","","","","","","","","","","","",""
"image-keyboard-response","150","468216","0.0-4.0-6.0-1.0-1.24","601b9077694f034f0092dd8f","63690f60c96a0a9a64b48fbd","6369209fd1847d4416b358e2","null","","null","","","","","","","","./tasks/HMM-beads/Images/BlackBeadChoice.png","","","","","","","","","","","","","","","","","","","","","","","",""
"image-keyboard-response","151","468722","0.0-4.0-6.0-1.0-2.24","601b9077694f034f0092dd8f","63690f60c96a0a9a64b48fbd","6369209fd1847d4416b358e2","null","","null","","","","","","","","./tasks/HMM-beads/Images/BlackBeadChoiceCorrect.png","","","","","","","","","","","","","","","","","","","","","","","",""
"image-keyboard-response","152","469772","0.0-4.0-6.0-1.0-0.25","601b9077694f034f0092dd8f","63690f60c96a0a9a64b48fbd","6369209fd1847d4416b358e2","1050","","j","","","","","","","","./tasks/HMM-beads/Images/NewTrialBC.png","highH","25","2","1","1","2","false","","","","","","","","","","","","","","","","",""
"image-keyboard-response","153","470075","0.0-4.0-6.0-1.0-1.25","601b9077694f034f0092dd8f","63690f60c96a0a9a64b48fbd","6369209fd1847d4416b358e2","null","","null","","","","","","","","./tasks/HMM-beads/Images/WhiteBeadChoice.png","","","","","","","","","","","","","","","","","","","","","","","",""
"image-keyboard-response","154","470581","0.0-4.0-6.0-1.0-2.25","601b9077694f034f0092dd8f","63690f60c96a0a9a64b48fbd","6369209fd1847d4416b358e2","null","","null","","","","","","","","./tasks/HMM-beads/Images/WhiteBeadChoiceWrong.png","","","","","","","","","","","","","","","","","","","","","","","",""
"image-keyboard-response","155","471638","0.0-4.0-6.0-1.0-0.26","601b9077694f034f0092dd8f","63690f60c96a0a9a64b48fbd","6369209fd1847d4416b358e2","1056","","f","","","","","","","","./tasks/HMM-beads/Images/NewTrialBC.png","highH","26","1","1","1","1","true","","","","","","","","","","","","","","","","",""
"image-keyboard-response","156","471940","0.0-4.0-6.0-1.0-1.26","601b9077694f034f0092dd8f","63690f60c96a0a9a64b48fbd","6369209fd1847d4416b358e2","null","","null","","","","","","","","./tasks/HMM-beads/Images/BlackBeadChoice.png","","","","","","","","","","","","","","","","","","","","","","","",""
"image-keyboard-response","157","472445","0.0-4.0-6.0-1.0-2.26","601b9077694f034f0092dd8f","63690f60c96a0a9a64b48fbd","6369209fd1847d4416b358e2","null","","null","","","","","","","","./tasks/HMM-beads/Images/BlackBeadChoiceCorrect.png","","","","","","","","","","","","","","","","","","","","","","","",""
"image-keyboard-response","158","473595","0.0-4.0-6.0-1.0-0.27","601b9077694f034f0092dd8f","63690f60c96a0a9a64b48fbd","6369209fd1847d4416b358e2","1139","","j","","","","","","","","./tasks/HMM-beads/Images/NewTrialBC.png","highH","27","2","2","1","2","true","","","","","","","","","","","","","","","","",""
"image-keyboard-response","159","473897","0.0-4.0-6.0-1.0-1.27","601b9077694f034f0092dd8f","63690f60c96a0a9a64b48fbd","6369209fd1847d4416b358e2","null","","null","","","","","","","","./tasks/HMM-beads/Images/WhiteBeadChoice.png","","","","","","","","","","","","","","","","","","","","","","","",""
"image-keyboard-response","160","474403","0.0-4.0-6.0-1.0-2.27","601b9077694f034f0092dd8f","63690f60c96a0a9a64b48fbd","6369209fd1847d4416b358e2","null","","null","","","","","","","","./tasks/HMM-beads/Images/WhiteBeadChoiceCorrect.png","","","","","","","","","","","","","","","","","","","","","","","",""
"image-keyboard-response","161","476274","0.0-4.0-6.0-1.0-0.28","601b9077694f034f0092dd8f","63690f60c96a0a9a64b48fbd","6369209fd1847d4416b358e2","1871","","f","","","","","","","","./tasks/HMM-beads/Images/NewTrialWC.png","highH","28","2","1","2","1","true","","","","","","","","","","","","","","","","",""
"image-keyboard-response","162","476580","0.0-4.0-6.0-1.0-1.28","601b9077694f034f0092dd8f","63690f60c96a0a9a64b48fbd","6369209fd1847d4416b358e2","null","","null","","","","","","","","./tasks/HMM-beads/Images/BlackBeadChoice.png","","","","","","","","","","","","","","","","","","","","","","","",""
"image-keyboard-response","163","477085","0.0-4.0-6.0-1.0-2.28","601b9077694f034f0092dd8f","63690f60c96a0a9a64b48fbd","6369209fd1847d4416b358e2","null","","null","","","","","","","","./tasks/HMM-beads/Images/BlackBeadChoiceCorrect.png","","","","","","","","","","","","","","","","","","","","","","","",""
"image-keyboard-response","164","478340","0.0-4.0-6.0-1.0-0.29","601b9077694f034f0092dd8f","63690f60c96a0a9a64b48fbd","6369209fd1847d4416b358e2","1255","","j","","","","","","","","./tasks/HMM-beads/Images/NewTrialBC.png","highH","29","1","1","1","2","false","","","","","","","","","","","","","","","","",""
"image-keyboard-response","165","478642","0.0-4.0-6.0-1.0-1.29","601b9077694f034f0092dd8f","63690f60c96a0a9a64b48fbd","6369209fd1847d4416b358e2","null","","null","","","","","","","","./tasks/HMM-beads/Images/WhiteBeadChoice.png","","","","","","","","","","","","","","","","","","","","","","","",""
"image-keyboard-response","166","479147","0.0-4.0-6.0-1.0-2.29","601b9077694f034f0092dd8f","63690f60c96a0a9a64b48fbd","6369209fd1847d4416b358e2","null","","null","","","","","","","","./tasks/HMM-beads/Images/WhiteBeadChoiceWrong.png","","","","","","","","","","","","","","","","","","","","","","","",""
"image-keyboard-response","167","480709","0.0-4.0-6.0-1.0-0.30","601b9077694f034f0092dd8f","63690f60c96a0a9a64b48fbd","6369209fd1847d4416b358e2","1561","","f","","","","","","","","./tasks/HMM-beads/Images/NewTrialBC.png","highH","30","2","1","1","1","true","","","","","","","","","","","","","","","","",""
"image-keyboard-response","168","481014","0.0-4.0-6.0-1.0-1.30","601b9077694f034f0092dd8f","63690f60c96a0a9a64b48fbd","6369209fd1847d4416b358e2","null","","null","","","","","","","","./tasks/HMM-beads/Images/BlackBeadChoice.png","","","","","","","","","","","","","","","","","","","","","","","",""
"image-keyboard-response","169","481516","0.0-4.0-6.0-1.0-2.30","601b9077694f034f0092dd8f","63690f60c96a0a9a64b48fbd","6369209fd1847d4416b358e2","null","","null","","","","","","","","./tasks/HMM-beads/Images/BlackBeadChoiceCorrect.png","","","","","","","","","","","","","","","","","","","","","","","",""
"image-keyboard-response","170","482581","0.0-4.0-6.0-1.0-0.31","601b9077694f034f0092dd8f","63690f60c96a0a9a64b48fbd","6369209fd1847d4416b358e2","1065","","j","","","","","","","","./tasks/HMM-beads/Images/NewTrialBC.png","highH","31","1","1","1","2","false","","","","","","","","","","","","","","","","",""
"image-keyboard-response","171","482900","0.0-4.0-6.0-1.0-1.31","601b9077694f034f0092dd8f","63690f60c96a0a9a64b48fbd","6369209fd1847d4416b358e2","null","","null","","","","","","","","./tasks/HMM-beads/Images/WhiteBeadChoice.png","","","","","","","","","","","","","","","","","","","","","","","",""
"image-keyboard-response","172","483406","0.0-4.0-6.0-1.0-2.31","601b9077694f034f0092dd8f","63690f60c96a0a9a64b48fbd","6369209fd1847d4416b358e2","null","","null","","","","","","","","./tasks/HMM-beads/Images/WhiteBeadChoiceWrong.png","","","","","","","","","","","","","","","","","","","","","","","",""
"image-keyboard-response","173","484345","0.0-4.0-6.0-1.0-0.32","601b9077694f034f0092dd8f","63690f60c96a0a9a64b48fbd","6369209fd1847d4416b358e2","938","","f","","","","","","","","./tasks/HMM-beads/Images/NewTrialBC.png","highH","32","2","2","1","1","false","","","","","","","","","","","","","","","","",""
"image-keyboard-response","174","484647","0.0-4.0-6.0-1.0-1.32","601b9077694f034f0092dd8f","63690f60c96a0a9a64b48fbd","6369209fd1847d4416b358e2","null","","null","","","","","","","","./tasks/HMM-beads/Images/BlackBeadChoice.png","","","","","","","","","","","","","","","","","","","","","","","",""
"image-keyboard-response","175","485148","0.0-4.0-6.0-1.0-2.32","601b9077694f034f0092dd8f","63690f60c96a0a9a64b48fbd","6369209fd1847d4416b358e2","null","","null","","","","","","","","./tasks/HMM-beads/Images/BlackBeadChoiceWrong.png","","","","","","","","","","","","","","","","","","","","","","","",""
"image-keyboard-response","176","487587","0.0-4.0-6.0-1.0-0.33","601b9077694f034f0092dd8f","63690f60c96a0a9a64b48fbd","6369209fd1847d4416b358e2","2438","","j","","","","","","","","./tasks/HMM-beads/Images/NewTrialWC.png","highH","33","1","1","2","2","false","","","","","","","","","","","","","","","","",""
"image-keyboard-response","177","487893","0.0-4.0-6.0-1.0-1.33","601b9077694f034f0092dd8f","63690f60c96a0a9a64b48fbd","6369209fd1847d4416b358e2","null","","null","","","","","","","","./tasks/HMM-beads/Images/WhiteBeadChoice.png","","","","","","","","","","","","","","","","","","","","","","","",""
"image-keyboard-response","178","488398","0.0-4.0-6.0-1.0-2.33","601b9077694f034f0092dd8f","63690f60c96a0a9a64b48fbd","6369209fd1847d4416b358e2","null","","null","","","","","","","","./tasks/HMM-beads/Images/WhiteBeadChoiceWrong.png","","","","","","","","","","","","","","","","","","","","","","","",""
"image-keyboard-response","179","492189","0.0-4.0-6.0-1.0-0.34","601b9077694f034f0092dd8f","63690f60c96a0a9a64b48fbd","6369209fd1847d4416b358e2","3789","","f","","","","","","","","./tasks/HMM-beads/Images/NewTrialBC.png","highH","34","2","2","1","1","false","","","","","","","","","","","","","","","","",""
"image-keyboard-response","180","492491","0.0-4.0-6.0-1.0-1.34","601b9077694f034f0092dd8f","63690f60c96a0a9a64b48fbd","6369209fd1847d4416b358e2","null","","null","","","","","","","","./tasks/HMM-beads/Images/BlackBeadChoice.png","","","","","","","","","","","","","","","","","","","","","","","",""
"image-keyboard-response","181","492997","0.0-4.0-6.0-1.0-2.34","601b9077694f034f0092dd8f","63690f60c96a0a9a64b48fbd","6369209fd1847d4416b358e2","null","","null","","","","","","","","./tasks/HMM-beads/Images/BlackBeadChoiceWrong.png","","","","","","","","","","","","","","","","","","","","","","","",""
"image-keyboard-response","182","494368","0.0-4.0-6.0-1.0-0.35","601b9077694f034f0092dd8f","63690f60c96a0a9a64b48fbd","6369209fd1847d4416b358e2","1370","","f","","","","","","","","./tasks/HMM-beads/Images/NewTrialWC.png","highH","35","1","1","2","1","true","","","","","","","","","","","","","","","","",""
"image-keyboard-response","183","494670","0.0-4.0-6.0-1.0-1.35","601b9077694f034f0092dd8f","63690f60c96a0a9a64b48fbd","6369209fd1847d4416b358e2","null","","null","","","","","","","","./tasks/HMM-beads/Images/BlackBeadChoice.png","","","","","","","","","","","","","","","","","","","","","","","",""
"image-keyboard-response","184","495176","0.0-4.0-6.0-1.0-2.35","601b9077694f034f0092dd8f","63690f60c96a0a9a64b48fbd","6369209fd1847d4416b358e2","null","","null","","","","","","","","./tasks/HMM-beads/Images/BlackBeadChoiceCorrect.png","","","","","","","","","","","","","","","","","","","","","","","",""
"image-keyboard-response","185","497707","0.0-4.0-6.0-1.0-0.36","601b9077694f034f0092dd8f","63690f60c96a0a9a64b48fbd","6369209fd1847d4416b358e2","2531","","j","","","","","","","","./tasks/HMM-beads/Images/NewTrialBC.png","highH","36","2","1","1","2","false","","","","","","","","","","","","","","","","",""
"image-keyboard-response","186","498013","0.0-4.0-6.0-1.0-1.36","601b9077694f034f0092dd8f","63690f60c96a0a9a64b48fbd","6369209fd1847d4416b358e2","null","","null","","","","","","","","./tasks/HMM-beads/Images/WhiteBeadChoice.png","","","","","","","","","","","","","","","","","","","","","","","",""
"image-keyboard-response","187","498515","0.0-4.0-6.0-1.0-2.36","601b9077694f034f0092dd8f","63690f60c96a0a9a64b48fbd","6369209fd1847d4416b358e2","null","","null","","","","","","","","./tasks/HMM-beads/Images/WhiteBeadChoiceWrong.png","","","","","","","","","","","","","","","","","","","","","","","",""
"image-keyboard-response","188","499638","0.0-4.0-6.0-1.0-0.37","601b9077694f034f0092dd8f","63690f60c96a0a9a64b48fbd","6369209fd1847d4416b358e2","1122","","f","","","","","","","","./tasks/HMM-beads/Images/NewTrialBC.png","highH","37","1","1","1","1","true","","","","","","","","","","","","","","","","",""
"image-keyboard-response","189","499944","0.0-4.0-6.0-1.0-1.37","601b9077694f034f0092dd8f","63690f60c96a0a9a64b48fbd","6369209fd1847d4416b358e2","null","","null","","","","","","","","./tasks/HMM-beads/Images/BlackBeadChoice.png","","","","","","","","","","","","","","","","","","","","","","","",""
"image-keyboard-response","190","500461","0.0-4.0-6.0-1.0-2.37","601b9077694f034f0092dd8f","63690f60c96a0a9a64b48fbd","6369209fd1847d4416b358e2","null","","null","","","","","","","","./tasks/HMM-beads/Images/BlackBeadChoiceCorrect.png","","","","","","","","","","","","","","","","","","","","","","","",""
"image-keyboard-response","191","501672","0.0-4.0-6.0-1.0-0.38","601b9077694f034f0092dd8f","63690f60c96a0a9a64b48fbd","6369209fd1847d4416b358e2","1210","","j","","","","","","","","./tasks/HMM-beads/Images/NewTrialBC.png","highH","38","2","2","1","2","true","","","","","","","","","","","","","","","","",""
"image-keyboard-response","192","501976","0.0-4.0-6.0-1.0-1.38","601b9077694f034f0092dd8f","63690f60c96a0a9a64b48fbd","6369209fd1847d4416b358e2","null","","null","","","","","","","","./tasks/HMM-beads/Images/WhiteBeadChoice.png","","","","","","","","","","","","","","","","","","","","","","","",""
"image-keyboard-response","193","502482","0.0-4.0-6.0-1.0-2.38","601b9077694f034f0092dd8f","63690f60c96a0a9a64b48fbd","6369209fd1847d4416b358e2","null","","null","","","","","","","","./tasks/HMM-beads/Images/WhiteBeadChoiceCorrect.png","","","","","","","","","","","","","","","","","","","","","","","",""
"image-keyboard-response","194","503542","0.0-4.0-6.0-1.0-0.39","601b9077694f034f0092dd8f","63690f60c96a0a9a64b48fbd","6369209fd1847d4416b358e2","1059","","f","","","","","","","","./tasks/HMM-beads/Images/NewTrialWC.png","highH","39","1","1","2","1","true","","","","","","","","","","","","","","","","",""
"image-keyboard-response","195","503846","0.0-4.0-6.0-1.0-1.39","601b9077694f034f0092dd8f","63690f60c96a0a9a64b48fbd","6369209fd1847d4416b358e2","null","","null","","","","","","","","./tasks/HMM-beads/Images/BlackBeadChoice.png","","","","","","","","","","","","","","","","","","","","","","","",""
"image-keyboard-response","196","504351","0.0-4.0-6.0-1.0-2.39","601b9077694f034f0092dd8f","63690f60c96a0a9a64b48fbd","6369209fd1847d4416b358e2","null","","null","","","","","","","","./tasks/HMM-beads/Images/BlackBeadChoiceCorrect.png","","","","","","","","","","","","","","","","","","","","","","","",""
"image-keyboard-response","197","505448","0.0-4.0-6.0-1.0-0.40","601b9077694f034f0092dd8f","63690f60c96a0a9a64b48fbd","6369209fd1847d4416b358e2","1096","","j","","","","","","","","./tasks/HMM-beads/Images/NewTrialBC.png","highH","40","2","2","1","2","true","","","","","","","","","","","","","","","","",""
"image-keyboard-response","198","505752","0.0-4.0-6.0-1.0-1.40","601b9077694f034f0092dd8f","63690f60c96a0a9a64b48fbd","6369209fd1847d4416b358e2","null","","null","","","","","","","","./tasks/HMM-beads/Images/WhiteBeadChoice.png","","","","","","","","","","","","","","","","","","","","","","","",""
"image-keyboard-response","199","506254","0.0-4.0-6.0-1.0-2.40","601b9077694f034f0092dd8f","63690f60c96a0a9a64b48fbd","6369209fd1847d4416b358e2","null","","null","","","","","","","","./tasks/HMM-beads/Images/WhiteBeadChoiceCorrect.png","","","","","","","","","","","","","","","","","","","","","","","",""
"image-keyboard-response","200","508078","0.0-4.0-6.0-1.0-0.41","601b9077694f034f0092dd8f","63690f60c96a0a9a64b48fbd","6369209fd1847d4416b358e2","1823","","j","","","","","","","","./tasks/HMM-beads/Images/NewTrialWC.png","highH","41","1","2","2","2","true","","","","","","","","","","","","","","","","",""
"image-keyboard-response","201","508383","0.0-4.0-6.0-1.0-1.41","601b9077694f034f0092dd8f","63690f60c96a0a9a64b48fbd","6369209fd1847d4416b358e2","null","","null","","","","","","","","./tasks/HMM-beads/Images/WhiteBeadChoice.png","","","","","","","","","","","","","","","","","","","","","","","",""
"image-keyboard-response","202","508889","0.0-4.0-6.0-1.0-2.41","601b9077694f034f0092dd8f","63690f60c96a0a9a64b48fbd","6369209fd1847d4416b358e2","null","","null","","","","","","","","./tasks/HMM-beads/Images/WhiteBeadChoiceCorrect.png","","","","","","","","","","","","","","","","","","","","","","","",""
"image-keyboard-response","203","510774","0.0-4.0-6.0-1.0-0.42","601b9077694f034f0092dd8f","63690f60c96a0a9a64b48fbd","6369209fd1847d4416b358e2","1884","","f","","","","","","","","./tasks/HMM-beads/Images/NewTrialWC.png","highH","42","2","2","2","1","false","","","","","","","","","","","","","","","","",""
"image-keyboard-response","204","511080","0.0-4.0-6.0-1.0-1.42","601b9077694f034f0092dd8f","63690f60c96a0a9a64b48fbd","6369209fd1847d4416b358e2","null","","null","","","","","","","","./tasks/HMM-beads/Images/BlackBeadChoice.png","","","","","","","","","","","","","","","","","","","","","","","",""
"image-keyboard-response","205","511582","0.0-4.0-6.0-1.0-2.42","601b9077694f034f0092dd8f","63690f60c96a0a9a64b48fbd","6369209fd1847d4416b358e2","null","","null","","","","","","","","./tasks/HMM-beads/Images/BlackBeadChoiceWrong.png","","","","","","","","","","","","","","","","","","","","","","","",""
"image-keyboard-response","206","512712","0.0-4.0-6.0-1.0-0.43","601b9077694f034f0092dd8f","63690f60c96a0a9a64b48fbd","6369209fd1847d4416b358e2","1130","","f","","","","","","","","./tasks/HMM-beads/Images/NewTrialWC.png","highH","43","1","1","2","1","true","","","","","","","","","","","","","","","","",""
"image-keyboard-response","207","513016","0.0-4.0-6.0-1.0-1.43","601b9077694f034f0092dd8f","63690f60c96a0a9a64b48fbd","6369209fd1847d4416b358e2","null","","null","","","","","","","","./tasks/HMM-beads/Images/BlackBeadChoice.png","","","","","","","","","","","","","","","","","","","","","","","",""
"image-keyboard-response","208","513520","0.0-4.0-6.0-1.0-2.43","601b9077694f034f0092dd8f","63690f60c96a0a9a64b48fbd","6369209fd1847d4416b358e2","null","","null","","","","","","","","./tasks/HMM-beads/Images/BlackBeadChoiceCorrect.png","","","","","","","","","","","","","","","","","","","","","","","",""
"image-keyboard-response","209","514895","0.0-4.0-6.0-1.0-0.44","601b9077694f034f0092dd8f","63690f60c96a0a9a64b48fbd","6369209fd1847d4416b358e2","1374","","j","","","","","","","","./tasks/HMM-beads/Images/NewTrialBC.png","highH","44","2","1","1","2","false","","","","","","","","","","","","","","","","",""
"image-keyboard-response","210","515196","0.0-4.0-6.0-1.0-1.44","601b9077694f034f0092dd8f","63690f60c96a0a9a64b48fbd","6369209fd1847d4416b358e2","null","","null","","","","","","","","./tasks/HMM-beads/Images/WhiteBeadChoice.png","","","","","","","","","","","","","","","","","","","","","","","",""
"image-keyboard-response","211","515702","0.0-4.0-6.0-1.0-2.44","601b9077694f034f0092dd8f","63690f60c96a0a9a64b48fbd","6369209fd1847d4416b358e2","null","","null","","","","","","","","./tasks/HMM-beads/Images/WhiteBeadChoiceWrong.png","","","","","","","","","","","","","","","","","","","","","","","",""
"image-keyboard-response","212","517833","0.0-4.0-6.0-1.0-0.45","601b9077694f034f0092dd8f","63690f60c96a0a9a64b48fbd","6369209fd1847d4416b358e2","2129","","f","","","","","","","","./tasks/HMM-beads/Images/NewTrialBC.png","highH","45","1","1","1","1","true","","","","","","","","","","","","","","","","",""
"image-keyboard-response","213","518135","0.0-4.0-6.0-1.0-1.45","601b9077694f034f0092dd8f","63690f60c96a0a9a64b48fbd","6369209fd1847d4416b358e2","null","","null","","","","","","","","./tasks/HMM-beads/Images/BlackBeadChoice.png","","","","","","","","","","","","","","","","","","","","","","","",""
"image-keyboard-response","214","518641","0.0-4.0-6.0-1.0-2.45","601b9077694f034f0092dd8f","63690f60c96a0a9a64b48fbd","6369209fd1847d4416b358e2","null","","null","","","","","","","","./tasks/HMM-beads/Images/BlackBeadChoiceCorrect.png","","","","","","","","","","","","","","","","","","","","","","","",""
"image-keyboard-response","215","519433","0.0-4.0-6.0-1.0-0.46","601b9077694f034f0092dd8f","63690f60c96a0a9a64b48fbd","6369209fd1847d4416b358e2","779","","j","","","","","","","","./tasks/HMM-beads/Images/NewTrialBC.png","highH","46","2","2","1","2","true","","","","","","","","","","","","","","","","",""
"image-keyboard-response","216","519739","0.0-4.0-6.0-1.0-1.46","601b9077694f034f0092dd8f","63690f60c96a0a9a64b48fbd","6369209fd1847d4416b358e2","null","","null","","","","","","","","./tasks/HMM-beads/Images/WhiteBeadChoice.png","","","","","","","","","","","","","","","","","","","","","","","",""
"image-keyboard-response","217","520240","0.0-4.0-6.0-1.0-2.46","601b9077694f034f0092dd8f","63690f60c96a0a9a64b48fbd","6369209fd1847d4416b358e2","null","","null","","","","","","","","./tasks/HMM-beads/Images/WhiteBeadChoiceCorrect.png","","","","","","","","","","","","","","","","","","","","","","","",""
"image-keyboard-response","218","521391","0.0-4.0-6.0-1.0-0.47","601b9077694f034f0092dd8f","63690f60c96a0a9a64b48fbd","6369209fd1847d4416b358e2","1151","","f","","","","","","","","./tasks/HMM-beads/Images/NewTrialWC.png","highH","47","1","1","2","1","true","","","","","","","","","","","","","","","","",""
"image-keyboard-response","219","521696","0.0-4.0-6.0-1.0-1.47","601b9077694f034f0092dd8f","63690f60c96a0a9a64b48fbd","6369209fd1847d4416b358e2","null","","null","","","","","","","","./tasks/HMM-beads/Images/BlackBeadChoice.png","","","","","","","","","","","","","","","","","","","","","","","",""
"image-keyboard-response","220","522202","0.0-4.0-6.0-1.0-2.47","601b9077694f034f0092dd8f","63690f60c96a0a9a64b48fbd","6369209fd1847d4416b358e2","null","","null","","","","","","","","./tasks/HMM-beads/Images/BlackBeadChoiceCorrect.png","","","","","","","","","","","","","","","","","","","","","","","",""
"image-keyboard-response","221","523473","0.0-4.0-6.0-1.0-0.48","601b9077694f034f0092dd8f","63690f60c96a0a9a64b48fbd","6369209fd1847d4416b358e2","1270","","j","","","","","","","","./tasks/HMM-beads/Images/NewTrialBC.png","highH","48","2","2","1","2","true","","","","","","","","","","","","","","","","",""
"image-keyboard-response","222","523779","0.0-4.0-6.0-1.0-1.48","601b9077694f034f0092dd8f","63690f60c96a0a9a64b48fbd","6369209fd1847d4416b358e2","null","","null","","","","","","","","./tasks/HMM-beads/Images/WhiteBeadChoice.png","","","","","","","","","","","","","","","","","","","","","","","",""
"image-keyboard-response","223","524285","0.0-4.0-6.0-1.0-2.48","601b9077694f034f0092dd8f","63690f60c96a0a9a64b48fbd","6369209fd1847d4416b358e2","null","","null","","","","","","","","./tasks/HMM-beads/Images/WhiteBeadChoiceCorrect.png","","","","","","","","","","","","","","","","","","","","","","","",""
"image-keyboard-response","224","525360","0.0-4.0-6.0-1.0-0.49","601b9077694f034f0092dd8f","63690f60c96a0a9a64b48fbd","6369209fd1847d4416b358e2","1074","","f","","","","","","","","./tasks/HMM-beads/Images/NewTrialWC.png","highH","49","1","1","2","1","true","","","","","","","","","","","","","","","","",""
"image-keyboard-response","225","525666","0.0-4.0-6.0-1.0-1.49","601b9077694f034f0092dd8f","63690f60c96a0a9a64b48fbd","6369209fd1847d4416b358e2","null","","null","","","","","","","","./tasks/HMM-beads/Images/BlackBeadChoice.png","","","","","","","","","","","","","","","","","","","","","","","",""
"image-keyboard-response","226","526172","0.0-4.0-6.0-1.0-2.49","601b9077694f034f0092dd8f","63690f60c96a0a9a64b48fbd","6369209fd1847d4416b358e2","null","","null","","","","","","","","./tasks/HMM-beads/Images/BlackBeadChoiceCorrect.png","","","","","","","","","","","","","","","","","","","","","","","",""
"image-keyboard-response","227","527364","0.0-4.0-6.0-1.0-0.50","601b9077694f034f0092dd8f","63690f60c96a0a9a64b48fbd","6369209fd1847d4416b358e2","1191","","f","","","","","","","","./tasks/HMM-beads/Images/NewTrialBC.png","highH","50","2","1","1","1","true","","","","","","","","","","","","","","","","",""
"image-keyboard-response","228","527665","0.0-4.0-6.0-1.0-1.50","601b9077694f034f0092dd8f","63690f60c96a0a9a64b48fbd","6369209fd1847d4416b358e2","null","","null","","","","","","","","./tasks/HMM-beads/Images/BlackBeadChoice.png","","","","","","","","","","","","","","","","","","","","","","","",""
"image-keyboard-response","229","528171","0.0-4.0-6.0-1.0-2.50","601b9077694f034f0092dd8f","63690f60c96a0a9a64b48fbd","6369209fd1847d4416b358e2","null","","null","","","","","","","","./tasks/HMM-beads/Images/BlackBeadChoiceCorrect.png","","","","","","","","","","","","","","","","","","","","","","","",""
"image-keyboard-response","230","529624","0.0-4.0-6.0-1.0-0.51","601b9077694f034f0092dd8f","63690f60c96a0a9a64b48fbd","6369209fd1847d4416b358e2","1452","","f","","","","","","","","./tasks/HMM-beads/Images/NewTrialBC.png","highH","51","1","1","1","1","true","","","","","","","","","","","","","","","","",""
"image-keyboard-response","231","529926","0.0-4.0-6.0-1.0-1.51","601b9077694f034f0092dd8f","63690f60c96a0a9a64b48fbd","6369209fd1847d4416b358e2","null","","null","","","","","","","","./tasks/HMM-beads/Images/BlackBeadChoice.png","","","","","","","","","","","","","","","","","","","","","","","",""
"image-keyboard-response","232","530431","0.0-4.0-6.0-1.0-2.51","601b9077694f034f0092dd8f","63690f60c96a0a9a64b48fbd","6369209fd1847d4416b358e2","null","","null","","","","","","","","./tasks/HMM-beads/Images/BlackBeadChoiceCorrect.png","","","","","","","","","","","","","","","","","","","","","","","",""
"image-keyboard-response","233","531813","0.0-4.0-6.0-1.0-0.52","601b9077694f034f0092dd8f","63690f60c96a0a9a64b48fbd","6369209fd1847d4416b358e2","1381","","j","","","","","","","","./tasks/HMM-beads/Images/NewTrialBC.png","highH","52","2","2","1","2","true","","","","","","","","","","","","","","","","",""
"image-keyboard-response","234","532114","0.0-4.0-6.0-1.0-1.52","601b9077694f034f0092dd8f","63690f60c96a0a9a64b48fbd","6369209fd1847d4416b358e2","null","","null","","","","","","","","./tasks/HMM-beads/Images/WhiteBeadChoice.png","","","","","","","","","","","","","","","","","","","","","","","",""
"image-keyboard-response","235","532616","0.0-4.0-6.0-1.0-2.52","601b9077694f034f0092dd8f","63690f60c96a0a9a64b48fbd","6369209fd1847d4416b358e2","null","","null","","","","","","","","./tasks/HMM-beads/Images/WhiteBeadChoiceCorrect.png","","","","","","","","","","","","","","","","","","","","","","","",""
"image-keyboard-response","236","533864","0.0-4.0-6.0-1.0-0.53","601b9077694f034f0092dd8f","63690f60c96a0a9a64b48fbd","6369209fd1847d4416b358e2","1248","","f","","","","","","","","./tasks/HMM-beads/Images/NewTrialWC.png","highH","53","1","1","2","1","true","","","","","","","","","","","","","","","","",""
"image-keyboard-response","237","534165","0.0-4.0-6.0-1.0-1.53","601b9077694f034f0092dd8f","63690f60c96a0a9a64b48fbd","6369209fd1847d4416b358e2","null","","null","","","","","","","","./tasks/HMM-beads/Images/BlackBeadChoice.png","","","","","","","","","","","","","","","","","","","","","","","",""
"image-keyboard-response","238","534671","0.0-4.0-6.0-1.0-2.53","601b9077694f034f0092dd8f","63690f60c96a0a9a64b48fbd","6369209fd1847d4416b358e2","null","","null","","","","","","","","./tasks/HMM-beads/Images/BlackBeadChoiceCorrect.png","","","","","","","","","","","","","","","","","","","","","","","",""
"image-keyboard-response","239","536200","0.0-4.0-6.0-1.0-0.54","601b9077694f034f0092dd8f","63690f60c96a0a9a64b48fbd","6369209fd1847d4416b358e2","1528","","j","","","","","","","","./tasks/HMM-beads/Images/NewTrialBC.png","highH","54","2","2","1","2","true","","","","","","","","","","","","","","","","",""
"image-keyboard-response","240","536506","0.0-4.0-6.0-1.0-1.54","601b9077694f034f0092dd8f","63690f60c96a0a9a64b48fbd","6369209fd1847d4416b358e2","null","","null","","","","","","","","./tasks/HMM-beads/Images/WhiteBeadChoice.png","","","","","","","","","","","","","","","","","","","","","","","",""
"image-keyboard-response","241","537008","0.0-4.0-6.0-1.0-2.54","601b9077694f034f0092dd8f","63690f60c96a0a9a64b48fbd","6369209fd1847d4416b358e2","null","","null","","","","","","","","./tasks/HMM-beads/Images/WhiteBeadChoiceCorrect.png","","","","","","","","","","","","","","","","","","","","","","","",""
"image-keyboard-response","242","538479","0.0-4.0-6.0-1.0-0.55","601b9077694f034f0092dd8f","63690f60c96a0a9a64b48fbd","6369209fd1847d4416b358e2","1471","","f","","","","","","","","./tasks/HMM-beads/Images/NewTrialWC.png","highH","55","1","1","2","1","true","","","","","","","","","","","","","","","","",""
"image-keyboard-response","243","538783","0.0-4.0-6.0-1.0-1.55","601b9077694f034f0092dd8f","63690f60c96a0a9a64b48fbd","6369209fd1847d4416b358e2","null","","null","","","","","","","","./tasks/HMM-beads/Images/BlackBeadChoice.png","","","","","","","","","","","","","","","","","","","","","","","",""
"image-keyboard-response","244","539288","0.0-4.0-6.0-1.0-2.55","601b9077694f034f0092dd8f","63690f60c96a0a9a64b48fbd","6369209fd1847d4416b358e2","null","","null","","","","","","","","./tasks/HMM-beads/Images/BlackBeadChoiceCorrect.png","","","","","","","","","","","","","","","","","","","","","","","",""
"image-keyboard-response","245","540615","0.0-4.0-6.0-1.0-0.56","601b9077694f034f0092dd8f","63690f60c96a0a9a64b48fbd","6369209fd1847d4416b358e2","1326","","f","","","","","","","","./tasks/HMM-beads/Images/NewTrialBC.png","highH","56","2","2","1","1","false","","","","","","","","","","","","","","","","",""
"image-keyboard-response","246","540916","0.0-4.0-6.0-1.0-1.56","601b9077694f034f0092dd8f","63690f60c96a0a9a64b48fbd","6369209fd1847d4416b358e2","null","","null","","","","","","","","./tasks/HMM-beads/Images/BlackBeadChoice.png","","","","","","","","","","","","","","","","","","","","","","","",""
"image-keyboard-response","247","541420","0.0-4.0-6.0-1.0-2.56","601b9077694f034f0092dd8f","63690f60c96a0a9a64b48fbd","6369209fd1847d4416b358e2","null","","null","","","","","","","","./tasks/HMM-beads/Images/BlackBeadChoiceWrong.png","","","","","","","","","","","","","","","","","","","","","","","",""
"image-keyboard-response","248","542513","0.0-4.0-6.0-1.0-0.57","601b9077694f034f0092dd8f","63690f60c96a0a9a64b48fbd","6369209fd1847d4416b358e2","1081","","f","","","","","","","","./tasks/HMM-beads/Images/NewTrialWC.png","highH","57","1","1","2","1","true","","","","","","","","","","","","","","","","",""
"image-keyboard-response","249","542819","0.0-4.0-6.0-1.0-1.57","601b9077694f034f0092dd8f","63690f60c96a0a9a64b48fbd","6369209fd1847d4416b358e2","null","","null","","","","","","","","./tasks/HMM-beads/Images/BlackBeadChoice.png","","","","","","","","","","","","","","","","","","","","","","","",""
"image-keyboard-response","250","543323","0.0-4.0-6.0-1.0-2.57","601b9077694f034f0092dd8f","63690f60c96a0a9a64b48fbd","6369209fd1847d4416b358e2","null","","null","","","","","","","","./tasks/HMM-beads/Images/BlackBeadChoiceCorrect.png","","","","","","","","","","","","","","","","","","","","","","","",""
"image-keyboard-response","251","545011","0.0-4.0-6.0-1.0-0.58","601b9077694f034f0092dd8f","63690f60c96a0a9a64b48fbd","6369209fd1847d4416b358e2","1687","","f","","","","","","","","./tasks/HMM-beads/Images/NewTrialBC.png","highH","58","2","2","1","1","false","","","","","","","","","","","","","","","","",""
"image-keyboard-response","252","545317","0.0-4.0-6.0-1.0-1.58","601b9077694f034f0092dd8f","63690f60c96a0a9a64b48fbd","6369209fd1847d4416b358e2","null","","null","","","","","","","","./tasks/HMM-beads/Images/BlackBeadChoice.png","","","","","","","","","","","","","","","","","","","","","","","",""
"image-keyboard-response","253","545822","0.0-4.0-6.0-1.0-2.58","601b9077694f034f0092dd8f","63690f60c96a0a9a64b48fbd","6369209fd1847d4416b358e2","null","","null","","","","","","","","./tasks/HMM-beads/Images/BlackBeadChoiceWrong.png","","","","","","","","","","","","","","","","","","","","","","","",""
"image-keyboard-response","254","546744","0.0-4.0-6.0-1.0-0.59","601b9077694f034f0092dd8f","63690f60c96a0a9a64b48fbd","6369209fd1847d4416b358e2","921","","f","","","","","","","","./tasks/HMM-beads/Images/NewTrialWC.png","highH","59","1","1","2","1","true","","","","","","","","","","","","","","","","",""
"image-keyboard-response","255","547046","0.0-4.0-6.0-1.0-1.59","601b9077694f034f0092dd8f","63690f60c96a0a9a64b48fbd","6369209fd1847d4416b358e2","null","","null","","","","","","","","./tasks/HMM-beads/Images/BlackBeadChoice.png","","","","","","","","","","","","","","","","","","","","","","","",""
"image-keyboard-response","256","547551","0.0-4.0-6.0-1.0-2.59","601b9077694f034f0092dd8f","63690f60c96a0a9a64b48fbd","6369209fd1847d4416b358e2","null","","null","","","","","","","","./tasks/HMM-beads/Images/BlackBeadChoiceCorrect.png","","","","","","","","","","","","","","","","","","","","","","","",""
"image-keyboard-response","257","548574","0.0-4.0-6.0-1.0-0.60","601b9077694f034f0092dd8f","63690f60c96a0a9a64b48fbd","6369209fd1847d4416b358e2","987","","j","","","","","","","","./tasks/HMM-beads/Images/NewTrialBC.png","highH","60","2","2","1","2","true","","","","","","","","","","","","","","","","",""
"image-keyboard-response","258","548879","0.0-4.0-6.0-1.0-1.60","601b9077694f034f0092dd8f","63690f60c96a0a9a64b48fbd","6369209fd1847d4416b358e2","null","","null","","","","","","","","./tasks/HMM-beads/Images/WhiteBeadChoice.png","","","","","","","","","","","","","","","","","","","","","","","",""
"image-keyboard-response","259","549385","0.0-4.0-6.0-1.0-2.60","601b9077694f034f0092dd8f","63690f60c96a0a9a64b48fbd","6369209fd1847d4416b358e2","null","","null","","","","","","","","./tasks/HMM-beads/Images/WhiteBeadChoiceCorrect.png","","","","","","","","","","","","","","","","","","","","","","","",""
"image-keyboard-response","260","550291","0.0-4.0-6.0-1.0-0.61","601b9077694f034f0092dd8f","63690f60c96a0a9a64b48fbd","6369209fd1847d4416b358e2","905","","f","","","","","","","","./tasks/HMM-beads/Images/NewTrialWC.png","highH","61","1","2","2","1","false","","","","","","","","","","","","","","","","",""
"image-keyboard-response","261","550595","0.0-4.0-6.0-1.0-1.61","601b9077694f034f0092dd8f","63690f60c96a0a9a64b48fbd","6369209fd1847d4416b358e2","null","","null","","","","","","","","./tasks/HMM-beads/Images/BlackBeadChoice.png","","","","","","","","","","","","","","","","","","","","","","","",""
"image-keyboard-response","262","551101","0.0-4.0-6.0-1.0-2.61","601b9077694f034f0092dd8f","63690f60c96a0a9a64b48fbd","6369209fd1847d4416b358e2","null","","null","","","","","","","","./tasks/HMM-beads/Images/BlackBeadChoiceWrong.png","","","","","","","","","","","","","","","","","","","","","","","",""
"image-keyboard-response","263","554385","0.0-4.0-6.0-1.0-0.62","601b9077694f034f0092dd8f","63690f60c96a0a9a64b48fbd","6369209fd1847d4416b358e2","3283","","j","","","","","","","","./tasks/HMM-beads/Images/NewTrialWC.png","highH","62","2","2","2","2","true","","","","","","","","","","","","","","","","",""
"image-keyboard-response","264","554689","0.0-4.0-6.0-1.0-1.62","601b9077694f034f0092dd8f","63690f60c96a0a9a64b48fbd","6369209fd1847d4416b358e2","null","","null","","","","","","","","./tasks/HMM-beads/Images/WhiteBeadChoice.png","","","","","","","","","","","","","","","","","","","","","","","",""
"image-keyboard-response","265","555195","0.0-4.0-6.0-1.0-2.62","601b9077694f034f0092dd8f","63690f60c96a0a9a64b48fbd","6369209fd1847d4416b358e2","null","","null","","","","","","","","./tasks/HMM-beads/Images/WhiteBeadChoiceCorrect.png","","","","","","","","","","","","","","","","","","","","","","","",""
"image-keyboard-response","266","556136","0.0-4.0-6.0-1.0-0.63","601b9077694f034f0092dd8f","63690f60c96a0a9a64b48fbd","6369209fd1847d4416b358e2","941","","f","","","","","","","","./tasks/HMM-beads/Images/NewTrialWC.png","highH","63","1","1","2","1","true","","","","","","","","","","","","","","","","",""
"image-keyboard-response","267","556437","0.0-4.0-6.0-1.0-1.63","601b9077694f034f0092dd8f","63690f60c96a0a9a64b48fbd","6369209fd1847d4416b358e2","null","","null","","","","","","","","./tasks/HMM-beads/Images/BlackBeadChoice.png","","","","","","","","","","","","","","","","","","","","","","","",""
"image-keyboard-response","268","556943","0.0-4.0-6.0-1.0-2.63","601b9077694f034f0092dd8f","63690f60c96a0a9a64b48fbd","6369209fd1847d4416b358e2","null","","null","","","","","","","","./tasks/HMM-beads/Images/BlackBeadChoiceCorrect.png","","","","","","","","","","","","","","","","","","","","","","","",""
"image-keyboard-response","269","558305","0.0-4.0-6.0-1.0-0.64","601b9077694f034f0092dd8f","63690f60c96a0a9a64b48fbd","6369209fd1847d4416b358e2","1361","","j","","","","","","","","./tasks/HMM-beads/Images/NewTrialBC.png","highH","64","2","2","1","2","true","","","","","","","","","","","","","","","","",""
"image-keyboard-response","270","558611","0.0-4.0-6.0-1.0-1.64","601b9077694f034f0092dd8f","63690f60c96a0a9a64b48fbd","6369209fd1847d4416b358e2","null","","null","","","","","","","","./tasks/HMM-beads/Images/WhiteBeadChoice.png","","","","","","","","","","","","","","","","","","","","","","","",""
"image-keyboard-response","271","559116","0.0-4.0-6.0-1.0-2.64","601b9077694f034f0092dd8f","63690f60c96a0a9a64b48fbd","6369209fd1847d4416b358e2","null","","null","","","","","","","","./tasks/HMM-beads/Images/WhiteBeadChoiceCorrect.png","","","","","","","","","","","","","","","","","","","","","","","",""
"image-keyboard-response","272","560107","0.0-4.0-6.0-1.0-0.65","601b9077694f034f0092dd8f","63690f60c96a0a9a64b48fbd","6369209fd1847d4416b358e2","990","","f","","","","","","","","./tasks/HMM-beads/Images/NewTrialWC.png","highH","65","1","1","2","1","true","","","","","","","","","","","","","","","","",""
"image-keyboard-response","273","560408","0.0-4.0-6.0-1.0-1.65","601b9077694f034f0092dd8f","63690f60c96a0a9a64b48fbd","6369209fd1847d4416b358e2","null","","null","","","","","","","","./tasks/HMM-beads/Images/BlackBeadChoice.png","","","","","","","","","","","","","","","","","","","","","","","",""
"image-keyboard-response","274","560913","0.0-4.0-6.0-1.0-2.65","601b9077694f034f0092dd8f","63690f60c96a0a9a64b48fbd","6369209fd1847d4416b358e2","null","","null","","","","","","","","./tasks/HMM-beads/Images/BlackBeadChoiceCorrect.png","","","","","","","","","","","","","","","","","","","","","","","",""
"image-keyboard-response","275","562084","0.0-4.0-6.0-1.0-0.66","601b9077694f034f0092dd8f","63690f60c96a0a9a64b48fbd","6369209fd1847d4416b358e2","1171","","j","","","","","","","","./tasks/HMM-beads/Images/NewTrialBC.png","highH","66","2","2","1","2","true","","","","","","","","","","","","","","","","",""
"image-keyboard-response","276","562390","0.0-4.0-6.0-1.0-1.66","601b9077694f034f0092dd8f","63690f60c96a0a9a64b48fbd","6369209fd1847d4416b358e2","null","","null","","","","","","","","./tasks/HMM-beads/Images/WhiteBeadChoice.png","","","","","","","","","","","","","","","","","","","","","","","",""
"image-keyboard-response","277","562894","0.0-4.0-6.0-1.0-2.66","601b9077694f034f0092dd8f","63690f60c96a0a9a64b48fbd","6369209fd1847d4416b358e2","null","","null","","","","","","","","./tasks/HMM-beads/Images/WhiteBeadChoiceCorrect.png","","","","","","","","","","","","","","","","","","","","","","","",""
"image-keyboard-response","278","563528","0.0-4.0-6.0-1.0-0.67","601b9077694f034f0092dd8f","63690f60c96a0a9a64b48fbd","6369209fd1847d4416b358e2","619","","f","","","","","","","","./tasks/HMM-beads/Images/NewTrialWC.png","highH","67","1","1","2","1","true","","","","","","","","","","","","","","","","",""
"image-keyboard-response","279","563834","0.0-4.0-6.0-1.0-1.67","601b9077694f034f0092dd8f","63690f60c96a0a9a64b48fbd","6369209fd1847d4416b358e2","null","","null","","","","","","","","./tasks/HMM-beads/Images/BlackBeadChoice.png","","","","","","","","","","","","","","","","","","","","","","","",""
"image-keyboard-response","280","564340","0.0-4.0-6.0-1.0-2.67","601b9077694f034f0092dd8f","63690f60c96a0a9a64b48fbd","6369209fd1847d4416b358e2","null","","null","","","","","","","","./tasks/HMM-beads/Images/BlackBeadChoiceCorrect.png","","","","","","","","","","","","","","","","","","","","","","","",""
"image-keyboard-response","281","565659","0.0-4.0-6.0-1.0-0.68","601b9077694f034f0092dd8f","63690f60c96a0a9a64b48fbd","6369209fd1847d4416b358e2","1318","","f","","","","","","","","./tasks/HMM-beads/Images/NewTrialBC.png","highH","68","2","2","1","1","false","","","","","","","","","","","","","","","","",""
"image-keyboard-response","282","565962","0.0-4.0-6.0-1.0-1.68","601b9077694f034f0092dd8f","63690f60c96a0a9a64b48fbd","6369209fd1847d4416b358e2","null","","null","","","","","","","","./tasks/HMM-beads/Images/BlackBeadChoice.png","","","","","","","","","","","","","","","","","","","","","","","",""
"image-keyboard-response","283","566468","0.0-4.0-6.0-1.0-2.68","601b9077694f034f0092dd8f","63690f60c96a0a9a64b48fbd","6369209fd1847d4416b358e2","null","","null","","","","","","","","./tasks/HMM-beads/Images/BlackBeadChoiceWrong.png","","","","","","","","","","","","","","","","","","","","","","","",""
"image-keyboard-response","284","567222","0.0-4.0-6.0-1.0-0.69","601b9077694f034f0092dd8f","63690f60c96a0a9a64b48fbd","6369209fd1847d4416b358e2","753","","f","","","","","","","","./tasks/HMM-beads/Images/NewTrialWC.png","highH","69","1","2","2","1","false","","","","","","","","","","","","","","","","",""
"image-keyboard-response","285","567523","0.0-4.0-6.0-1.0-1.69","601b9077694f034f0092dd8f","63690f60c96a0a9a64b48fbd","6369209fd1847d4416b358e2","null","","null","","","","","","","","./tasks/HMM-beads/Images/BlackBeadChoice.png","","","","","","","","","","","","","","","","","","","","","","","",""
"image-keyboard-response","286","568025","0.0-4.0-6.0-1.0-2.69","601b9077694f034f0092dd8f","63690f60c96a0a9a64b48fbd","6369209fd1847d4416b358e2","null","","null","","","","","","","","./tasks/HMM-beads/Images/BlackBeadChoiceWrong.png","","","","","","","","","","","","","","","","","","","","","","","",""
"image-keyboard-response","287","569843","0.0-4.0-6.0-1.0-0.70","601b9077694f034f0092dd8f","63690f60c96a0a9a64b48fbd","6369209fd1847d4416b358e2","1817","","j","","","","","","","","./tasks/HMM-beads/Images/NewTrialWC.png","highH","70","2","2","2","2","true","","","","","","","","","","","","","","","","",""
"image-keyboard-response","288","570147","0.0-4.0-6.0-1.0-1.70","601b9077694f034f0092dd8f","63690f60c96a0a9a64b48fbd","6369209fd1847d4416b358e2","null","","null","","","","","","","","./tasks/HMM-beads/Images/WhiteBeadChoice.png","","","","","","","","","","","","","","","","","","","","","","","",""
"image-keyboard-response","289","570651","0.0-4.0-6.0-1.0-2.70","601b9077694f034f0092dd8f","63690f60c96a0a9a64b48fbd","6369209fd1847d4416b358e2","null","","null","","","","","","","","./tasks/HMM-beads/Images/WhiteBeadChoiceCorrect.png","","","","","","","","","","","","","","","","","","","","","","","",""
"image-keyboard-response","290","571411","0.0-4.0-6.0-1.0-0.71","601b9077694f034f0092dd8f","63690f60c96a0a9a64b48fbd","6369209fd1847d4416b358e2","759","","f","","","","","","","","./tasks/HMM-beads/Images/NewTrialWC.png","highH","71","1","2","2","1","false","","","","","","","","","","","","","","","","",""
"image-keyboard-response","291","571726","0.0-4.0-6.0-1.0-1.71","601b9077694f034f0092dd8f","63690f60c96a0a9a64b48fbd","6369209fd1847d4416b358e2","null","","null","","","","","","","","./tasks/HMM-beads/Images/BlackBeadChoice.png","","","","","","","","","","","","","","","","","","","","","","","",""
"image-keyboard-response","292","572227","0.0-4.0-6.0-1.0-2.71","601b9077694f034f0092dd8f","63690f60c96a0a9a64b48fbd","6369209fd1847d4416b358e2","null","","null","","","","","","","","./tasks/HMM-beads/Images/BlackBeadChoiceWrong.png","","","","","","","","","","","","","","","","","","","","","","","",""
"image-keyboard-response","293","573632","0.0-4.0-6.0-1.0-0.72","601b9077694f034f0092dd8f","63690f60c96a0a9a64b48fbd","6369209fd1847d4416b358e2","1405","","j","","","","","","","","./tasks/HMM-beads/Images/NewTrialWC.png","highH","72","2","2","2","2","true","","","","","","","","","","","","","","","","",""
"image-keyboard-response","294","573933","0.0-4.0-6.0-1.0-1.72","601b9077694f034f0092dd8f","63690f60c96a0a9a64b48fbd","6369209fd1847d4416b358e2","null","","null","","","","","","","","./tasks/HMM-beads/Images/WhiteBeadChoice.png","","","","","","","","","","","","","","","","","","","","","","","",""
"image-keyboard-response","295","574438","0.0-4.0-6.0-1.0-2.72","601b9077694f034f0092dd8f","63690f60c96a0a9a64b48fbd","6369209fd1847d4416b358e2","null","","null","","","","","","","","./tasks/HMM-beads/Images/WhiteBeadChoiceCorrect.png","","","","","","","","","","","","","","","","","","","","","","","",""
"image-keyboard-response","296","575620","0.0-4.0-6.0-1.0-0.73","601b9077694f034f0092dd8f","63690f60c96a0a9a64b48fbd","6369209fd1847d4416b358e2","1181","","f","","","","","","","","./tasks/HMM-beads/Images/NewTrialWC.png","highH","73","1","1","2","1","true","","","","","","","","","","","","","","","","",""
"image-keyboard-response","297","575924","0.0-4.0-6.0-1.0-1.73","601b9077694f034f0092dd8f","63690f60c96a0a9a64b48fbd","6369209fd1847d4416b358e2","null","","null","","","","","","","","./tasks/HMM-beads/Images/BlackBeadChoice.png","","","","","","","","","","","","","","","","","","","","","","","",""
"image-keyboard-response","298","576426","0.0-4.0-6.0-1.0-2.73","601b9077694f034f0092dd8f","63690f60c96a0a9a64b48fbd","6369209fd1847d4416b358e2","null","","null","","","","","","","","./tasks/HMM-beads/Images/BlackBeadChoiceCorrect.png","","","","","","","","","","","","","","","","","","","","","","","",""
"image-keyboard-response","299","577336","0.0-4.0-6.0-1.0-0.74","601b9077694f034f0092dd8f","63690f60c96a0a9a64b48fbd","6369209fd1847d4416b358e2","909","","j","","","","","","","","./tasks/HMM-beads/Images/NewTrialBC.png","highH","74","2","2","1","2","true","","","","","","","","","","","","","","","","",""
"image-keyboard-response","300","577642","0.0-4.0-6.0-1.0-1.74","601b9077694f034f0092dd8f","63690f60c96a0a9a64b48fbd","6369209fd1847d4416b358e2","null","","null","","","","","","","","./tasks/HMM-beads/Images/WhiteBeadChoice.png","","","","","","","","","","","","","","","","","","","","","","","",""
"image-keyboard-response","301","578146","0.0-4.0-6.0-1.0-2.74","601b9077694f034f0092dd8f","63690f60c96a0a9a64b48fbd","6369209fd1847d4416b358e2","null","","null","","","","","","","","./tasks/HMM-beads/Images/WhiteBeadChoiceCorrect.png","","","","","","","","","","","","","","","","","","","","","","","",""
"image-keyboard-response","302","578929","0.0-4.0-6.0-1.0-0.75","601b9077694f034f0092dd8f","63690f60c96a0a9a64b48fbd","6369209fd1847d4416b358e2","782","","f","","","","","","","","./tasks/HMM-beads/Images/NewTrialWC.png","highH","75","1","1","2","1","true","","","","","","","","","","","","","","","","",""
"image-keyboard-response","303","579235","0.0-4.0-6.0-1.0-1.75","601b9077694f034f0092dd8f","63690f60c96a0a9a64b48fbd","6369209fd1847d4416b358e2","null","","null","","","","","","","","./tasks/HMM-beads/Images/BlackBeadChoice.png","","","","","","","","","","","","","","","","","","","","","","","",""
"image-keyboard-response","304","579741","0.0-4.0-6.0-1.0-2.75","601b9077694f034f0092dd8f","63690f60c96a0a9a64b48fbd","6369209fd1847d4416b358e2","null","","null","","","","","","","","./tasks/HMM-beads/Images/BlackBeadChoiceCorrect.png","","","","","","","","","","","","","","","","","","","","","","","",""
"image-keyboard-response","305","580673","0.0-4.0-6.0-1.0-0.76","601b9077694f034f0092dd8f","63690f60c96a0a9a64b48fbd","6369209fd1847d4416b358e2","931","","j","","","","","","","","./tasks/HMM-beads/Images/NewTrialBC.png","highH","76","2","2","1","2","true","","","","","","","","","","","","","","","","",""
"image-keyboard-response","306","580979","0.0-4.0-6.0-1.0-1.76","601b9077694f034f0092dd8f","63690f60c96a0a9a64b48fbd","6369209fd1847d4416b358e2","null","","null","","","","","","","","./tasks/HMM-beads/Images/WhiteBeadChoice.png","","","","","","","","","","","","","","","","","","","","","","","",""
"image-keyboard-response","307","581481","0.0-4.0-6.0-1.0-2.76","601b9077694f034f0092dd8f","63690f60c96a0a9a64b48fbd","6369209fd1847d4416b358e2","null","","null","","","","","","","","./tasks/HMM-beads/Images/WhiteBeadChoiceCorrect.png","","","","","","","","","","","","","","","","","","","","","","","",""
"image-keyboard-response","308","583328","0.0-4.0-6.0-1.0-0.77","601b9077694f034f0092dd8f","63690f60c96a0a9a64b48fbd","6369209fd1847d4416b358e2","1847","","f","","","","","","","","./tasks/HMM-beads/Images/NewTrialWC.png","highH","77","1","1","2","1","true","","","","","","","","","","","","","","","","",""
"image-keyboard-response","309","583634","0.0-4.0-6.0-1.0-1.77","601b9077694f034f0092dd8f","63690f60c96a0a9a64b48fbd","6369209fd1847d4416b358e2","null","","null","","","","","","","","./tasks/HMM-beads/Images/BlackBeadChoice.png","","","","","","","","","","","","","","","","","","","","","","","",""
"image-keyboard-response","310","584136","0.0-4.0-6.0-1.0-2.77","601b9077694f034f0092dd8f","63690f60c96a0a9a64b48fbd","6369209fd1847d4416b358e2","null","","null","","","","","","","","./tasks/HMM-beads/Images/BlackBeadChoiceCorrect.png","","","","","","","","","","","","","","","","","","","","","","","",""
"image-keyboard-response","311","585578","0.0-4.0-6.0-1.0-0.78","601b9077694f034f0092dd8f","63690f60c96a0a9a64b48fbd","6369209fd1847d4416b358e2","1441","","j","","","","","","","","./tasks/HMM-beads/Images/NewTrialBC.png","highH","78","2","2","1","2","true","","","","","","","","","","","","","","","","",""
"image-keyboard-response","312","585882","0.0-4.0-6.0-1.0-1.78","601b9077694f034f0092dd8f","63690f60c96a0a9a64b48fbd","6369209fd1847d4416b358e2","null","","null","","","","","","","","./tasks/HMM-beads/Images/WhiteBeadChoice.png","","","","","","","","","","","","","","","","","","","","","","","",""
"image-keyboard-response","313","586385","0.0-4.0-6.0-1.0-2.78","601b9077694f034f0092dd8f","63690f60c96a0a9a64b48fbd","6369209fd1847d4416b358e2","null","","null","","","","","","","","./tasks/HMM-beads/Images/WhiteBeadChoiceCorrect.png","","","","","","","","","","","","","","","","","","","","","","","",""
"image-keyboard-response","314","587593","0.0-4.0-6.0-1.0-0.79","601b9077694f034f0092dd8f","63690f60c96a0a9a64b48fbd","6369209fd1847d4416b358e2","1208","","f","","","","","","","","./tasks/HMM-beads/Images/NewTrialWC.png","highH","79","1","1","2","1","true","","","","","","","","","","","","","","","","",""
"image-keyboard-response","315","587895","0.0-4.0-6.0-1.0-1.79","601b9077694f034f0092dd8f","63690f60c96a0a9a64b48fbd","6369209fd1847d4416b358e2","null","","null","","","","","","","","./tasks/HMM-beads/Images/BlackBeadChoice.png","","","","","","","","","","","","","","","","","","","","","","","",""
"image-keyboard-response","316","588398","0.0-4.0-6.0-1.0-2.79","601b9077694f034f0092dd8f","63690f60c96a0a9a64b48fbd","6369209fd1847d4416b358e2","null","","null","","","","","","","","./tasks/HMM-beads/Images/BlackBeadChoiceCorrect.png","","","","","","","","","","","","","","","","","","","","","","","",""
"image-keyboard-response","317","589375","0.0-4.0-6.0-1.0-0.80","601b9077694f034f0092dd8f","63690f60c96a0a9a64b48fbd","6369209fd1847d4416b358e2","963","","f","","","","","","","","./tasks/HMM-beads/Images/NewTrialBC.png","highH","80","2","1","1","1","true","","","","","","","","","","","","","","","","",""
"image-keyboard-response","318","589680","0.0-4.0-6.0-1.0-1.80","601b9077694f034f0092dd8f","63690f60c96a0a9a64b48fbd","6369209fd1847d4416b358e2","null","","null","","","","","","","","./tasks/HMM-beads/Images/BlackBeadChoice.png","","","","","","","","","","","","","","","","","","","","","","","",""
"image-keyboard-response","319","590185","0.0-4.0-6.0-1.0-2.80","601b9077694f034f0092dd8f","63690f60c96a0a9a64b48fbd","6369209fd1847d4416b358e2","null","","null","","","","","","","","./tasks/HMM-beads/Images/BlackBeadChoiceCorrect.png","","","","","","","","","","","","","","","","","","","","","","","",""
"image-keyboard-response","320","591509","0.0-4.0-6.0-1.0-0.81","601b9077694f034f0092dd8f","63690f60c96a0a9a64b48fbd","6369209fd1847d4416b358e2","1324","","f","","","","","","","","./tasks/HMM-beads/Images/NewTrialBC.png","highH","81","1","1","1","1","true","","","","","","","","","","","","","","","","",""
"image-keyboard-response","321","591811","0.0-4.0-6.0-1.0-1.81","601b9077694f034f0092dd8f","63690f60c96a0a9a64b48fbd","6369209fd1847d4416b358e2","null","","null","","","","","","","","./tasks/HMM-beads/Images/BlackBeadChoice.png","","","","","","","","","","","","","","","","","","","","","","","",""
