"trial_type","trial_index","time_elapsed","internal_node_id","subject_id","study_id","session_id","rt","url","response","question_order","view_history","success","timeout","failed_images","failed_audio","failed_video","stimulus","block","trial_number","jar","bead","previous_bead","choice","correct","highH_score","lowH_score","state","rewarded","state1_action","state2_visited","state1_key","state2_key","state1_rt","state2_rt","two_arm_score_block1","block_num","seq_file","trial_seq_info","two_arm_score_block2","two_arm_score_total","total_bonus"
"pavlovia","0","11604","0.0-0.0","6102c81e911700cf7ba5f6bd","63690f60c96a0a9a64b48fbc","63691cba88e99d92f4094ea2","","","","","","","","","","","","","","","","","","","","","","","","","","","","","","","","","","",""
"external-html","1","55296","0.0-1.0-0.0","6102c81e911700cf7ba5f6bd","63690f60c96a0a9a64b48fbc","63691cba88e99d92f4094ea2","43008","new_consent.html","","","","","","","","","","","","","","","","","","","","","","","","","","","","","","","","",""
"survey-multi-choice","2","61419","0.0-1.0-1.0","6102c81e911700cf7ba5f6bd","63690f60c96a0a9a64b48fbc","63691cba88e99d92f4094ea2","6120","","{""Q0"":""Male"",""Q1"":""White""}","[0,1]","","","","","","","","","","","","","","","","","","","","","","","","","","","","","","",""
"survey-text","3","67226","0.0-1.0-2.0","6102c81e911700cf7ba5f6bd","63690f60c96a0a9a64b48fbc","63691cba88e99d92f4094ea2","5799","","{""Q0"":""33""}","","","","","","","","","","","","","","","","","","","","","","","","","","","","","","","",""
"instructions","4","284472","0.0-2.0","6102c81e911700cf7ba5f6bd","63690f60c96a0a9a64b48fbc","63691cba88e99d92f4094ea2","217139","","","","[{""page_index"":0,""viewing_time"":214641},{""page_index"":1,""viewing_time"":2498}]","","","","","","","","","","","","","","","","","","","","","","","","","","","","","",""
"instructions","5","289920","0.0-3.0","6102c81e911700cf7ba5f6bd","63690f60c96a0a9a64b48fbc","63691cba88e99d92f4094ea2","5446","","","","[{""page_index"":0,""viewing_time"":5446}]","","","","","","","","","","","","","","","","","","","","","","","","","","","","","",""
"preload","6","301918","0.0-4.0-0.0","6102c81e911700cf7ba5f6bd","63690f60c96a0a9a64b48fbc","63691cba88e99d92f4094ea2","","","","","","true","false","[]","[]","[]","","","","","","","","","","","","","","","","","","","","","","","","",""
"instructions","7","505833","0.0-4.0-1.0","6102c81e911700cf7ba5f6bd","63690f60c96a0a9a64b48fbc","63691cba88e99d92f4094ea2","203913","","","","[{""page_index"":0,""viewing_time"":16506},{""page_index"":1,""viewing_time"":5999},{""page_index"":2,""viewing_time"":7368},{""page_index"":3,""viewing_time"":4112},{""page_index"":4,""viewing_time"":8576},{""page_index"":5,""viewing_time"":34208},{""page_index"":6,""viewing_time"":7487},{""page_index"":7,""viewing_time"":23370},{""page_index"":8,""viewing_time"":3423},{""page_index"":9,""viewing_time"":15411},{""page_index"":10,""viewing_time"":73717},{""page_index"":11,""viewing_time"":3736}]","","","","","","","","","","","","","","","","","","","","","","","","","","","","","",""
"html-button-response","8","526849","0.0-4.0-2.0-0.0-0.0","6102c81e911700cf7ba5f6bd","63690f60c96a0a9a64b48fbc","63691cba88e99d92f4094ea2","21014","","2","","","","","","","","<div align=center>Your goal is to predict…?<br><br></div>","","","","","","","","","","","","","","","","","","","","","","","",""
"html-button-response","9","531144","0.0-4.0-2.0-0.1-0.1","6102c81e911700cf7ba5f6bd","63690f60c96a0a9a64b48fbc","63691cba88e99d92f4094ea2","2487","","0","","","","","","","","<div align=center>Your goal is to predict…?<br><br></div>","","","","","","","","","","","","","","","","","","","","","","","",""
"html-button-response","10","533907","0.0-4.0-2.0-0.2-0.2","6102c81e911700cf7ba5f6bd","63690f60c96a0a9a64b48fbc","63691cba88e99d92f4094ea2","978","","1","","","","","","","","<div align=center>Your goal is to predict…?<br><br></div>","","","","","","","","","","","","","","","","","","","","","","","",""
"html-button-response","11","544720","0.0-4.0-2.0-1.0-0.0","6102c81e911700cf7ba5f6bd","63690f60c96a0a9a64b48fbc","63691cba88e99d92f4094ea2","7472","","2","","","","","","","","<div align=center>In the jar with mostly white beads, there are ___% white beads and ___% black beads?<br><br></div>","","","","","","","","","","","","","","","","","","","","","","","",""
"html-button-response","12","553952","0.0-4.0-2.0-2.0-0.0","6102c81e911700cf7ba5f6bd","63690f60c96a0a9a64b48fbc","63691cba88e99d92f4094ea2","8012","","0","","","","","","","","<div align=center>When there is a 1% probability that the jars will switch, the next bead will most likely be drawn from the…<br><br></div>","","","","","","","","","","","","","","","","","","","","","","","",""
"html-button-response","13","560689","0.0-4.0-2.0-3.0-0.0","6102c81e911700cf7ba5f6bd","63690f60c96a0a9a64b48fbc","63691cba88e99d92f4094ea2","5353","","1","","","","","","","","<div align=center>When there is a 99% probability that the jars will switch, the next bead will most likely be drawn from the…<br><br></div>","","","","","","","","","","","","","","","","","","","","","","","",""
"instructions","14","570945","0.0-4.0-3.0","6102c81e911700cf7ba5f6bd","63690f60c96a0a9a64b48fbc","63691cba88e99d92f4094ea2","9096","","","","[{""page_index"":0,""viewing_time"":9096}]","","","","","","","","","","","","","","","","","","","","","","","","","","","","","",""
"html-keyboard-response","15","583490","0.0-4.0-4.0-0.0","6102c81e911700cf7ba5f6bd","63690f60c96a0a9a64b48fbc","63691cba88e99d92f4094ea2","12545",""," ","","","","","","","","<div align=center>In this practice block, there will be a <b>10% chance</b> that the jar on the next trial will be different from the jar on the current trial.<br><br></div>","","","","","","","","","","","","","","","","","","","","","","","",""
"image-keyboard-response","16","590779","0.0-4.0-4.0-1.0-0.0","6102c81e911700cf7ba5f6bd","63690f60c96a0a9a64b48fbc","63691cba88e99d92f4094ea2","7245","","j","","","","","","","","./tasks/HMM-beads/Images/NoChoice.png","practice","0","1","1","0","2","false","","","","","","","","","","","","","","","","",""
"image-keyboard-response","17","591105","0.0-4.0-4.0-1.0-1.0","6102c81e911700cf7ba5f6bd","63690f60c96a0a9a64b48fbc","63691cba88e99d92f4094ea2","null","","null","","","","","","","","./tasks/HMM-beads/Images/WhiteBeadChoice.png","","","","","","","","","","","","","","","","","","","","","","","",""
"image-keyboard-response","18","591624","0.0-4.0-4.0-1.0-2.0","6102c81e911700cf7ba5f6bd","63690f60c96a0a9a64b48fbc","63691cba88e99d92f4094ea2","null","","null","","","","","","","","./tasks/HMM-beads/Images/WhiteBeadChoiceWrong.png","","","","","","","","","","","","","","","","","","","","","","","",""
"image-keyboard-response","19","595424","0.0-4.0-4.0-1.0-0.1","6102c81e911700cf7ba5f6bd","63690f60c96a0a9a64b48fbc","63691cba88e99d92f4094ea2","3773","","f","","","","","","","","./tasks/HMM-beads/Images/NewTrialBC.png","practice","1","1","1","1","1","true","","","","","","","","","","","","","","","","",""
"image-keyboard-response","20","595749","0.0-4.0-4.0-1.0-1.1","6102c81e911700cf7ba5f6bd","63690f60c96a0a9a64b48fbc","63691cba88e99d92f4094ea2","null","","null","","","","","","","","./tasks/HMM-beads/Images/BlackBeadChoice.png","","","","","","","","","","","","","","","","","","","","","","","",""
"image-keyboard-response","21","596284","0.0-4.0-4.0-1.0-2.1","6102c81e911700cf7ba5f6bd","63690f60c96a0a9a64b48fbc","63691cba88e99d92f4094ea2","null","","null","","","","","","","","./tasks/HMM-beads/Images/BlackBeadChoiceCorrect.png","","","","","","","","","","","","","","","","","","","","","","","",""
"image-keyboard-response","22","597579","0.0-4.0-4.0-1.0-0.2","6102c81e911700cf7ba5f6bd","63690f60c96a0a9a64b48fbc","63691cba88e99d92f4094ea2","1292","","f","","","","","","","","./tasks/HMM-beads/Images/NewTrialBC.png","practice","2","1","2","1","1","false","","","","","","","","","","","","","","","","",""
"image-keyboard-response","23","597890","0.0-4.0-4.0-1.0-1.2","6102c81e911700cf7ba5f6bd","63690f60c96a0a9a64b48fbc","63691cba88e99d92f4094ea2","null","","null","","","","","","","","./tasks/HMM-beads/Images/BlackBeadChoice.png","","","","","","","","","","","","","","","","","","","","","","","",""
"image-keyboard-response","24","598477","0.0-4.0-4.0-1.0-2.2","6102c81e911700cf7ba5f6bd","63690f60c96a0a9a64b48fbc","63691cba88e99d92f4094ea2","null","","null","","","","","","","","./tasks/HMM-beads/Images/BlackBeadChoiceWrong.png","","","","","","","","","","","","","","","","","","","","","","","",""
"image-keyboard-response","25","601313","0.0-4.0-4.0-1.0-0.3","6102c81e911700cf7ba5f6bd","63690f60c96a0a9a64b48fbc","63691cba88e99d92f4094ea2","2825","","f","","","","","","","","./tasks/HMM-beads/Images/NewTrialWC.png","practice","3","1","1","2","1","true","","","","","","","","","","","","","","","","",""
"image-keyboard-response","26","601616","0.0-4.0-4.0-1.0-1.3","6102c81e911700cf7ba5f6bd","63690f60c96a0a9a64b48fbc","63691cba88e99d92f4094ea2","null","","null","","","","","","","","./tasks/HMM-beads/Images/BlackBeadChoice.png","","","","","","","","","","","","","","","","","","","","","","","",""
"image-keyboard-response","27","602146","0.0-4.0-4.0-1.0-2.3","6102c81e911700cf7ba5f6bd","63690f60c96a0a9a64b48fbc","63691cba88e99d92f4094ea2","null","","null","","","","","","","","./tasks/HMM-beads/Images/BlackBeadChoiceCorrect.png","","","","","","","","","","","","","","","","","","","","","","","",""
"image-keyboard-response","28","603482","0.0-4.0-4.0-1.0-0.4","6102c81e911700cf7ba5f6bd","63690f60c96a0a9a64b48fbc","63691cba88e99d92f4094ea2","1336","","f","","","","","","","","./tasks/HMM-beads/Images/NewTrialBC.png","practice","4","1","2","1","1","false","","","","","","","","","","","","","","","","",""
"image-keyboard-response","29","603795","0.0-4.0-4.0-1.0-1.4","6102c81e911700cf7ba5f6bd","63690f60c96a0a9a64b48fbc","63691cba88e99d92f4094ea2","null","","null","","","","","","","","./tasks/HMM-beads/Images/BlackBeadChoice.png","","","","","","","","","","","","","","","","","","","","","","","",""
"image-keyboard-response","30","604310","0.0-4.0-4.0-1.0-2.4","6102c81e911700cf7ba5f6bd","63690f60c96a0a9a64b48fbc","63691cba88e99d92f4094ea2","null","","null","","","","","","","","./tasks/HMM-beads/Images/BlackBeadChoiceWrong.png","","","","","","","","","","","","","","","","","","","","","","","",""
"image-keyboard-response","31","606251","0.0-4.0-4.0-1.0-0.5","6102c81e911700cf7ba5f6bd","63690f60c96a0a9a64b48fbc","63691cba88e99d92f4094ea2","1902","","j","","","","","","","","./tasks/HMM-beads/Images/NewTrialWC.png","practice","5","1","1","2","2","false","","","","","","","","","","","","","","","","",""
"image-keyboard-response","32","606563","0.0-4.0-4.0-1.0-1.5","6102c81e911700cf7ba5f6bd","63690f60c96a0a9a64b48fbc","63691cba88e99d92f4094ea2","null","","null","","","","","","","","./tasks/HMM-beads/Images/WhiteBeadChoice.png","","","","","","","","","","","","","","","","","","","","","","","",""
"image-keyboard-response","33","607089","0.0-4.0-4.0-1.0-2.5","6102c81e911700cf7ba5f6bd","63690f60c96a0a9a64b48fbc","63691cba88e99d92f4094ea2","null","","null","","","","","","","","./tasks/HMM-beads/Images/WhiteBeadChoiceWrong.png","","","","","","","","","","","","","","","","","","","","","","","",""
"image-keyboard-response","34","607665","0.0-4.0-4.0-1.0-0.6","6102c81e911700cf7ba5f6bd","63690f60c96a0a9a64b48fbc","63691cba88e99d92f4094ea2","575","","j","","","","","","","","./tasks/HMM-beads/Images/NewTrialBC.png","practice","6","1","2","1","2","true","","","","","","","","","","","","","","","","",""
"image-keyboard-response","35","607973","0.0-4.0-4.0-1.0-1.6","6102c81e911700cf7ba5f6bd","63690f60c96a0a9a64b48fbc","63691cba88e99d92f4094ea2","null","","null","","","","","","","","./tasks/HMM-beads/Images/WhiteBeadChoice.png","","","","","","","","","","","","","","","","","","","","","","","",""
"image-keyboard-response","36","608492","0.0-4.0-4.0-1.0-2.6","6102c81e911700cf7ba5f6bd","63690f60c96a0a9a64b48fbc","63691cba88e99d92f4094ea2","null","","null","","","","","","","","./tasks/HMM-beads/Images/WhiteBeadChoiceCorrect.png","","","","","","","","","","","","","","","","","","","","","","","",""
"image-keyboard-response","37","608719","0.0-4.0-4.0-1.0-0.7","6102c81e911700cf7ba5f6bd","63690f60c96a0a9a64b48fbc","63691cba88e99d92f4094ea2","224","","j","","","","","","","","./tasks/HMM-beads/Images/NewTrialWC.png","practice","7","1","1","2","2","false","","","","","","","","","","","","","","","","",""
"image-keyboard-response","38","609033","0.0-4.0-4.0-1.0-1.7","6102c81e911700cf7ba5f6bd","63690f60c96a0a9a64b48fbc","63691cba88e99d92f4094ea2","null","","null","","","","","","","","./tasks/HMM-beads/Images/WhiteBeadChoice.png","","","","","","","","","","","","","","","","","","","","","","","",""
"image-keyboard-response","39","609549","0.0-4.0-4.0-1.0-2.7","6102c81e911700cf7ba5f6bd","63690f60c96a0a9a64b48fbc","63691cba88e99d92f4094ea2","null","","null","","","","","","","","./tasks/HMM-beads/Images/WhiteBeadChoiceWrong.png","","","","","","","","","","","","","","","","","","","","","","","",""
"image-keyboard-response","40","609621","0.0-4.0-4.0-1.0-0.8","6102c81e911700cf7ba5f6bd","63690f60c96a0a9a64b48fbc","63691cba88e99d92f4094ea2","71","","j","","","","","","","","./tasks/HMM-beads/Images/NewTrialBC.png","practice","8","1","1","1","2","false","","","","","","","","","","","","","","","","",""
"image-keyboard-response","41","609922","0.0-4.0-4.0-1.0-1.8","6102c81e911700cf7ba5f6bd","63690f60c96a0a9a64b48fbc","63691cba88e99d92f4094ea2","null","","null","","","","","","","","./tasks/HMM-beads/Images/WhiteBeadChoice.png","","","","","","","","","","","","","","","","","","","","","","","",""
"image-keyboard-response","42","610435","0.0-4.0-4.0-1.0-2.8","6102c81e911700cf7ba5f6bd","63690f60c96a0a9a64b48fbc","63691cba88e99d92f4094ea2","null","","null","","","","","","","","./tasks/HMM-beads/Images/WhiteBeadChoiceWrong.png","","","","","","","","","","","","","","","","","","","","","","","",""
"image-keyboard-response","43","610626","0.0-4.0-4.0-1.0-0.9","6102c81e911700cf7ba5f6bd","63690f60c96a0a9a64b48fbc","63691cba88e99d92f4094ea2","188","","f","","","","","","","","./tasks/HMM-beads/Images/NewTrialBC.png","practice","9","2","2","1","1","false","","","","","","","","","","","","","","","","",""
"image-keyboard-response","44","610932","0.0-4.0-4.0-1.0-1.9","6102c81e911700cf7ba5f6bd","63690f60c96a0a9a64b48fbc","63691cba88e99d92f4094ea2","null","","null","","","","","","","","./tasks/HMM-beads/Images/BlackBeadChoice.png","","","","","","","","","","","","","","","","","","","","","","","",""
"image-keyboard-response","45","611440","0.0-4.0-4.0-1.0-2.9","6102c81e911700cf7ba5f6bd","63690f60c96a0a9a64b48fbc","63691cba88e99d92f4094ea2","null","","null","","","","","","","","./tasks/HMM-beads/Images/BlackBeadChoiceWrong.png","","","","","","","","","","","","","","","","","","","","","","","",""
"image-keyboard-response","46","611626","0.0-4.0-4.0-1.0-0.10","6102c81e911700cf7ba5f6bd","63690f60c96a0a9a64b48fbc","63691cba88e99d92f4094ea2","184","","f","","","","","","","","./tasks/HMM-beads/Images/NewTrialWC.png","practice","10","2","1","2","1","true","","","","","","","","","","","","","","","","",""
"image-keyboard-response","47","611936","0.0-4.0-4.0-1.0-1.10","6102c81e911700cf7ba5f6bd","63690f60c96a0a9a64b48fbc","63691cba88e99d92f4094ea2","null","","null","","","","","","","","./tasks/HMM-beads/Images/BlackBeadChoice.png","","","","","","","","","","","","","","","","","","","","","","","",""
"image-keyboard-response","48","612448","0.0-4.0-4.0-1.0-2.10","6102c81e911700cf7ba5f6bd","63690f60c96a0a9a64b48fbc","63691cba88e99d92f4094ea2","null","","null","","","","","","","","./tasks/HMM-beads/Images/BlackBeadChoiceCorrect.png","","","","","","","","","","","","","","","","","","","","","","","",""
"image-keyboard-response","49","612458","0.0-4.0-4.0-1.0-0.11","6102c81e911700cf7ba5f6bd","63690f60c96a0a9a64b48fbc","63691cba88e99d92f4094ea2","6","","f","","","","","","","","./tasks/HMM-beads/Images/NewTrialBC.png","practice","11","2","2","1","1","false","","","","","","","","","","","","","","","","",""
"image-keyboard-response","50","612762","0.0-4.0-4.0-1.0-1.11","6102c81e911700cf7ba5f6bd","63690f60c96a0a9a64b48fbc","63691cba88e99d92f4094ea2","null","","null","","","","","","","","./tasks/HMM-beads/Images/BlackBeadChoice.png","","","","","","","","","","","","","","","","","","","","","","","",""
"image-keyboard-response","51","613297","0.0-4.0-4.0-1.0-2.11","6102c81e911700cf7ba5f6bd","63690f60c96a0a9a64b48fbc","63691cba88e99d92f4094ea2","null","","null","","","","","","","","./tasks/HMM-beads/Images/BlackBeadChoiceWrong.png","","","","","","","","","","","","","","","","","","","","","","","",""
"image-keyboard-response","52","613426","0.0-4.0-4.0-1.0-0.12","6102c81e911700cf7ba5f6bd","63690f60c96a0a9a64b48fbc","63691cba88e99d92f4094ea2","127","","f","","","","","","","","./tasks/HMM-beads/Images/NewTrialWC.png","practice","12","2","2","2","1","false","","","","","","","","","","","","","","","","",""
"image-keyboard-response","53","613730","0.0-4.0-4.0-1.0-1.12","6102c81e911700cf7ba5f6bd","63690f60c96a0a9a64b48fbc","63691cba88e99d92f4094ea2","null","","null","","","","","","","","./tasks/HMM-beads/Images/BlackBeadChoice.png","","","","","","","","","","","","","","","","","","","","","","","",""
"image-keyboard-response","54","614246","0.0-4.0-4.0-1.0-2.12","6102c81e911700cf7ba5f6bd","63690f60c96a0a9a64b48fbc","63691cba88e99d92f4094ea2","null","","null","","","","","","","","./tasks/HMM-beads/Images/BlackBeadChoiceWrong.png","","","","","","","","","","","","","","","","","","","","","","","",""
"image-keyboard-response","55","615879","0.0-4.0-4.0-1.0-0.13","6102c81e911700cf7ba5f6bd","63690f60c96a0a9a64b48fbc","63691cba88e99d92f4094ea2","1632","","j","","","","","","","","./tasks/HMM-beads/Images/NewTrialWC.png","practice","13","2","2","2","2","true","","","","","","","","","","","","","","","","",""
"image-keyboard-response","56","616190","0.0-4.0-4.0-1.0-1.13","6102c81e911700cf7ba5f6bd","63690f60c96a0a9a64b48fbc","63691cba88e99d92f4094ea2","null","","null","","","","","","","","./tasks/HMM-beads/Images/WhiteBeadChoice.png","","","","","","","","","","","","","","","","","","","","","","","",""
"image-keyboard-response","57","616707","0.0-4.0-4.0-1.0-2.13","6102c81e911700cf7ba5f6bd","63690f60c96a0a9a64b48fbc","63691cba88e99d92f4094ea2","null","","null","","","","","","","","./tasks/HMM-beads/Images/WhiteBeadChoiceCorrect.png","","","","","","","","","","","","","","","","","","","","","","","",""
"image-keyboard-response","58","618196","0.0-4.0-4.0-1.0-0.14","6102c81e911700cf7ba5f6bd","63690f60c96a0a9a64b48fbc","63691cba88e99d92f4094ea2","1484","","j","","","","","","","","./tasks/HMM-beads/Images/NewTrialWC.png","practice","14","2","2","2","2","true","","","","","","","","","","","","","","","","",""
"image-keyboard-response","59","618513","0.0-4.0-4.0-1.0-1.14","6102c81e911700cf7ba5f6bd","63690f60c96a0a9a64b48fbc","63691cba88e99d92f4094ea2","null","","null","","","","","","","","./tasks/HMM-beads/Images/WhiteBeadChoice.png","","","","","","","","","","","","","","","","","","","","","","","",""
"image-keyboard-response","60","619025","0.0-4.0-4.0-1.0-2.14","6102c81e911700cf7ba5f6bd","63690f60c96a0a9a64b48fbc","63691cba88e99d92f4094ea2","null","","null","","","","","","","","./tasks/HMM-beads/Images/WhiteBeadChoiceCorrect.png","","","","","","","","","","","","","","","","","","","","","","","",""
"image-keyboard-response","61","619717","0.0-4.0-4.0-1.0-0.15","6102c81e911700cf7ba5f6bd","63690f60c96a0a9a64b48fbc","63691cba88e99d92f4094ea2","688","","j","","","","","","","","./tasks/HMM-beads/Images/NewTrialWC.png","practice","15","1","1","2","2","false","","","","","","","","","","","","","","","","",""
"image-keyboard-response","62","620029","0.0-4.0-4.0-1.0-1.15","6102c81e911700cf7ba5f6bd","63690f60c96a0a9a64b48fbc","63691cba88e99d92f4094ea2","null","","null","","","","","","","","./tasks/HMM-beads/Images/WhiteBeadChoice.png","","","","","","","","","","","","","","","","","","","","","","","",""
"image-keyboard-response","63","620541","0.0-4.0-4.0-1.0-2.15","6102c81e911700cf7ba5f6bd","63690f60c96a0a9a64b48fbc","63691cba88e99d92f4094ea2","null","","null","","","","","","","","./tasks/HMM-beads/Images/WhiteBeadChoiceWrong.png","","","","","","","","","","","","","","","","","","","","","","","",""
"image-keyboard-response","64","621584","0.0-4.0-4.0-1.0-0.16","6102c81e911700cf7ba5f6bd","63690f60c96a0a9a64b48fbc","63691cba88e99d92f4094ea2","1039","","j","","","","","","","","./tasks/HMM-beads/Images/NewTrialBC.png","practice","16","1","2","1","2","true","","","","","","","","","","","","","","","","",""
"image-keyboard-response","65","621898","0.0-4.0-4.0-1.0-1.16","6102c81e911700cf7ba5f6bd","63690f60c96a0a9a64b48fbc","63691cba88e99d92f4094ea2","null","","null","","","","","","","","./tasks/HMM-beads/Images/WhiteBeadChoice.png","","","","","","","","","","","","","","","","","","","","","","","",""
"image-keyboard-response","66","622413","0.0-4.0-4.0-1.0-2.16","6102c81e911700cf7ba5f6bd","63690f60c96a0a9a64b48fbc","63691cba88e99d92f4094ea2","null","","null","","","","","","","","./tasks/HMM-beads/Images/WhiteBeadChoiceCorrect.png","","","","","","","","","","","","","","","","","","","","","","","",""
"image-keyboard-response","67","623041","0.0-4.0-4.0-1.0-0.17","6102c81e911700cf7ba5f6bd","63690f60c96a0a9a64b48fbc","63691cba88e99d92f4094ea2","625","","j","","","","","","","","./tasks/HMM-beads/Images/NewTrialWC.png","practice","17","1","1","2","2","false","","","","","","","","","","","","","","","","",""
"image-keyboard-response","68","623348","0.0-4.0-4.0-1.0-1.17","6102c81e911700cf7ba5f6bd","63690f60c96a0a9a64b48fbc","63691cba88e99d92f4094ea2","null","","null","","","","","","","","./tasks/HMM-beads/Images/WhiteBeadChoice.png","","","","","","","","","","","","","","","","","","","","","","","",""
"image-keyboard-response","69","623864","0.0-4.0-4.0-1.0-2.17","6102c81e911700cf7ba5f6bd","63690f60c96a0a9a64b48fbc","63691cba88e99d92f4094ea2","null","","null","","","","","","","","./tasks/HMM-beads/Images/WhiteBeadChoiceWrong.png","","","","","","","","","","","","","","","","","","","","","","","",""
"image-keyboard-response","70","624400","0.0-4.0-4.0-1.0-0.18","6102c81e911700cf7ba5f6bd","63690f60c96a0a9a64b48fbc","63691cba88e99d92f4094ea2","536","","j","","","","","","","","./tasks/HMM-beads/Images/NewTrialBC.png","practice","18","1","1","1","2","false","","","","","","","","","","","","","","","","",""
"image-keyboard-response","71","624702","0.0-4.0-4.0-1.0-1.18","6102c81e911700cf7ba5f6bd","63690f60c96a0a9a64b48fbc","63691cba88e99d92f4094ea2","null","","null","","","","","","","","./tasks/HMM-beads/Images/WhiteBeadChoice.png","","","","","","","","","","","","","","","","","","","","","","","",""
"image-keyboard-response","72","625221","0.0-4.0-4.0-1.0-2.18","6102c81e911700cf7ba5f6bd","63690f60c96a0a9a64b48fbc","63691cba88e99d92f4094ea2","null","","null","","","","","","","","./tasks/HMM-beads/Images/WhiteBeadChoiceWrong.png","","","","","","","","","","","","","","","","","","","","","","","",""
"image-keyboard-response","73","625593","0.0-4.0-4.0-1.0-0.19","6102c81e911700cf7ba5f6bd","63690f60c96a0a9a64b48fbc","63691cba88e99d92f4094ea2","370","","j","","","","","","","","./tasks/HMM-beads/Images/NewTrialBC.png","practice","19","1","1","1","2","false","","","","","","","","","","","","","","","","",""
"image-keyboard-response","74","625903","0.0-4.0-4.0-1.0-1.19","6102c81e911700cf7ba5f6bd","63690f60c96a0a9a64b48fbc","63691cba88e99d92f4094ea2","null","","null","","","","","","","","./tasks/HMM-beads/Images/WhiteBeadChoice.png","","","","","","","","","","","","","","","","","","","","","","","",""
"image-keyboard-response","75","626418","0.0-4.0-4.0-1.0-2.19","6102c81e911700cf7ba5f6bd","63690f60c96a0a9a64b48fbc","63691cba88e99d92f4094ea2","null","","null","","","","","","","","./tasks/HMM-beads/Images/WhiteBeadChoiceWrong.png","","","","","","","","","","","","","","","","","","","","","","","",""
"html-keyboard-response","76","631808","0.0-4.0-4.0-2.0","6102c81e911700cf7ba5f6bd","63690f60c96a0a9a64b48fbc","63691cba88e99d92f4094ea2","5390",""," ","","","","","","","","","","","","","","","","","","","","","","","","","","","","","","","",""
"instructions","77","654226","0.0-4.0-5.0","6102c81e911700cf7ba5f6bd","63690f60c96a0a9a64b48fbc","63691cba88e99d92f4094ea2","22417","","","","[{""page_index"":0,""viewing_time"":18754},{""page_index"":1,""viewing_time"":3662}]","","","","","","","","","","","","","","","","","","","","","","","","","","","","","",""
"html-keyboard-response","78","660442","0.0-4.0-6.0-0.0","6102c81e911700cf7ba5f6bd","63690f60c96a0a9a64b48fbc","63691cba88e99d92f4094ea2","6214",""," ","","","","","","","","<div align=center>In this block, there will be a <b>99%</b> chance that the jar on the next trial will be different from the jar on the current trial.<br><br></div>","","","","","","","","","","","","","","","","","","","","","","","",""
"image-keyboard-response","79","662105","0.0-4.0-6.0-1.0-0.0","6102c81e911700cf7ba5f6bd","63690f60c96a0a9a64b48fbc","63691cba88e99d92f4094ea2","1659","","j","","","","","","","","./tasks/HMM-beads/Images/NoChoice.png","highH","0","1","1","0","2","false","","","","","","","","","","","","","","","","",""
"image-keyboard-response","80","662410","0.0-4.0-6.0-1.0-1.0","6102c81e911700cf7ba5f6bd","63690f60c96a0a9a64b48fbc","63691cba88e99d92f4094ea2","null","","null","","","","","","","","./tasks/HMM-beads/Images/WhiteBeadChoice.png","","","","","","","","","","","","","","","","","","","","","","","",""
"image-keyboard-response","81","662915","0.0-4.0-6.0-1.0-2.0","6102c81e911700cf7ba5f6bd","63690f60c96a0a9a64b48fbc","63691cba88e99d92f4094ea2","null","","null","","","","","","","","./tasks/HMM-beads/Images/WhiteBeadChoiceWrong.png","","","","","","","","","","","","","","","","","","","","","","","",""
"image-keyboard-response","82","663899","0.0-4.0-6.0-1.0-0.1","6102c81e911700cf7ba5f6bd","63690f60c96a0a9a64b48fbc","63691cba88e99d92f4094ea2","980","","j","","","","","","","","./tasks/HMM-beads/Images/NewTrialBC.png","highH","1","2","2","1","2","true","","","","","","","","","","","","","","","","",""
"image-keyboard-response","83","664210","0.0-4.0-6.0-1.0-1.1","6102c81e911700cf7ba5f6bd","63690f60c96a0a9a64b48fbc","63691cba88e99d92f4094ea2","null","","null","","","","","","","","./tasks/HMM-beads/Images/WhiteBeadChoice.png","","","","","","","","","","","","","","","","","","","","","","","",""
"image-keyboard-response","84","664723","0.0-4.0-6.0-1.0-2.1","6102c81e911700cf7ba5f6bd","63690f60c96a0a9a64b48fbc","63691cba88e99d92f4094ea2","null","","null","","","","","","","","./tasks/HMM-beads/Images/WhiteBeadChoiceCorrect.png","","","","","","","","","","","","","","","","","","","","","","","",""
"image-keyboard-response","85","666952","0.0-4.0-6.0-1.0-0.2","6102c81e911700cf7ba5f6bd","63690f60c96a0a9a64b48fbc","63691cba88e99d92f4094ea2","2226","","f","","","","","","","","./tasks/HMM-beads/Images/NewTrialWC.png","highH","2","1","1","2","1","true","","","","","","","","","","","","","","","","",""
"image-keyboard-response","86","667261","0.0-4.0-6.0-1.0-1.2","6102c81e911700cf7ba5f6bd","63690f60c96a0a9a64b48fbc","63691cba88e99d92f4094ea2","null","","null","","","","","","","","./tasks/HMM-beads/Images/BlackBeadChoice.png","","","","","","","","","","","","","","","","","","","","","","","",""
"image-keyboard-response","87","667776","0.0-4.0-6.0-1.0-2.2","6102c81e911700cf7ba5f6bd","63690f60c96a0a9a64b48fbc","63691cba88e99d92f4094ea2","null","","null","","","","","","","","./tasks/HMM-beads/Images/BlackBeadChoiceCorrect.png","","","","","","","","","","","","","","","","","","","","","","","",""
"image-keyboard-response","88","668636","0.0-4.0-6.0-1.0-0.3","6102c81e911700cf7ba5f6bd","63690f60c96a0a9a64b48fbc","63691cba88e99d92f4094ea2","856","","j","","","","","","","","./tasks/HMM-beads/Images/NewTrialBC.png","highH","3","2","2","1","2","true","","","","","","","","","","","","","","","","",""
"image-keyboard-response","89","668943","0.0-4.0-6.0-1.0-1.3","6102c81e911700cf7ba5f6bd","63690f60c96a0a9a64b48fbc","63691cba88e99d92f4094ea2","null","","null","","","","","","","","./tasks/HMM-beads/Images/WhiteBeadChoice.png","","","","","","","","","","","","","","","","","","","","","","","",""
"image-keyboard-response","90","669460","0.0-4.0-6.0-1.0-2.3","6102c81e911700cf7ba5f6bd","63690f60c96a0a9a64b48fbc","63691cba88e99d92f4094ea2","null","","null","","","","","","","","./tasks/HMM-beads/Images/WhiteBeadChoiceCorrect.png","","","","","","","","","","","","","","","","","","","","","","","",""
"image-keyboard-response","91","670274","0.0-4.0-6.0-1.0-0.4","6102c81e911700cf7ba5f6bd","63690f60c96a0a9a64b48fbc","63691cba88e99d92f4094ea2","781","","f","","","","","","","","./tasks/HMM-beads/Images/NewTrialWC.png","highH","4","1","1","2","1","true","","","","","","","","","","","","","","","","",""
"image-keyboard-response","92","670577","0.0-4.0-6.0-1.0-1.4","6102c81e911700cf7ba5f6bd","63690f60c96a0a9a64b48fbc","63691cba88e99d92f4094ea2","null","","null","","","","","","","","./tasks/HMM-beads/Images/BlackBeadChoice.png","","","","","","","","","","","","","","","","","","","","","","","",""
"image-keyboard-response","93","671091","0.0-4.0-6.0-1.0-2.4","6102c81e911700cf7ba5f6bd","63690f60c96a0a9a64b48fbc","63691cba88e99d92f4094ea2","null","","null","","","","","","","","./tasks/HMM-beads/Images/BlackBeadChoiceCorrect.png","","","","","","","","","","","","","","","","","","","","","","","",""
"image-keyboard-response","94","671809","0.0-4.0-6.0-1.0-0.5","6102c81e911700cf7ba5f6bd","63690f60c96a0a9a64b48fbc","63691cba88e99d92f4094ea2","712","","j","","","","","","","","./tasks/HMM-beads/Images/NewTrialBC.png","highH","5","2","2","1","2","true","","","","","","","","","","","","","","","","",""
"image-keyboard-response","95","672116","0.0-4.0-6.0-1.0-1.5","6102c81e911700cf7ba5f6bd","63690f60c96a0a9a64b48fbc","63691cba88e99d92f4094ea2","null","","null","","","","","","","","./tasks/HMM-beads/Images/WhiteBeadChoice.png","","","","","","","","","","","","","","","","","","","","","","","",""
"image-keyboard-response","96","672629","0.0-4.0-6.0-1.0-2.5","6102c81e911700cf7ba5f6bd","63690f60c96a0a9a64b48fbc","63691cba88e99d92f4094ea2","null","","null","","","","","","","","./tasks/HMM-beads/Images/WhiteBeadChoiceCorrect.png","","","","","","","","","","","","","","","","","","","","","","","",""
"image-keyboard-response","97","673206","0.0-4.0-6.0-1.0-0.6","6102c81e911700cf7ba5f6bd","63690f60c96a0a9a64b48fbc","63691cba88e99d92f4094ea2","562","","f","","","","","","","","./tasks/HMM-beads/Images/NewTrialWC.png","highH","6","1","1","2","1","true","","","","","","","","","","","","","","","","",""
"image-keyboard-response","98","673604","0.0-4.0-6.0-1.0-1.6","6102c81e911700cf7ba5f6bd","63690f60c96a0a9a64b48fbc","63691cba88e99d92f4094ea2","null","","null","","","","","","","","./tasks/HMM-beads/Images/BlackBeadChoice.png","","","","","","","","","","","","","","","","","","","","","","","",""
"image-keyboard-response","99","674140","0.0-4.0-6.0-1.0-2.6","6102c81e911700cf7ba5f6bd","63690f60c96a0a9a64b48fbc","63691cba88e99d92f4094ea2","null","","null","","","","","","","","./tasks/HMM-beads/Images/BlackBeadChoiceCorrect.png","","","","","","","","","","","","","","","","","","","","","","","",""
"image-keyboard-response","100","674755","0.0-4.0-6.0-1.0-0.7","6102c81e911700cf7ba5f6bd","63690f60c96a0a9a64b48fbc","63691cba88e99d92f4094ea2","613","","j","","","","","","","","./tasks/HMM-beads/Images/NewTrialBC.png","highH","7","2","1","1","2","false","","","","","","","","","","","","","","","","",""
"image-keyboard-response","101","675067","0.0-4.0-6.0-1.0-1.7","6102c81e911700cf7ba5f6bd","63690f60c96a0a9a64b48fbc","63691cba88e99d92f4094ea2","null","","null","","","","","","","","./tasks/HMM-beads/Images/WhiteBeadChoice.png","","","","","","","","","","","","","","","","","","","","","","","",""
"image-keyboard-response","102","675578","0.0-4.0-6.0-1.0-2.7","6102c81e911700cf7ba5f6bd","63690f60c96a0a9a64b48fbc","63691cba88e99d92f4094ea2","null","","null","","","","","","","","./tasks/HMM-beads/Images/WhiteBeadChoiceWrong.png","","","","","","","","","","","","","","","","","","","","","","","",""
"image-keyboard-response","103","676439","0.0-4.0-6.0-1.0-0.8","6102c81e911700cf7ba5f6bd","63690f60c96a0a9a64b48fbc","63691cba88e99d92f4094ea2","859","","f","","","","","","","","./tasks/HMM-beads/Images/NewTrialBC.png","highH","8","1","1","1","1","true","","","","","","","","","","","","","","","","",""
"image-keyboard-response","104","676758","0.0-4.0-6.0-1.0-1.8","6102c81e911700cf7ba5f6bd","63690f60c96a0a9a64b48fbc","63691cba88e99d92f4094ea2","null","","null","","","","","","","","./tasks/HMM-beads/Images/BlackBeadChoice.png","","","","","","","","","","","","","","","","","","","","","","","",""
"image-keyboard-response","105","677274","0.0-4.0-6.0-1.0-2.8","6102c81e911700cf7ba5f6bd","63690f60c96a0a9a64b48fbc","63691cba88e99d92f4094ea2","null","","null","","","","","","","","./tasks/HMM-beads/Images/BlackBeadChoiceCorrect.png","","","","","","","","","","","","","","","","","","","","","","","",""
"image-keyboard-response","106","678024","0.0-4.0-6.0-1.0-0.9","6102c81e911700cf7ba5f6bd","63690f60c96a0a9a64b48fbc","63691cba88e99d92f4094ea2","746","","j","","","","","","","","./tasks/HMM-beads/Images/NewTrialBC.png","highH","9","2","2","1","2","true","","","","","","","","","","","","","","","","",""
"image-keyboard-response","107","678330","0.0-4.0-6.0-1.0-1.9","6102c81e911700cf7ba5f6bd","63690f60c96a0a9a64b48fbc","63691cba88e99d92f4094ea2","null","","null","","","","","","","","./tasks/HMM-beads/Images/WhiteBeadChoice.png","","","","","","","","","","","","","","","","","","","","","","","",""
"image-keyboard-response","108","678843","0.0-4.0-6.0-1.0-2.9","6102c81e911700cf7ba5f6bd","63690f60c96a0a9a64b48fbc","63691cba88e99d92f4094ea2","null","","null","","","","","","","","./tasks/HMM-beads/Images/WhiteBeadChoiceCorrect.png","","","","","","","","","","","","","","","","","","","","","","","",""
"image-keyboard-response","109","679315","0.0-4.0-6.0-1.0-0.10","6102c81e911700cf7ba5f6bd","63690f60c96a0a9a64b48fbc","63691cba88e99d92f4094ea2","462","","f","","","","","","","","./tasks/HMM-beads/Images/NewTrialWC.png","highH","10","1","1","2","1","true","","","","","","","","","","","","","","","","",""
"image-keyboard-response","110","679647","0.0-4.0-6.0-1.0-1.10","6102c81e911700cf7ba5f6bd","63690f60c96a0a9a64b48fbc","63691cba88e99d92f4094ea2","null","","null","","","","","","","","./tasks/HMM-beads/Images/BlackBeadChoice.png","","","","","","","","","","","","","","","","","","","","","","","",""
"image-keyboard-response","111","680161","0.0-4.0-6.0-1.0-2.10","6102c81e911700cf7ba5f6bd","63690f60c96a0a9a64b48fbc","63691cba88e99d92f4094ea2","null","","null","","","","","","","","./tasks/HMM-beads/Images/BlackBeadChoiceCorrect.png","","","","","","","","","","","","","","","","","","","","","","","",""
"image-keyboard-response","112","680721","0.0-4.0-6.0-1.0-0.11","6102c81e911700cf7ba5f6bd","63690f60c96a0a9a64b48fbc","63691cba88e99d92f4094ea2","549","","j","","","","","","","","./tasks/HMM-beads/Images/NewTrialBC.png","highH","11","2","2","1","2","true","","","","","","","","","","","","","","","","",""
"image-keyboard-response","113","681084","0.0-4.0-6.0-1.0-1.11","6102c81e911700cf7ba5f6bd","63690f60c96a0a9a64b48fbc","63691cba88e99d92f4094ea2","null","","null","","","","","","","","./tasks/HMM-beads/Images/WhiteBeadChoice.png","","","","","","","","","","","","","","","","","","","","","","","",""
"image-keyboard-response","114","681603","0.0-4.0-6.0-1.0-2.11","6102c81e911700cf7ba5f6bd","63690f60c96a0a9a64b48fbc","63691cba88e99d92f4094ea2","null","","null","","","","","","","","./tasks/HMM-beads/Images/WhiteBeadChoiceCorrect.png","","","","","","","","","","","","","","","","","","","","","","","",""
"image-keyboard-response","115","682326","0.0-4.0-6.0-1.0-0.12","6102c81e911700cf7ba5f6bd","63690f60c96a0a9a64b48fbc","63691cba88e99d92f4094ea2","694","","f","","","","","","","","./tasks/HMM-beads/Images/NewTrialWC.png","highH","12","1","1","2","1","true","","","","","","","","","","","","","","","","",""
"image-keyboard-response","116","682642","0.0-4.0-6.0-1.0-1.12","6102c81e911700cf7ba5f6bd","63690f60c96a0a9a64b48fbc","63691cba88e99d92f4094ea2","null","","null","","","","","","","","./tasks/HMM-beads/Images/BlackBeadChoice.png","","","","","","","","","","","","","","","","","","","","","","","",""
"image-keyboard-response","117","683158","0.0-4.0-6.0-1.0-2.12","6102c81e911700cf7ba5f6bd","63690f60c96a0a9a64b48fbc","63691cba88e99d92f4094ea2","null","","null","","","","","","","","./tasks/HMM-beads/Images/BlackBeadChoiceCorrect.png","","","","","","","","","","","","","","","","","","","","","","","",""
"image-keyboard-response","118","683624","0.0-4.0-6.0-1.0-0.13","6102c81e911700cf7ba5f6bd","63690f60c96a0a9a64b48fbc","63691cba88e99d92f4094ea2","464","","j","","","","","","","","./tasks/HMM-beads/Images/NewTrialBC.png","highH","13","2","1","1","2","false","","","","","","","","","","","","","","","","",""
"image-keyboard-response","119","683935","0.0-4.0-6.0-1.0-1.13","6102c81e911700cf7ba5f6bd","63690f60c96a0a9a64b48fbc","63691cba88e99d92f4094ea2","null","","null","","","","","","","","./tasks/HMM-beads/Images/WhiteBeadChoice.png","","","","","","","","","","","","","","","","","","","","","","","",""
"image-keyboard-response","120","684448","0.0-4.0-6.0-1.0-2.13","6102c81e911700cf7ba5f6bd","63690f60c96a0a9a64b48fbc","63691cba88e99d92f4094ea2","null","","null","","","","","","","","./tasks/HMM-beads/Images/WhiteBeadChoiceWrong.png","","","","","","","","","","","","","","","","","","","","","","","",""
"image-keyboard-response","121","685971","0.0-4.0-6.0-1.0-0.14","6102c81e911700cf7ba5f6bd","63690f60c96a0a9a64b48fbc","63691cba88e99d92f4094ea2","1519","","f","","","","","","","","./tasks/HMM-beads/Images/NewTrialBC.png","highH","14","1","2","1","1","false","","","","","","","","","","","","","","","","",""
"image-keyboard-response","122","686285","0.0-4.0-6.0-1.0-1.14","6102c81e911700cf7ba5f6bd","63690f60c96a0a9a64b48fbc","63691cba88e99d92f4094ea2","null","","null","","","","","","","","./tasks/HMM-beads/Images/BlackBeadChoice.png","","","","","","","","","","","","","","","","","","","","","","","",""
"image-keyboard-response","123","686799","0.0-4.0-6.0-1.0-2.14","6102c81e911700cf7ba5f6bd","63690f60c96a0a9a64b48fbc","63691cba88e99d92f4094ea2","null","","null","","","","","","","","./tasks/HMM-beads/Images/BlackBeadChoiceWrong.png","","","","","","","","","","","","","","","","","","","","","","","",""
"image-keyboard-response","124","687224","0.0-4.0-6.0-1.0-0.15","6102c81e911700cf7ba5f6bd","63690f60c96a0a9a64b48fbc","63691cba88e99d92f4094ea2","421","","j","","","","","","","","./tasks/HMM-beads/Images/NewTrialWC.png","highH","15","2","2","2","2","true","","","","","","","","","","","","","","","","",""
"image-keyboard-response","125","687534","0.0-4.0-6.0-1.0-1.15","6102c81e911700cf7ba5f6bd","63690f60c96a0a9a64b48fbc","63691cba88e99d92f4094ea2","null","","null","","","","","","","","./tasks/HMM-beads/Images/WhiteBeadChoice.png","","","","","","","","","","","","","","","","","","","","","","","",""
"image-keyboard-response","126","688038","0.0-4.0-6.0-1.0-2.15","6102c81e911700cf7ba5f6bd","63690f60c96a0a9a64b48fbc","63691cba88e99d92f4094ea2","null","","null","","","","","","","","./tasks/HMM-beads/Images/WhiteBeadChoiceCorrect.png","","","","","","","","","","","","","","","","","","","","","","","",""
"image-keyboard-response","127","688626","0.0-4.0-6.0-1.0-0.16","6102c81e911700cf7ba5f6bd","63690f60c96a0a9a64b48fbc","63691cba88e99d92f4094ea2","586","","j","","","","","","","","./tasks/HMM-beads/Images/NewTrialWC.png","highH","16","1","1","2","2","false","","","","","","","","","","","","","","","","",""
"image-keyboard-response","128","688929","0.0-4.0-6.0-1.0-1.16","6102c81e911700cf7ba5f6bd","63690f60c96a0a9a64b48fbc","63691cba88e99d92f4094ea2","null","","null","","","","","","","","./tasks/HMM-beads/Images/WhiteBeadChoice.png","","","","","","","","","","","","","","","","","","","","","","","",""
"image-keyboard-response","129","689476","0.0-4.0-6.0-1.0-2.16","6102c81e911700cf7ba5f6bd","63690f60c96a0a9a64b48fbc","63691cba88e99d92f4094ea2","null","","null","","","","","","","","./tasks/HMM-beads/Images/WhiteBeadChoiceWrong.png","","","","","","","","","","","","","","","","","","","","","","","",""
"image-keyboard-response","130","689734","0.0-4.0-6.0-1.0-0.17","6102c81e911700cf7ba5f6bd","63690f60c96a0a9a64b48fbc","63691cba88e99d92f4094ea2","256","","f","","","","","","","","./tasks/HMM-beads/Images/NewTrialBC.png","highH","17","2","2","1","1","false","","","","","","","","","","","","","","","","",""
"image-keyboard-response","131","690038","0.0-4.0-6.0-1.0-1.17","6102c81e911700cf7ba5f6bd","63690f60c96a0a9a64b48fbc","63691cba88e99d92f4094ea2","null","","null","","","","","","","","./tasks/HMM-beads/Images/BlackBeadChoice.png","","","","","","","","","","","","","","","","","","","","","","","",""
"image-keyboard-response","132","690554","0.0-4.0-6.0-1.0-2.17","6102c81e911700cf7ba5f6bd","63690f60c96a0a9a64b48fbc","63691cba88e99d92f4094ea2","null","","null","","","","","","","","./tasks/HMM-beads/Images/BlackBeadChoiceWrong.png","","","","","","","","","","","","","","","","","","","","","","","",""
"image-keyboard-response","133","691801","0.0-4.0-6.0-1.0-0.18","6102c81e911700cf7ba5f6bd","63690f60c96a0a9a64b48fbc","63691cba88e99d92f4094ea2","1244","","j","","","","","","","","./tasks/HMM-beads/Images/NewTrialWC.png","highH","18","1","2","2","2","true","","","","","","","","","","","","","","","","",""
"image-keyboard-response","134","692107","0.0-4.0-6.0-1.0-1.18","6102c81e911700cf7ba5f6bd","63690f60c96a0a9a64b48fbc","63691cba88e99d92f4094ea2","null","","null","","","","","","","","./tasks/HMM-beads/Images/WhiteBeadChoice.png","","","","","","","","","","","","","","","","","","","","","","","",""
"image-keyboard-response","135","692623","0.0-4.0-6.0-1.0-2.18","6102c81e911700cf7ba5f6bd","63690f60c96a0a9a64b48fbc","63691cba88e99d92f4094ea2","null","","null","","","","","","","","./tasks/HMM-beads/Images/WhiteBeadChoiceCorrect.png","","","","","","","","","","","","","","","","","","","","","","","",""
"image-keyboard-response","136","693699","0.0-4.0-6.0-1.0-0.19","6102c81e911700cf7ba5f6bd","63690f60c96a0a9a64b48fbc","63691cba88e99d92f4094ea2","1062","","f","","","","","","","","./tasks/HMM-beads/Images/NewTrialWC.png","highH","19","2","2","2","1","false","","","","","","","","","","","","","","","","",""
"image-keyboard-response","137","694014","0.0-4.0-6.0-1.0-1.19","6102c81e911700cf7ba5f6bd","63690f60c96a0a9a64b48fbc","63691cba88e99d92f4094ea2","null","","null","","","","","","","","./tasks/HMM-beads/Images/BlackBeadChoice.png","","","","","","","","","","","","","","","","","","","","","","","",""
"image-keyboard-response","138","694518","0.0-4.0-6.0-1.0-2.19","6102c81e911700cf7ba5f6bd","63690f60c96a0a9a64b48fbc","63691cba88e99d92f4094ea2","null","","null","","","","","","","","./tasks/HMM-beads/Images/BlackBeadChoiceWrong.png","","","","","","","","","","","","","","","","","","","","","","","",""
"image-keyboard-response","139","695075","0.0-4.0-6.0-1.0-0.20","6102c81e911700cf7ba5f6bd","63690f60c96a0a9a64b48fbc","63691cba88e99d92f4094ea2","554","","j","","","","","","","","./tasks/HMM-beads/Images/NewTrialWC.png","highH","20","1","1","2","2","false","","","","","","","","","","","","","","","","",""
"image-keyboard-response","140","695392","0.0-4.0-6.0-1.0-1.20","6102c81e911700cf7ba5f6bd","63690f60c96a0a9a64b48fbc","63691cba88e99d92f4094ea2","null","","null","","","","","","","","./tasks/HMM-beads/Images/WhiteBeadChoice.png","","","","","","","","","","","","","","","","","","","","","","","",""
"image-keyboard-response","141","695908","0.0-4.0-6.0-1.0-2.20","6102c81e911700cf7ba5f6bd","63690f60c96a0a9a64b48fbc","63691cba88e99d92f4094ea2","null","","null","","","","","","","","./tasks/HMM-beads/Images/WhiteBeadChoiceWrong.png","","","","","","","","","","","","","","","","","","","","","","","",""
"image-keyboard-response","142","696755","0.0-4.0-6.0-1.0-0.21","6102c81e911700cf7ba5f6bd","63690f60c96a0a9a64b48fbc","63691cba88e99d92f4094ea2","845","","f","","","","","","","","./tasks/HMM-beads/Images/NewTrialBC.png","highH","21","2","1","1","1","true","","","","","","","","","","","","","","","","",""
"image-keyboard-response","143","697072","0.0-4.0-6.0-1.0-1.21","6102c81e911700cf7ba5f6bd","63690f60c96a0a9a64b48fbc","63691cba88e99d92f4094ea2","null","","null","","","","","","","","./tasks/HMM-beads/Images/BlackBeadChoice.png","","","","","","","","","","","","","","","","","","","","","","","",""
"image-keyboard-response","144","697590","0.0-4.0-6.0-1.0-2.21","6102c81e911700cf7ba5f6bd","63690f60c96a0a9a64b48fbc","63691cba88e99d92f4094ea2","null","","null","","","","","","","","./tasks/HMM-beads/Images/BlackBeadChoiceCorrect.png","","","","","","","","","","","","","","","","","","","","","","","",""
"image-keyboard-response","145","698201","0.0-4.0-6.0-1.0-0.22","6102c81e911700cf7ba5f6bd","63690f60c96a0a9a64b48fbc","63691cba88e99d92f4094ea2","606","","j","","","","","","","","./tasks/HMM-beads/Images/NewTrialBC.png","highH","22","1","1","1","2","false","","","","","","","","","","","","","","","","",""
"image-keyboard-response","146","698514","0.0-4.0-6.0-1.0-1.22","6102c81e911700cf7ba5f6bd","63690f60c96a0a9a64b48fbc","63691cba88e99d92f4094ea2","null","","null","","","","","","","","./tasks/HMM-beads/Images/WhiteBeadChoice.png","","","","","","","","","","","","","","","","","","","","","","","",""
"image-keyboard-response","147","699035","0.0-4.0-6.0-1.0-2.22","6102c81e911700cf7ba5f6bd","63690f60c96a0a9a64b48fbc","63691cba88e99d92f4094ea2","null","","null","","","","","","","","./tasks/HMM-beads/Images/WhiteBeadChoiceWrong.png","","","","","","","","","","","","","","","","","","","","","","","",""
"image-keyboard-response","148","700067","0.0-4.0-6.0-1.0-0.23","6102c81e911700cf7ba5f6bd","63690f60c96a0a9a64b48fbc","63691cba88e99d92f4094ea2","1027","","f","","","","","","","","./tasks/HMM-beads/Images/NewTrialBC.png","highH","23","2","2","1","1","false","","","","","","","","","","","","","","","","",""
"image-keyboard-response","149","700371","0.0-4.0-6.0-1.0-1.23","6102c81e911700cf7ba5f6bd","63690f60c96a0a9a64b48fbc","63691cba88e99d92f4094ea2","null","","null","","","","","","","","./tasks/HMM-beads/Images/BlackBeadChoice.png","","","","","","","","","","","","","","","","","","","","","","","",""
"image-keyboard-response","150","700888","0.0-4.0-6.0-1.0-2.23","6102c81e911700cf7ba5f6bd","63690f60c96a0a9a64b48fbc","63691cba88e99d92f4094ea2","null","","null","","","","","","","","./tasks/HMM-beads/Images/BlackBeadChoiceWrong.png","","","","","","","","","","","","","","","","","","","","","","","",""
"image-keyboard-response","151","703676","0.0-4.0-6.0-1.0-0.24","6102c81e911700cf7ba5f6bd","63690f60c96a0a9a64b48fbc","63691cba88e99d92f4094ea2","2784","","f","","","","","","","","./tasks/HMM-beads/Images/NewTrialWC.png","highH","24","1","1","2","1","true","","","","","","","","","","","","","","","","",""
"image-keyboard-response","152","703994","0.0-4.0-6.0-1.0-1.24","6102c81e911700cf7ba5f6bd","63690f60c96a0a9a64b48fbc","63691cba88e99d92f4094ea2","null","","null","","","","","","","","./tasks/HMM-beads/Images/BlackBeadChoice.png","","","","","","","","","","","","","","","","","","","","","","","",""
"image-keyboard-response","153","704513","0.0-4.0-6.0-1.0-2.24","6102c81e911700cf7ba5f6bd","63690f60c96a0a9a64b48fbc","63691cba88e99d92f4094ea2","null","","null","","","","","","","","./tasks/HMM-beads/Images/BlackBeadChoiceCorrect.png","","","","","","","","","","","","","","","","","","","","","","","",""
"image-keyboard-response","154","704605","0.0-4.0-6.0-1.0-0.25","6102c81e911700cf7ba5f6bd","63690f60c96a0a9a64b48fbc","63691cba88e99d92f4094ea2","88","","j","","","","","","","","./tasks/HMM-beads/Images/NewTrialBC.png","highH","25","2","1","1","2","false","","","","","","","","","","","","","","","","",""
"image-keyboard-response","155","704922","0.0-4.0-6.0-1.0-1.25","6102c81e911700cf7ba5f6bd","63690f60c96a0a9a64b48fbc","63691cba88e99d92f4094ea2","null","","null","","","","","","","","./tasks/HMM-beads/Images/WhiteBeadChoice.png","","","","","","","","","","","","","","","","","","","","","","","",""
"image-keyboard-response","156","705434","0.0-4.0-6.0-1.0-2.25","6102c81e911700cf7ba5f6bd","63690f60c96a0a9a64b48fbc","63691cba88e99d92f4094ea2","null","","null","","","","","","","","./tasks/HMM-beads/Images/WhiteBeadChoiceWrong.png","","","","","","","","","","","","","","","","","","","","","","","",""
"image-keyboard-response","157","705881","0.0-4.0-6.0-1.0-0.26","6102c81e911700cf7ba5f6bd","63690f60c96a0a9a64b48fbc","63691cba88e99d92f4094ea2","445","","f","","","","","","","","./tasks/HMM-beads/Images/NewTrialBC.png","highH","26","1","1","1","1","true","","","","","","","","","","","","","","","","",""
"image-keyboard-response","158","706185","0.0-4.0-6.0-1.0-1.26","6102c81e911700cf7ba5f6bd","63690f60c96a0a9a64b48fbc","63691cba88e99d92f4094ea2","null","","null","","","","","","","","./tasks/HMM-beads/Images/BlackBeadChoice.png","","","","","","","","","","","","","","","","","","","","","","","",""
"image-keyboard-response","159","706702","0.0-4.0-6.0-1.0-2.26","6102c81e911700cf7ba5f6bd","63690f60c96a0a9a64b48fbc","63691cba88e99d92f4094ea2","null","","null","","","","","","","","./tasks/HMM-beads/Images/BlackBeadChoiceCorrect.png","","","","","","","","","","","","","","","","","","","","","","","",""
"image-keyboard-response","160","707159","0.0-4.0-6.0-1.0-0.27","6102c81e911700cf7ba5f6bd","63690f60c96a0a9a64b48fbc","63691cba88e99d92f4094ea2","453","","j","","","","","","","","./tasks/HMM-beads/Images/NewTrialBC.png","highH","27","2","2","1","2","true","","","","","","","","","","","","","","","","",""
"image-keyboard-response","161","707471","0.0-4.0-6.0-1.0-1.27","6102c81e911700cf7ba5f6bd","63690f60c96a0a9a64b48fbc","63691cba88e99d92f4094ea2","null","","null","","","","","","","","./tasks/HMM-beads/Images/WhiteBeadChoice.png","","","","","","","","","","","","","","","","","","","","","","","",""
"image-keyboard-response","162","707988","0.0-4.0-6.0-1.0-2.27","6102c81e911700cf7ba5f6bd","63690f60c96a0a9a64b48fbc","63691cba88e99d92f4094ea2","null","","null","","","","","","","","./tasks/HMM-beads/Images/WhiteBeadChoiceCorrect.png","","","","","","","","","","","","","","","","","","","","","","","",""
"image-keyboard-response","163","708586","0.0-4.0-6.0-1.0-0.28","6102c81e911700cf7ba5f6bd","63690f60c96a0a9a64b48fbc","63691cba88e99d92f4094ea2","596","","f","","","","","","","","./tasks/HMM-beads/Images/NewTrialWC.png","highH","28","2","1","2","1","true","","","","","","","","","","","","","","","","",""
"image-keyboard-response","164","708901","0.0-4.0-6.0-1.0-1.28","6102c81e911700cf7ba5f6bd","63690f60c96a0a9a64b48fbc","63691cba88e99d92f4094ea2","null","","null","","","","","","","","./tasks/HMM-beads/Images/BlackBeadChoice.png","","","","","","","","","","","","","","","","","","","","","","","",""
"image-keyboard-response","165","709415","0.0-4.0-6.0-1.0-2.28","6102c81e911700cf7ba5f6bd","63690f60c96a0a9a64b48fbc","63691cba88e99d92f4094ea2","null","","null","","","","","","","","./tasks/HMM-beads/Images/BlackBeadChoiceCorrect.png","","","","","","","","","","","","","","","","","","","","","","","",""
"image-keyboard-response","166","709982","0.0-4.0-6.0-1.0-0.29","6102c81e911700cf7ba5f6bd","63690f60c96a0a9a64b48fbc","63691cba88e99d92f4094ea2","563","","j","","","","","","","","./tasks/HMM-beads/Images/NewTrialBC.png","highH","29","1","1","1","2","false","","","","","","","","","","","","","","","","",""
"image-keyboard-response","167","710294","0.0-4.0-6.0-1.0-1.29","6102c81e911700cf7ba5f6bd","63690f60c96a0a9a64b48fbc","63691cba88e99d92f4094ea2","null","","null","","","","","","","","./tasks/HMM-beads/Images/WhiteBeadChoice.png","","","","","","","","","","","","","","","","","","","","","","","",""
"image-keyboard-response","168","710808","0.0-4.0-6.0-1.0-2.29","6102c81e911700cf7ba5f6bd","63690f60c96a0a9a64b48fbc","63691cba88e99d92f4094ea2","null","","null","","","","","","","","./tasks/HMM-beads/Images/WhiteBeadChoiceWrong.png","","","","","","","","","","","","","","","","","","","","","","","",""
"image-keyboard-response","169","711363","0.0-4.0-6.0-1.0-0.30","6102c81e911700cf7ba5f6bd","63690f60c96a0a9a64b48fbc","63691cba88e99d92f4094ea2","552","","f","","","","","","","","./tasks/HMM-beads/Images/NewTrialBC.png","highH","30","2","1","1","1","true","","","","","","","","","","","","","","","","",""
"image-keyboard-response","170","711671","0.0-4.0-6.0-1.0-1.30","6102c81e911700cf7ba5f6bd","63690f60c96a0a9a64b48fbc","63691cba88e99d92f4094ea2","null","","null","","","","","","","","./tasks/HMM-beads/Images/BlackBeadChoice.png","","","","","","","","","","","","","","","","","","","","","","","",""
"image-keyboard-response","171","712187","0.0-4.0-6.0-1.0-2.30","6102c81e911700cf7ba5f6bd","63690f60c96a0a9a64b48fbc","63691cba88e99d92f4094ea2","null","","null","","","","","","","","./tasks/HMM-beads/Images/BlackBeadChoiceCorrect.png","","","","","","","","","","","","","","","","","","","","","","","",""
"image-keyboard-response","172","712840","0.0-4.0-6.0-1.0-0.31","6102c81e911700cf7ba5f6bd","63690f60c96a0a9a64b48fbc","63691cba88e99d92f4094ea2","651","","j","","","","","","","","./tasks/HMM-beads/Images/NewTrialBC.png","highH","31","1","1","1","2","false","","","","","","","","","","","","","","","","",""
"image-keyboard-response","173","713142","0.0-4.0-6.0-1.0-1.31","6102c81e911700cf7ba5f6bd","63690f60c96a0a9a64b48fbc","63691cba88e99d92f4094ea2","null","","null","","","","","","","","./tasks/HMM-beads/Images/WhiteBeadChoice.png","","","","","","","","","","","","","","","","","","","","","","","",""
"image-keyboard-response","174","713646","0.0-4.0-6.0-1.0-2.31","6102c81e911700cf7ba5f6bd","63690f60c96a0a9a64b48fbc","63691cba88e99d92f4094ea2","null","","null","","","","","","","","./tasks/HMM-beads/Images/WhiteBeadChoiceWrong.png","","","","","","","","","","","","","","","","","","","","","","","",""
"image-keyboard-response","175","714130","0.0-4.0-6.0-1.0-0.32","6102c81e911700cf7ba5f6bd","63690f60c96a0a9a64b48fbc","63691cba88e99d92f4094ea2","480","","f","","","","","","","","./tasks/HMM-beads/Images/NewTrialBC.png","highH","32","2","2","1","1","false","","","","","","","","","","","","","","","","",""
"image-keyboard-response","176","714444","0.0-4.0-6.0-1.0-1.32","6102c81e911700cf7ba5f6bd","63690f60c96a0a9a64b48fbc","63691cba88e99d92f4094ea2","null","","null","","","","","","","","./tasks/HMM-beads/Images/BlackBeadChoice.png","","","","","","","","","","","","","","","","","","","","","","","",""
"image-keyboard-response","177","714963","0.0-4.0-6.0-1.0-2.32","6102c81e911700cf7ba5f6bd","63690f60c96a0a9a64b48fbc","63691cba88e99d92f4094ea2","null","","null","","","","","","","","./tasks/HMM-beads/Images/BlackBeadChoiceWrong.png","","","","","","","","","","","","","","","","","","","","","","","",""
"image-keyboard-response","178","716219","0.0-4.0-6.0-1.0-0.33","6102c81e911700cf7ba5f6bd","63690f60c96a0a9a64b48fbc","63691cba88e99d92f4094ea2","1251","","f","","","","","","","","./tasks/HMM-beads/Images/NewTrialWC.png","highH","33","1","1","2","1","true","","","","","","","","","","","","","","","","",""
"image-keyboard-response","179","716528","0.0-4.0-6.0-1.0-1.33","6102c81e911700cf7ba5f6bd","63690f60c96a0a9a64b48fbc","63691cba88e99d92f4094ea2","null","","null","","","","","","","","./tasks/HMM-beads/Images/BlackBeadChoice.png","","","","","","","","","","","","","","","","","","","","","","","",""
"image-keyboard-response","180","717035","0.0-4.0-6.0-1.0-2.33","6102c81e911700cf7ba5f6bd","63690f60c96a0a9a64b48fbc","63691cba88e99d92f4094ea2","null","","null","","","","","","","","./tasks/HMM-beads/Images/BlackBeadChoiceCorrect.png","","","","","","","","","","","","","","","","","","","","","","","",""
"image-keyboard-response","181","717770","0.0-4.0-6.0-1.0-0.34","6102c81e911700cf7ba5f6bd","63690f60c96a0a9a64b48fbc","63691cba88e99d92f4094ea2","732","","f","","","","","","","","./tasks/HMM-beads/Images/NewTrialBC.png","highH","34","2","2","1","1","false","","","","","","","","","","","","","","","","",""
"image-keyboard-response","182","718087","0.0-4.0-6.0-1.0-1.34","6102c81e911700cf7ba5f6bd","63690f60c96a0a9a64b48fbc","63691cba88e99d92f4094ea2","null","","null","","","","","","","","./tasks/HMM-beads/Images/BlackBeadChoice.png","","","","","","","","","","","","","","","","","","","","","","","",""
"image-keyboard-response","183","718604","0.0-4.0-6.0-1.0-2.34","6102c81e911700cf7ba5f6bd","63690f60c96a0a9a64b48fbc","63691cba88e99d92f4094ea2","null","","null","","","","","","","","./tasks/HMM-beads/Images/BlackBeadChoiceWrong.png","","","","","","","","","","","","","","","","","","","","","","","",""
"image-keyboard-response","184","719380","0.0-4.0-6.0-1.0-0.35","6102c81e911700cf7ba5f6bd","63690f60c96a0a9a64b48fbc","63691cba88e99d92f4094ea2","773","","j","","","","","","","","./tasks/HMM-beads/Images/NewTrialWC.png","highH","35","1","1","2","2","false","","","","","","","","","","","","","","","","",""
"image-keyboard-response","185","719706","0.0-4.0-6.0-1.0-1.35","6102c81e911700cf7ba5f6bd","63690f60c96a0a9a64b48fbc","63691cba88e99d92f4094ea2","null","","null","","","","","","","","./tasks/HMM-beads/Images/WhiteBeadChoice.png","","","","","","","","","","","","","","","","","","","","","","","",""
"image-keyboard-response","186","720209","0.0-4.0-6.0-1.0-2.35","6102c81e911700cf7ba5f6bd","63690f60c96a0a9a64b48fbc","63691cba88e99d92f4094ea2","null","","null","","","","","","","","./tasks/HMM-beads/Images/WhiteBeadChoiceWrong.png","","","","","","","","","","","","","","","","","","","","","","","",""
"image-keyboard-response","187","722906","0.0-4.0-6.0-1.0-0.36","6102c81e911700cf7ba5f6bd","63690f60c96a0a9a64b48fbc","63691cba88e99d92f4094ea2","2695","","j","","","","","","","","./tasks/HMM-beads/Images/NewTrialBC.png","highH","36","2","1","1","2","false","","","","","","","","","","","","","","","","",""
"image-keyboard-response","188","723225","0.0-4.0-6.0-1.0-1.36","6102c81e911700cf7ba5f6bd","63690f60c96a0a9a64b48fbc","63691cba88e99d92f4094ea2","null","","null","","","","","","","","./tasks/HMM-beads/Images/WhiteBeadChoice.png","","","","","","","","","","","","","","","","","","","","","","","",""
"image-keyboard-response","189","723744","0.0-4.0-6.0-1.0-2.36","6102c81e911700cf7ba5f6bd","63690f60c96a0a9a64b48fbc","63691cba88e99d92f4094ea2","null","","null","","","","","","","","./tasks/HMM-beads/Images/WhiteBeadChoiceWrong.png","","","","","","","","","","","","","","","","","","","","","","","",""
"image-keyboard-response","190","725161","0.0-4.0-6.0-1.0-0.37","6102c81e911700cf7ba5f6bd","63690f60c96a0a9a64b48fbc","63691cba88e99d92f4094ea2","1412","","f","","","","","","","","./tasks/HMM-beads/Images/NewTrialBC.png","highH","37","1","1","1","1","true","","","","","","","","","","","","","","","","",""
"image-keyboard-response","191","725465","0.0-4.0-6.0-1.0-1.37","6102c81e911700cf7ba5f6bd","63690f60c96a0a9a64b48fbc","63691cba88e99d92f4094ea2","null","","null","","","","","","","","./tasks/HMM-beads/Images/BlackBeadChoice.png","","","","","","","","","","","","","","","","","","","","","","","",""
"image-keyboard-response","192","725978","0.0-4.0-6.0-1.0-2.37","6102c81e911700cf7ba5f6bd","63690f60c96a0a9a64b48fbc","63691cba88e99d92f4094ea2","null","","null","","","","","","","","./tasks/HMM-beads/Images/BlackBeadChoiceCorrect.png","","","","","","","","","","","","","","","","","","","","","","","",""
"image-keyboard-response","193","726896","0.0-4.0-6.0-1.0-0.38","6102c81e911700cf7ba5f6bd","63690f60c96a0a9a64b48fbc","63691cba88e99d92f4094ea2","916","","j","","","","","","","","./tasks/HMM-beads/Images/NewTrialBC.png","highH","38","2","2","1","2","true","","","","","","","","","","","","","","","","",""
"image-keyboard-response","194","727209","0.0-4.0-6.0-1.0-1.38","6102c81e911700cf7ba5f6bd","63690f60c96a0a9a64b48fbc","63691cba88e99d92f4094ea2","null","","null","","","","","","","","./tasks/HMM-beads/Images/WhiteBeadChoice.png","","","","","","","","","","","","","","","","","","","","","","","",""
"image-keyboard-response","195","727725","0.0-4.0-6.0-1.0-2.38","6102c81e911700cf7ba5f6bd","63690f60c96a0a9a64b48fbc","63691cba88e99d92f4094ea2","null","","null","","","","","","","","./tasks/HMM-beads/Images/WhiteBeadChoiceCorrect.png","","","","","","","","","","","","","","","","","","","","","","","",""
"image-keyboard-response","196","728921","0.0-4.0-6.0-1.0-0.39","6102c81e911700cf7ba5f6bd","63690f60c96a0a9a64b48fbc","63691cba88e99d92f4094ea2","1181","","f","","","","","","","","./tasks/HMM-beads/Images/NewTrialWC.png","highH","39","1","1","2","1","true","","","","","","","","","","","","","","","","",""
"image-keyboard-response","197","729233","0.0-4.0-6.0-1.0-1.39","6102c81e911700cf7ba5f6bd","63690f60c96a0a9a64b48fbc","63691cba88e99d92f4094ea2","null","","null","","","","","","","","./tasks/HMM-beads/Images/BlackBeadChoice.png","","","","","","","","","","","","","","","","","","","","","","","",""
"image-keyboard-response","198","729750","0.0-4.0-6.0-1.0-2.39","6102c81e911700cf7ba5f6bd","63690f60c96a0a9a64b48fbc","63691cba88e99d92f4094ea2","null","","null","","","","","","","","./tasks/HMM-beads/Images/BlackBeadChoiceCorrect.png","","","","","","","","","","","","","","","","","","","","","","","",""
"image-keyboard-response","199","730618","0.0-4.0-6.0-1.0-0.40","6102c81e911700cf7ba5f6bd","63690f60c96a0a9a64b48fbc","63691cba88e99d92f4094ea2","864","","j","","","","","","","","./tasks/HMM-beads/Images/NewTrialBC.png","highH","40","2","2","1","2","true","","","","","","","","","","","","","","","","",""
"image-keyboard-response","200","730969","0.0-4.0-6.0-1.0-1.40","6102c81e911700cf7ba5f6bd","63690f60c96a0a9a64b48fbc","63691cba88e99d92f4094ea2","null","","null","","","","","","","","./tasks/HMM-beads/Images/WhiteBeadChoice.png","","","","","","","","","","","","","","","","","","","","","","","",""
"image-keyboard-response","201","731490","0.0-4.0-6.0-1.0-2.40","6102c81e911700cf7ba5f6bd","63690f60c96a0a9a64b48fbc","63691cba88e99d92f4094ea2","null","","null","","","","","","","","./tasks/HMM-beads/Images/WhiteBeadChoiceCorrect.png","","","","","","","","","","","","","","","","","","","","","","","",""
"image-keyboard-response","202","732450","0.0-4.0-6.0-1.0-0.41","6102c81e911700cf7ba5f6bd","63690f60c96a0a9a64b48fbc","63691cba88e99d92f4094ea2","958","","f","","","","","","","","./tasks/HMM-beads/Images/NewTrialWC.png","highH","41","1","2","2","1","false","","","","","","","","","","","","","","","","",""
"image-keyboard-response","203","732766","0.0-4.0-6.0-1.0-1.41","6102c81e911700cf7ba5f6bd","63690f60c96a0a9a64b48fbc","63691cba88e99d92f4094ea2","null","","null","","","","","","","","./tasks/HMM-beads/Images/BlackBeadChoice.png","","","","","","","","","","","","","","","","","","","","","","","",""
"image-keyboard-response","204","733282","0.0-4.0-6.0-1.0-2.41","6102c81e911700cf7ba5f6bd","63690f60c96a0a9a64b48fbc","63691cba88e99d92f4094ea2","null","","null","","","","","","","","./tasks/HMM-beads/Images/BlackBeadChoiceWrong.png","","","","","","","","","","","","","","","","","","","","","","","",""
"image-keyboard-response","205","733809","0.0-4.0-6.0-1.0-0.42","6102c81e911700cf7ba5f6bd","63690f60c96a0a9a64b48fbc","63691cba88e99d92f4094ea2","524","","j","","","","","","","","./tasks/HMM-beads/Images/NewTrialWC.png","highH","42","2","2","2","2","true","","","","","","","","","","","","","","","","",""
"image-keyboard-response","206","734111","0.0-4.0-6.0-1.0-1.42","6102c81e911700cf7ba5f6bd","63690f60c96a0a9a64b48fbc","63691cba88e99d92f4094ea2","null","","null","","","","","","","","./tasks/HMM-beads/Images/WhiteBeadChoice.png","","","","","","","","","","","","","","","","","","","","","","","",""
"image-keyboard-response","207","734690","0.0-4.0-6.0-1.0-2.42","6102c81e911700cf7ba5f6bd","63690f60c96a0a9a64b48fbc","63691cba88e99d92f4094ea2","null","","null","","","","","","","","./tasks/HMM-beads/Images/WhiteBeadChoiceCorrect.png","","","","","","","","","","","","","","","","","","","","","","","",""
"image-keyboard-response","208","735096","0.0-4.0-6.0-1.0-0.43","6102c81e911700cf7ba5f6bd","63690f60c96a0a9a64b48fbc","63691cba88e99d92f4094ea2","401","","f","","","","","","","","./tasks/HMM-beads/Images/NewTrialWC.png","highH","43","1","1","2","1","true","","","","","","","","","","","","","","","","",""
"image-keyboard-response","209","735407","0.0-4.0-6.0-1.0-1.43","6102c81e911700cf7ba5f6bd","63690f60c96a0a9a64b48fbc","63691cba88e99d92f4094ea2","null","","null","","","","","","","","./tasks/HMM-beads/Images/BlackBeadChoice.png","","","","","","","","","","","","","","","","","","","","","","","",""
"image-keyboard-response","210","735921","0.0-4.0-6.0-1.0-2.43","6102c81e911700cf7ba5f6bd","63690f60c96a0a9a64b48fbc","63691cba88e99d92f4094ea2","null","","null","","","","","","","","./tasks/HMM-beads/Images/BlackBeadChoiceCorrect.png","","","","","","","","","","","","","","","","","","","","","","","",""
"image-keyboard-response","211","736763","0.0-4.0-6.0-1.0-0.44","6102c81e911700cf7ba5f6bd","63690f60c96a0a9a64b48fbc","63691cba88e99d92f4094ea2","837","","j","","","","","","","","./tasks/HMM-beads/Images/NewTrialBC.png","highH","44","2","1","1","2","false","","","","","","","","","","","","","","","","",""
"image-keyboard-response","212","737090","0.0-4.0-6.0-1.0-1.44","6102c81e911700cf7ba5f6bd","63690f60c96a0a9a64b48fbc","63691cba88e99d92f4094ea2","null","","null","","","","","","","","./tasks/HMM-beads/Images/WhiteBeadChoice.png","","","","","","","","","","","","","","","","","","","","","","","",""
"image-keyboard-response","213","737621","0.0-4.0-6.0-1.0-2.44","6102c81e911700cf7ba5f6bd","63690f60c96a0a9a64b48fbc","63691cba88e99d92f4094ea2","null","","null","","","","","","","","./tasks/HMM-beads/Images/WhiteBeadChoiceWrong.png","","","","","","","","","","","","","","","","","","","","","","","",""
"image-keyboard-response","214","738120","0.0-4.0-6.0-1.0-0.45","6102c81e911700cf7ba5f6bd","63690f60c96a0a9a64b48fbc","63691cba88e99d92f4094ea2","491","","f","","","","","","","","./tasks/HMM-beads/Images/NewTrialBC.png","highH","45","1","1","1","1","true","","","","","","","","","","","","","","","","",""
"image-keyboard-response","215","738447","0.0-4.0-6.0-1.0-1.45","6102c81e911700cf7ba5f6bd","63690f60c96a0a9a64b48fbc","63691cba88e99d92f4094ea2","null","","null","","","","","","","","./tasks/HMM-beads/Images/BlackBeadChoice.png","","","","","","","","","","","","","","","","","","","","","","","",""
"image-keyboard-response","216","738963","0.0-4.0-6.0-1.0-2.45","6102c81e911700cf7ba5f6bd","63690f60c96a0a9a64b48fbc","63691cba88e99d92f4094ea2","null","","null","","","","","","","","./tasks/HMM-beads/Images/BlackBeadChoiceCorrect.png","","","","","","","","","","","","","","","","","","","","","","","",""
"image-keyboard-response","217","739347","0.0-4.0-6.0-1.0-0.46","6102c81e911700cf7ba5f6bd","63690f60c96a0a9a64b48fbc","63691cba88e99d92f4094ea2","381","","j","","","","","","","","./tasks/HMM-beads/Images/NewTrialBC.png","highH","46","2","2","1","2","true","","","","","","","","","","","","","","","","",""
"image-keyboard-response","218","739689","0.0-4.0-6.0-1.0-1.46","6102c81e911700cf7ba5f6bd","63690f60c96a0a9a64b48fbc","63691cba88e99d92f4094ea2","null","","null","","","","","","","","./tasks/HMM-beads/Images/WhiteBeadChoice.png","","","","","","","","","","","","","","","","","","","","","","","",""
"image-keyboard-response","219","740197","0.0-4.0-6.0-1.0-2.46","6102c81e911700cf7ba5f6bd","63690f60c96a0a9a64b48fbc","63691cba88e99d92f4094ea2","null","","null","","","","","","","","./tasks/HMM-beads/Images/WhiteBeadChoiceCorrect.png","","","","","","","","","","","","","","","","","","","","","","","",""
"image-keyboard-response","220","740778","0.0-4.0-6.0-1.0-0.47","6102c81e911700cf7ba5f6bd","63690f60c96a0a9a64b48fbc","63691cba88e99d92f4094ea2","578","","f","","","","","","","","./tasks/HMM-beads/Images/NewTrialWC.png","highH","47","1","1","2","1","true","","","","","","","","","","","","","","","","",""
"image-keyboard-response","221","741087","0.0-4.0-6.0-1.0-1.47","6102c81e911700cf7ba5f6bd","63690f60c96a0a9a64b48fbc","63691cba88e99d92f4094ea2","null","","null","","","","","","","","./tasks/HMM-beads/Images/BlackBeadChoice.png","","","","","","","","","","","","","","","","","","","","","","","",""
"image-keyboard-response","222","741601","0.0-4.0-6.0-1.0-2.47","6102c81e911700cf7ba5f6bd","63690f60c96a0a9a64b48fbc","63691cba88e99d92f4094ea2","null","","null","","","","","","","","./tasks/HMM-beads/Images/BlackBeadChoiceCorrect.png","","","","","","","","","","","","","","","","","","","","","","","",""
"image-keyboard-response","223","742138","0.0-4.0-6.0-1.0-0.48","6102c81e911700cf7ba5f6bd","63690f60c96a0a9a64b48fbc","63691cba88e99d92f4094ea2","533","","f","","","","","","","","./tasks/HMM-beads/Images/NewTrialBC.png","highH","48","2","2","1","1","false","","","","","","","","","","","","","","","","",""
"image-keyboard-response","224","742443","0.0-4.0-6.0-1.0-1.48","6102c81e911700cf7ba5f6bd","63690f60c96a0a9a64b48fbc","63691cba88e99d92f4094ea2","null","","null","","","","","","","","./tasks/HMM-beads/Images/BlackBeadChoice.png","","","","","","","","","","","","","","","","","","","","","","","",""
"image-keyboard-response","225","743003","0.0-4.0-6.0-1.0-2.48","6102c81e911700cf7ba5f6bd","63690f60c96a0a9a64b48fbc","63691cba88e99d92f4094ea2","null","","null","","","","","","","","./tasks/HMM-beads/Images/BlackBeadChoiceWrong.png","","","","","","","","","","","","","","","","","","","","","","","",""
"image-keyboard-response","226","743090","0.0-4.0-6.0-1.0-0.49","6102c81e911700cf7ba5f6bd","63690f60c96a0a9a64b48fbc","63691cba88e99d92f4094ea2","85","","j","","","","","","","","./tasks/HMM-beads/Images/NewTrialWC.png","highH","49","1","1","2","2","false","","","","","","","","","","","","","","","","",""
"image-keyboard-response","227","743402","0.0-4.0-6.0-1.0-1.49","6102c81e911700cf7ba5f6bd","63690f60c96a0a9a64b48fbc","63691cba88e99d92f4094ea2","null","","null","","","","","","","","./tasks/HMM-beads/Images/WhiteBeadChoice.png","","","","","","","","","","","","","","","","","","","","","","","",""
"image-keyboard-response","228","743919","0.0-4.0-6.0-1.0-2.49","6102c81e911700cf7ba5f6bd","63690f60c96a0a9a64b48fbc","63691cba88e99d92f4094ea2","null","","null","","","","","","","","./tasks/HMM-beads/Images/WhiteBeadChoiceWrong.png","","","","","","","","","","","","","","","","","","","","","","","",""
"image-keyboard-response","229","744096","0.0-4.0-6.0-1.0-0.50","6102c81e911700cf7ba5f6bd","63690f60c96a0a9a64b48fbc","63691cba88e99d92f4094ea2","175","","f","","","","","","","","./tasks/HMM-beads/Images/NewTrialBC.png","highH","50","2","1","1","1","true","","","","","","","","","","","","","","","","",""
"image-keyboard-response","230","744405","0.0-4.0-6.0-1.0-1.50","6102c81e911700cf7ba5f6bd","63690f60c96a0a9a64b48fbc","63691cba88e99d92f4094ea2","null","","null","","","","","","","","./tasks/HMM-beads/Images/BlackBeadChoice.png","","","","","","","","","","","","","","","","","","","","","","","",""
"image-keyboard-response","231","744916","0.0-4.0-6.0-1.0-2.50","6102c81e911700cf7ba5f6bd","63690f60c96a0a9a64b48fbc","63691cba88e99d92f4094ea2","null","","null","","","","","","","","./tasks/HMM-beads/Images/BlackBeadChoiceCorrect.png","","","","","","","","","","","","","","","","","","","","","","","",""
"image-keyboard-response","232","745227","0.0-4.0-6.0-1.0-0.51","6102c81e911700cf7ba5f6bd","63690f60c96a0a9a64b48fbc","63691cba88e99d92f4094ea2","308","","j","","","","","","","","./tasks/HMM-beads/Images/NewTrialBC.png","highH","51","1","1","1","2","false","","","","","","","","","","","","","","","","",""
"image-keyboard-response","233","745567","0.0-4.0-6.0-1.0-1.51","6102c81e911700cf7ba5f6bd","63690f60c96a0a9a64b48fbc","63691cba88e99d92f4094ea2","null","","null","","","","","","","","./tasks/HMM-beads/Images/WhiteBeadChoice.png","","","","","","","","","","","","","","","","","","","","","","","",""
"image-keyboard-response","234","746074","0.0-4.0-6.0-1.0-2.51","6102c81e911700cf7ba5f6bd","63690f60c96a0a9a64b48fbc","63691cba88e99d92f4094ea2","null","","null","","","","","","","","./tasks/HMM-beads/Images/WhiteBeadChoiceWrong.png","","","","","","","","","","","","","","","","","","","","","","","",""
"image-keyboard-response","235","747514","0.0-4.0-6.0-1.0-0.52","6102c81e911700cf7ba5f6bd","63690f60c96a0a9a64b48fbc","63691cba88e99d92f4094ea2","1438","","j","","","","","","","","./tasks/HMM-beads/Images/NewTrialBC.png","highH","52","2","2","1","2","true","","","","","","","","","","","","","","","","",""
"image-keyboard-response","236","747862","0.0-4.0-6.0-1.0-1.52","6102c81e911700cf7ba5f6bd","63690f60c96a0a9a64b48fbc","63691cba88e99d92f4094ea2","null","","null","","","","","","","","./tasks/HMM-beads/Images/WhiteBeadChoice.png","","","","","","","","","","","","","","","","","","","","","","","",""
"image-keyboard-response","237","748377","0.0-4.0-6.0-1.0-2.52","6102c81e911700cf7ba5f6bd","63690f60c96a0a9a64b48fbc","63691cba88e99d92f4094ea2","null","","null","","","","","","","","./tasks/HMM-beads/Images/WhiteBeadChoiceCorrect.png","","","","","","","","","","","","","","","","","","","","","","","",""
"image-keyboard-response","238","749146","0.0-4.0-6.0-1.0-0.53","6102c81e911700cf7ba5f6bd","63690f60c96a0a9a64b48fbc","63691cba88e99d92f4094ea2","766","","f","","","","","","","","./tasks/HMM-beads/Images/NewTrialWC.png","highH","53","1","1","2","1","true","","","","","","","","","","","","","","","","",""
"image-keyboard-response","239","749454","0.0-4.0-6.0-1.0-1.53","6102c81e911700cf7ba5f6bd","63690f60c96a0a9a64b48fbc","63691cba88e99d92f4094ea2","null","","null","","","","","","","","./tasks/HMM-beads/Images/BlackBeadChoice.png","","","","","","","","","","","","","","","","","","","","","","","",""
"image-keyboard-response","240","749969","0.0-4.0-6.0-1.0-2.53","6102c81e911700cf7ba5f6bd","63690f60c96a0a9a64b48fbc","63691cba88e99d92f4094ea2","null","","null","","","","","","","","./tasks/HMM-beads/Images/BlackBeadChoiceCorrect.png","","","","","","","","","","","","","","","","","","","","","","","",""
"image-keyboard-response","241","752379","0.0-4.0-6.0-1.0-0.54","6102c81e911700cf7ba5f6bd","63690f60c96a0a9a64b48fbc","63691cba88e99d92f4094ea2","2402","","j","","","","","","","","./tasks/HMM-beads/Images/NewTrialBC.png","highH","54","2","2","1","2","true","","","","","","","","","","","","","","","","",""
"image-keyboard-response","242","752723","0.0-4.0-6.0-1.0-1.54","6102c81e911700cf7ba5f6bd","63690f60c96a0a9a64b48fbc","63691cba88e99d92f4094ea2","null","","null","","","","","","","","./tasks/HMM-beads/Images/WhiteBeadChoice.png","","","","","","","","","","","","","","","","","","","","","","","",""
"image-keyboard-response","243","753238","0.0-4.0-6.0-1.0-2.54","6102c81e911700cf7ba5f6bd","63690f60c96a0a9a64b48fbc","63691cba88e99d92f4094ea2","null","","null","","","","","","","","./tasks/HMM-beads/Images/WhiteBeadChoiceCorrect.png","","","","","","","","","","","","","","","","","","","","","","","",""
"image-keyboard-response","244","753876","0.0-4.0-6.0-1.0-0.55","6102c81e911700cf7ba5f6bd","63690f60c96a0a9a64b48fbc","63691cba88e99d92f4094ea2","635","","f","","","","","","","","./tasks/HMM-beads/Images/NewTrialWC.png","highH","55","1","1","2","1","true","","","","","","","","","","","","","","","","",""
"image-keyboard-response","245","754190","0.0-4.0-6.0-1.0-1.55","6102c81e911700cf7ba5f6bd","63690f60c96a0a9a64b48fbc","63691cba88e99d92f4094ea2","null","","null","","","","","","","","./tasks/HMM-beads/Images/BlackBeadChoice.png","","","","","","","","","","","","","","","","","","","","","","","",""
"image-keyboard-response","246","754703","0.0-4.0-6.0-1.0-2.55","6102c81e911700cf7ba5f6bd","63690f60c96a0a9a64b48fbc","63691cba88e99d92f4094ea2","null","","null","","","","","","","","./tasks/HMM-beads/Images/BlackBeadChoiceCorrect.png","","","","","","","","","","","","","","","","","","","","","","","",""
"image-keyboard-response","247","755281","0.0-4.0-6.0-1.0-0.56","6102c81e911700cf7ba5f6bd","63690f60c96a0a9a64b48fbc","63691cba88e99d92f4094ea2","565","","j","","","","","","","","./tasks/HMM-beads/Images/NewTrialBC.png","highH","56","2","2","1","2","true","","","","","","","","","","","","","","","","",""
"image-keyboard-response","248","755583","0.0-4.0-6.0-1.0-1.56","6102c81e911700cf7ba5f6bd","63690f60c96a0a9a64b48fbc","63691cba88e99d92f4094ea2","null","","null","","","","","","","","./tasks/HMM-beads/Images/WhiteBeadChoice.png","","","","","","","","","","","","","","","","","","","","","","","",""
"image-keyboard-response","249","756098","0.0-4.0-6.0-1.0-2.56","6102c81e911700cf7ba5f6bd","63690f60c96a0a9a64b48fbc","63691cba88e99d92f4094ea2","null","","null","","","","","","","","./tasks/HMM-beads/Images/WhiteBeadChoiceCorrect.png","","","","","","","","","","","","","","","","","","","","","","","",""
"image-keyboard-response","250","756931","0.0-4.0-6.0-1.0-0.57","6102c81e911700cf7ba5f6bd","63690f60c96a0a9a64b48fbc","63691cba88e99d92f4094ea2","831","","f","","","","","","","","./tasks/HMM-beads/Images/NewTrialWC.png","highH","57","1","1","2","1","true","","","","","","","","","","","","","","","","",""
"image-keyboard-response","251","757246","0.0-4.0-6.0-1.0-1.57","6102c81e911700cf7ba5f6bd","63690f60c96a0a9a64b48fbc","63691cba88e99d92f4094ea2","null","","null","","","","","","","","./tasks/HMM-beads/Images/BlackBeadChoice.png","","","","","","","","","","","","","","","","","","","","","","","",""
"image-keyboard-response","252","757750","0.0-4.0-6.0-1.0-2.57","6102c81e911700cf7ba5f6bd","63690f60c96a0a9a64b48fbc","63691cba88e99d92f4094ea2","null","","null","","","","","","","","./tasks/HMM-beads/Images/BlackBeadChoiceCorrect.png","","","","","","","","","","","","","","","","","","","","","","","",""
"image-keyboard-response","253","758371","0.0-4.0-6.0-1.0-0.58","6102c81e911700cf7ba5f6bd","63690f60c96a0a9a64b48fbc","63691cba88e99d92f4094ea2","620","","j","","","","","","","","./tasks/HMM-beads/Images/NewTrialBC.png","highH","58","2","2","1","2","true","","","","","","","","","","","","","","","","",""
"image-keyboard-response","254","758682","0.0-4.0-6.0-1.0-1.58","6102c81e911700cf7ba5f6bd","63690f60c96a0a9a64b48fbc","63691cba88e99d92f4094ea2","null","","null","","","","","","","","./tasks/HMM-beads/Images/WhiteBeadChoice.png","","","","","","","","","","","","","","","","","","","","","","","",""
"image-keyboard-response","255","759235","0.0-4.0-6.0-1.0-2.58","6102c81e911700cf7ba5f6bd","63690f60c96a0a9a64b48fbc","63691cba88e99d92f4094ea2","null","","null","","","","","","","","./tasks/HMM-beads/Images/WhiteBeadChoiceCorrect.png","","","","","","","","","","","","","","","","","","","","","","","",""
"image-keyboard-response","256","759883","0.0-4.0-6.0-1.0-0.59","6102c81e911700cf7ba5f6bd","63690f60c96a0a9a64b48fbc","63691cba88e99d92f4094ea2","645","","f","","","","","","","","./tasks/HMM-beads/Images/NewTrialWC.png","highH","59","1","1","2","1","true","","","","","","","","","","","","","","","","",""
"image-keyboard-response","257","760209","0.0-4.0-6.0-1.0-1.59","6102c81e911700cf7ba5f6bd","63690f60c96a0a9a64b48fbc","63691cba88e99d92f4094ea2","null","","null","","","","","","","","./tasks/HMM-beads/Images/BlackBeadChoice.png","","","","","","","","","","","","","","","","","","","","","","","",""
"image-keyboard-response","258","760724","0.0-4.0-6.0-1.0-2.59","6102c81e911700cf7ba5f6bd","63690f60c96a0a9a64b48fbc","63691cba88e99d92f4094ea2","null","","null","","","","","","","","./tasks/HMM-beads/Images/BlackBeadChoiceCorrect.png","","","","","","","","","","","","","","","","","","","","","","","",""
"image-keyboard-response","259","761570","0.0-4.0-6.0-1.0-0.60","6102c81e911700cf7ba5f6bd","63690f60c96a0a9a64b48fbc","63691cba88e99d92f4094ea2","845","","j","","","","","","","","./tasks/HMM-beads/Images/NewTrialBC.png","highH","60","2","2","1","2","true","","","","","","","","","","","","","","","","",""
"image-keyboard-response","260","761880","0.0-4.0-6.0-1.0-1.60","6102c81e911700cf7ba5f6bd","63690f60c96a0a9a64b48fbc","63691cba88e99d92f4094ea2","null","","null","","","","","","","","./tasks/HMM-beads/Images/WhiteBeadChoice.png","","","","","","","","","","","","","","","","","","","","","","","",""
"image-keyboard-response","261","762395","0.0-4.0-6.0-1.0-2.60","6102c81e911700cf7ba5f6bd","63690f60c96a0a9a64b48fbc","63691cba88e99d92f4094ea2","null","","null","","","","","","","","./tasks/HMM-beads/Images/WhiteBeadChoiceCorrect.png","","","","","","","","","","","","","","","","","","","","","","","",""
"image-keyboard-response","262","763138","0.0-4.0-6.0-1.0-0.61","6102c81e911700cf7ba5f6bd","63690f60c96a0a9a64b48fbc","63691cba88e99d92f4094ea2","740","","f","","","","","","","","./tasks/HMM-beads/Images/NewTrialWC.png","highH","61","1","2","2","1","false","","","","","","","","","","","","","","","","",""
"image-keyboard-response","263","763445","0.0-4.0-6.0-1.0-1.61","6102c81e911700cf7ba5f6bd","63690f60c96a0a9a64b48fbc","63691cba88e99d92f4094ea2","null","","null","","","","","","","","./tasks/HMM-beads/Images/BlackBeadChoice.png","","","","","","","","","","","","","","","","","","","","","","","",""
"image-keyboard-response","264","763961","0.0-4.0-6.0-1.0-2.61","6102c81e911700cf7ba5f6bd","63690f60c96a0a9a64b48fbc","63691cba88e99d92f4094ea2","null","","null","","","","","","","","./tasks/HMM-beads/Images/BlackBeadChoiceWrong.png","","","","","","","","","","","","","","","","","","","","","","","",""
"image-keyboard-response","265","765914","0.0-4.0-6.0-1.0-0.62","6102c81e911700cf7ba5f6bd","63690f60c96a0a9a64b48fbc","63691cba88e99d92f4094ea2","1950","","j","","","","","","","","./tasks/HMM-beads/Images/NewTrialWC.png","highH","62","2","2","2","2","true","","","","","","","","","","","","","","","","",""
"image-keyboard-response","266","766223","0.0-4.0-6.0-1.0-1.62","6102c81e911700cf7ba5f6bd","63690f60c96a0a9a64b48fbc","63691cba88e99d92f4094ea2","null","","null","","","","","","","","./tasks/HMM-beads/Images/WhiteBeadChoice.png","","","","","","","","","","","","","","","","","","","","","","","",""
"image-keyboard-response","267","766728","0.0-4.0-6.0-1.0-2.62","6102c81e911700cf7ba5f6bd","63690f60c96a0a9a64b48fbc","63691cba88e99d92f4094ea2","null","","null","","","","","","","","./tasks/HMM-beads/Images/WhiteBeadChoiceCorrect.png","","","","","","","","","","","","","","","","","","","","","","","",""
"image-keyboard-response","268","767442","0.0-4.0-6.0-1.0-0.63","6102c81e911700cf7ba5f6bd","63690f60c96a0a9a64b48fbc","63691cba88e99d92f4094ea2","710","","f","","","","","","","","./tasks/HMM-beads/Images/NewTrialWC.png","highH","63","1","1","2","1","true","","","","","","","","","","","","","","","","",""
"image-keyboard-response","269","767749","0.0-4.0-6.0-1.0-1.63","6102c81e911700cf7ba5f6bd","63690f60c96a0a9a64b48fbc","63691cba88e99d92f4094ea2","null","","null","","","","","","","","./tasks/HMM-beads/Images/BlackBeadChoice.png","","","","","","","","","","","","","","","","","","","","","","","",""
"image-keyboard-response","270","768265","0.0-4.0-6.0-1.0-2.63","6102c81e911700cf7ba5f6bd","63690f60c96a0a9a64b48fbc","63691cba88e99d92f4094ea2","null","","null","","","","","","","","./tasks/HMM-beads/Images/BlackBeadChoiceCorrect.png","","","","","","","","","","","","","","","","","","","","","","","",""
"image-keyboard-response","271","769347","0.0-4.0-6.0-1.0-0.64","6102c81e911700cf7ba5f6bd","63690f60c96a0a9a64b48fbc","63691cba88e99d92f4094ea2","1078","","j","","","","","","","","./tasks/HMM-beads/Images/NewTrialBC.png","highH","64","2","2","1","2","true","","","","","","","","","","","","","","","","",""
"image-keyboard-response","272","769675","0.0-4.0-6.0-1.0-1.64","6102c81e911700cf7ba5f6bd","63690f60c96a0a9a64b48fbc","63691cba88e99d92f4094ea2","null","","null","","","","","","","","./tasks/HMM-beads/Images/WhiteBeadChoice.png","","","","","","","","","","","","","","","","","","","","","","","",""
"image-keyboard-response","273","770191","0.0-4.0-6.0-1.0-2.64","6102c81e911700cf7ba5f6bd","63690f60c96a0a9a64b48fbc","63691cba88e99d92f4094ea2","null","","null","","","","","","","","./tasks/HMM-beads/Images/WhiteBeadChoiceCorrect.png","","","","","","","","","","","","","","","","","","","","","","","",""
"image-keyboard-response","274","771026","0.0-4.0-6.0-1.0-0.65","6102c81e911700cf7ba5f6bd","63690f60c96a0a9a64b48fbc","63691cba88e99d92f4094ea2","834","","f","","","","","","","","./tasks/HMM-beads/Images/NewTrialWC.png","highH","65","1","1","2","1","true","","","","","","","","","","","","","","","","",""
"image-keyboard-response","275","771335","0.0-4.0-6.0-1.0-1.65","6102c81e911700cf7ba5f6bd","63690f60c96a0a9a64b48fbc","63691cba88e99d92f4094ea2","null","","null","","","","","","","","./tasks/HMM-beads/Images/BlackBeadChoice.png","","","","","","","","","","","","","","","","","","","","","","","",""
"image-keyboard-response","276","771850","0.0-4.0-6.0-1.0-2.65","6102c81e911700cf7ba5f6bd","63690f60c96a0a9a64b48fbc","63691cba88e99d92f4094ea2","null","","null","","","","","","","","./tasks/HMM-beads/Images/BlackBeadChoiceCorrect.png","","","","","","","","","","","","","","","","","","","","","","","",""
"image-keyboard-response","277","772443","0.0-4.0-6.0-1.0-0.66","6102c81e911700cf7ba5f6bd","63690f60c96a0a9a64b48fbc","63691cba88e99d92f4094ea2","592","","j","","","","","","","","./tasks/HMM-beads/Images/NewTrialBC.png","highH","66","2","2","1","2","true","","","","","","","","","","","","","","","","",""
"image-keyboard-response","278","772750","0.0-4.0-6.0-1.0-1.66","6102c81e911700cf7ba5f6bd","63690f60c96a0a9a64b48fbc","63691cba88e99d92f4094ea2","null","","null","","","","","","","","./tasks/HMM-beads/Images/WhiteBeadChoice.png","","","","","","","","","","","","","","","","","","","","","","","",""
"image-keyboard-response","279","773255","0.0-4.0-6.0-1.0-2.66","6102c81e911700cf7ba5f6bd","63690f60c96a0a9a64b48fbc","63691cba88e99d92f4094ea2","null","","null","","","","","","","","./tasks/HMM-beads/Images/WhiteBeadChoiceCorrect.png","","","","","","","","","","","","","","","","","","","","","","","",""
"image-keyboard-response","280","773891","0.0-4.0-6.0-1.0-0.67","6102c81e911700cf7ba5f6bd","63690f60c96a0a9a64b48fbc","63691cba88e99d92f4094ea2","633","","f","","","","","","","","./tasks/HMM-beads/Images/NewTrialWC.png","highH","67","1","1","2","1","true","","","","","","","","","","","","","","","","",""
"image-keyboard-response","281","774206","0.0-4.0-6.0-1.0-1.67","6102c81e911700cf7ba5f6bd","63690f60c96a0a9a64b48fbc","63691cba88e99d92f4094ea2","null","","null","","","","","","","","./tasks/HMM-beads/Images/BlackBeadChoice.png","","","","","","","","","","","","","","","","","","","","","","","",""
"image-keyboard-response","282","774722","0.0-4.0-6.0-1.0-2.67","6102c81e911700cf7ba5f6bd","63690f60c96a0a9a64b48fbc","63691cba88e99d92f4094ea2","null","","null","","","","","","","","./tasks/HMM-beads/Images/BlackBeadChoiceCorrect.png","","","","","","","","","","","","","","","","","","","","","","","",""
"image-keyboard-response","283","775168","0.0-4.0-6.0-1.0-0.68","6102c81e911700cf7ba5f6bd","63690f60c96a0a9a64b48fbc","63691cba88e99d92f4094ea2","442","","j","","","","","","","","./tasks/HMM-beads/Images/NewTrialBC.png","highH","68","2","2","1","2","true","","","","","","","","","","","","","","","","",""
"image-keyboard-response","284","775486","0.0-4.0-6.0-1.0-1.68","6102c81e911700cf7ba5f6bd","63690f60c96a0a9a64b48fbc","63691cba88e99d92f4094ea2","null","","null","","","","","","","","./tasks/HMM-beads/Images/WhiteBeadChoice.png","","","","","","","","","","","","","","","","","","","","","","","",""
"image-keyboard-response","285","776001","0.0-4.0-6.0-1.0-2.68","6102c81e911700cf7ba5f6bd","63690f60c96a0a9a64b48fbc","63691cba88e99d92f4094ea2","null","","null","","","","","","","","./tasks/HMM-beads/Images/WhiteBeadChoiceCorrect.png","","","","","","","","","","","","","","","","","","","","","","","",""
"image-keyboard-response","286","776710","0.0-4.0-6.0-1.0-0.69","6102c81e911700cf7ba5f6bd","63690f60c96a0a9a64b48fbc","63691cba88e99d92f4094ea2","707","","f","","","","","","","","./tasks/HMM-beads/Images/NewTrialWC.png","highH","69","1","2","2","1","false","","","","","","","","","","","","","","","","",""
"image-keyboard-response","287","777012","0.0-4.0-6.0-1.0-1.69","6102c81e911700cf7ba5f6bd","63690f60c96a0a9a64b48fbc","63691cba88e99d92f4094ea2","null","","null","","","","","","","","./tasks/HMM-beads/Images/BlackBeadChoice.png","","","","","","","","","","","","","","","","","","","","","","","",""
"image-keyboard-response","288","777520","0.0-4.0-6.0-1.0-2.69","6102c81e911700cf7ba5f6bd","63690f60c96a0a9a64b48fbc","63691cba88e99d92f4094ea2","null","","null","","","","","","","","./tasks/HMM-beads/Images/BlackBeadChoiceWrong.png","","","","","","","","","","","","","","","","","","","","","","","",""
"image-keyboard-response","289","778141","0.0-4.0-6.0-1.0-0.70","6102c81e911700cf7ba5f6bd","63690f60c96a0a9a64b48fbc","63691cba88e99d92f4094ea2","619","","j","","","","","","","","./tasks/HMM-beads/Images/NewTrialWC.png","highH","70","2","2","2","2","true","","","","","","","","","","","","","","","","",""
"image-keyboard-response","290","778451","0.0-4.0-6.0-1.0-1.70","6102c81e911700cf7ba5f6bd","63690f60c96a0a9a64b48fbc","63691cba88e99d92f4094ea2","null","","null","","","","","","","","./tasks/HMM-beads/Images/WhiteBeadChoice.png","","","","","","","","","","","","","","","","","","","","","","","",""
"image-keyboard-response","291","778953","0.0-4.0-6.0-1.0-2.70","6102c81e911700cf7ba5f6bd","63690f60c96a0a9a64b48fbc","63691cba88e99d92f4094ea2","null","","null","","","","","","","","./tasks/HMM-beads/Images/WhiteBeadChoiceCorrect.png","","","","","","","","","","","","","","","","","","","","","","","",""
"image-keyboard-response","292","779714","0.0-4.0-6.0-1.0-0.71","6102c81e911700cf7ba5f6bd","63690f60c96a0a9a64b48fbc","63691cba88e99d92f4094ea2","754","","f","","","","","","","","./tasks/HMM-beads/Images/NewTrialWC.png","highH","71","1","2","2","1","false","","","","","","","","","","","","","","","","",""
"image-keyboard-response","293","780022","0.0-4.0-6.0-1.0-1.71","6102c81e911700cf7ba5f6bd","63690f60c96a0a9a64b48fbc","63691cba88e99d92f4094ea2","null","","null","","","","","","","","./tasks/HMM-beads/Images/BlackBeadChoice.png","","","","","","","","","","","","","","","","","","","","","","","",""
"image-keyboard-response","294","780528","0.0-4.0-6.0-1.0-2.71","6102c81e911700cf7ba5f6bd","63690f60c96a0a9a64b48fbc","63691cba88e99d92f4094ea2","null","","null","","","","","","","","./tasks/HMM-beads/Images/BlackBeadChoiceWrong.png","","","","","","","","","","","","","","","","","","","","","","","",""
"image-keyboard-response","295","781008","0.0-4.0-6.0-1.0-0.72","6102c81e911700cf7ba5f6bd","63690f60c96a0a9a64b48fbc","63691cba88e99d92f4094ea2","479","","j","","","","","","","","./tasks/HMM-beads/Images/NewTrialWC.png","highH","72","2","2","2","2","true","","","","","","","","","","","","","","","","",""
"image-keyboard-response","296","781324","0.0-4.0-6.0-1.0-1.72","6102c81e911700cf7ba5f6bd","63690f60c96a0a9a64b48fbc","63691cba88e99d92f4094ea2","null","","null","","","","","","","","./tasks/HMM-beads/Images/WhiteBeadChoice.png","","","","","","","","","","","","","","","","","","","","","","","",""
"image-keyboard-response","297","781841","0.0-4.0-6.0-1.0-2.72","6102c81e911700cf7ba5f6bd","63690f60c96a0a9a64b48fbc","63691cba88e99d92f4094ea2","null","","null","","","","","","","","./tasks/HMM-beads/Images/WhiteBeadChoiceCorrect.png","","","","","","","","","","","","","","","","","","","","","","","",""
"image-keyboard-response","298","782787","0.0-4.0-6.0-1.0-0.73","6102c81e911700cf7ba5f6bd","63690f60c96a0a9a64b48fbc","63691cba88e99d92f4094ea2","944","","f","","","","","","","","./tasks/HMM-beads/Images/NewTrialWC.png","highH","73","1","1","2","1","true","","","","","","","","","","","","","","","","",""
"image-keyboard-response","299","783096","0.0-4.0-6.0-1.0-1.73","6102c81e911700cf7ba5f6bd","63690f60c96a0a9a64b48fbc","63691cba88e99d92f4094ea2","null","","null","","","","","","","","./tasks/HMM-beads/Images/BlackBeadChoice.png","","","","","","","","","","","","","","","","","","","","","","","",""
"image-keyboard-response","300","783614","0.0-4.0-6.0-1.0-2.73","6102c81e911700cf7ba5f6bd","63690f60c96a0a9a64b48fbc","63691cba88e99d92f4094ea2","null","","null","","","","","","","","./tasks/HMM-beads/Images/BlackBeadChoiceCorrect.png","","","","","","","","","","","","","","","","","","","","","","","",""
"image-keyboard-response","301","784146","0.0-4.0-6.0-1.0-0.74","6102c81e911700cf7ba5f6bd","63690f60c96a0a9a64b48fbc","63691cba88e99d92f4094ea2","528","","j","","","","","","","","./tasks/HMM-beads/Images/NewTrialBC.png","highH","74","2","2","1","2","true","","","","","","","","","","","","","","","","",""
"image-keyboard-response","302","784462","0.0-4.0-6.0-1.0-1.74","6102c81e911700cf7ba5f6bd","63690f60c96a0a9a64b48fbc","63691cba88e99d92f4094ea2","null","","null","","","","","","","","./tasks/HMM-beads/Images/WhiteBeadChoice.png","","","","","","","","","","","","","","","","","","","","","","","",""
"image-keyboard-response","303","784976","0.0-4.0-6.0-1.0-2.74","6102c81e911700cf7ba5f6bd","63690f60c96a0a9a64b48fbc","63691cba88e99d92f4094ea2","null","","null","","","","","","","","./tasks/HMM-beads/Images/WhiteBeadChoiceCorrect.png","","","","","","","","","","","","","","","","","","","","","","","",""
"image-keyboard-response","304","785569","0.0-4.0-6.0-1.0-0.75","6102c81e911700cf7ba5f6bd","63690f60c96a0a9a64b48fbc","63691cba88e99d92f4094ea2","590","","f","","","","","","","","./tasks/HMM-beads/Images/NewTrialWC.png","highH","75","1","1","2","1","true","","","","","","","","","","","","","","","","",""
"image-keyboard-response","305","785871","0.0-4.0-6.0-1.0-1.75","6102c81e911700cf7ba5f6bd","63690f60c96a0a9a64b48fbc","63691cba88e99d92f4094ea2","null","","null","","","","","","","","./tasks/HMM-beads/Images/BlackBeadChoice.png","","","","","","","","","","","","","","","","","","","","","","","",""
"image-keyboard-response","306","786376","0.0-4.0-6.0-1.0-2.75","6102c81e911700cf7ba5f6bd","63690f60c96a0a9a64b48fbc","63691cba88e99d92f4094ea2","null","","null","","","","","","","","./tasks/HMM-beads/Images/BlackBeadChoiceCorrect.png","","","","","","","","","","","","","","","","","","","","","","","",""
"image-keyboard-response","307","786845","0.0-4.0-6.0-1.0-0.76","6102c81e911700cf7ba5f6bd","63690f60c96a0a9a64b48fbc","63691cba88e99d92f4094ea2","467","","j","","","","","","","","./tasks/HMM-beads/Images/NewTrialBC.png","highH","76","2","2","1","2","true","","","","","","","","","","","","","","","","",""
"image-keyboard-response","308","787157","0.0-4.0-6.0-1.0-1.76","6102c81e911700cf7ba5f6bd","63690f60c96a0a9a64b48fbc","63691cba88e99d92f4094ea2","null","","null","","","","","","","","./tasks/HMM-beads/Images/WhiteBeadChoice.png","","","","","","","","","","","","","","","","","","","","","","","",""
"image-keyboard-response","309","787675","0.0-4.0-6.0-1.0-2.76","6102c81e911700cf7ba5f6bd","63690f60c96a0a9a64b48fbc","63691cba88e99d92f4094ea2","null","","null","","","","","","","","./tasks/HMM-beads/Images/WhiteBeadChoiceCorrect.png","","","","","","","","","","","","","","","","","","","","","","","",""
"image-keyboard-response","310","788195","0.0-4.0-6.0-1.0-0.77","6102c81e911700cf7ba5f6bd","63690f60c96a0a9a64b48fbc","63691cba88e99d92f4094ea2","517","","f","","","","","","","","./tasks/HMM-beads/Images/NewTrialWC.png","highH","77","1","1","2","1","true","","","","","","","","","","","","","","","","",""
"image-keyboard-response","311","788511","0.0-4.0-6.0-1.0-1.77","6102c81e911700cf7ba5f6bd","63690f60c96a0a9a64b48fbc","63691cba88e99d92f4094ea2","null","","null","","","","","","","","./tasks/HMM-beads/Images/BlackBeadChoice.png","","","","","","","","","","","","","","","","","","","","","","","",""
"image-keyboard-response","312","789024","0.0-4.0-6.0-1.0-2.77","6102c81e911700cf7ba5f6bd","63690f60c96a0a9a64b48fbc","63691cba88e99d92f4094ea2","null","","null","","","","","","","","./tasks/HMM-beads/Images/BlackBeadChoiceCorrect.png","","","","","","","","","","","","","","","","","","","","","","","",""
"image-keyboard-response","313","789396","0.0-4.0-6.0-1.0-0.78","6102c81e911700cf7ba5f6bd","63690f60c96a0a9a64b48fbc","63691cba88e99d92f4094ea2","369","","j","","","","","","","","./tasks/HMM-beads/Images/NewTrialBC.png","highH","78","2","2","1","2","true","","","","","","","","","","","","","","","","",""
"image-keyboard-response","314","789701","0.0-4.0-6.0-1.0-1.78","6102c81e911700cf7ba5f6bd","63690f60c96a0a9a64b48fbc","63691cba88e99d92f4094ea2","null","","null","","","","","","","","./tasks/HMM-beads/Images/WhiteBeadChoice.png","","","","","","","","","","","","","","","","","","","","","","","",""
"image-keyboard-response","315","790207","0.0-4.0-6.0-1.0-2.78","6102c81e911700cf7ba5f6bd","63690f60c96a0a9a64b48fbc","63691cba88e99d92f4094ea2","null","","null","","","","","","","","./tasks/HMM-beads/Images/WhiteBeadChoiceCorrect.png","","","","","","","","","","","","","","","","","","","","","","","",""
"image-keyboard-response","316","790628","0.0-4.0-6.0-1.0-0.79","6102c81e911700cf7ba5f6bd","63690f60c96a0a9a64b48fbc","63691cba88e99d92f4094ea2","417","","f","","","","","","","","./tasks/HMM-beads/Images/NewTrialWC.png","highH","79","1","1","2","1","true","","","","","","","","","","","","","","","","",""
"image-keyboard-response","317","790946","0.0-4.0-6.0-1.0-1.79","6102c81e911700cf7ba5f6bd","63690f60c96a0a9a64b48fbc","63691cba88e99d92f4094ea2","null","","null","","","","","","","","./tasks/HMM-beads/Images/BlackBeadChoice.png","","","","","","","","","","","","","","","","","","","","","","","",""
"image-keyboard-response","318","791455","0.0-4.0-6.0-1.0-2.79","6102c81e911700cf7ba5f6bd","63690f60c96a0a9a64b48fbc","63691cba88e99d92f4094ea2","null","","null","","","","","","","","./tasks/HMM-beads/Images/BlackBeadChoiceCorrect.png","","","","","","","","","","","","","","","","","","","","","","","",""
"image-keyboard-response","319","791977","0.0-4.0-6.0-1.0-0.80","6102c81e911700cf7ba5f6bd","63690f60c96a0a9a64b48fbc","63691cba88e99d92f4094ea2","520","","j","","","","","","","","./tasks/HMM-beads/Images/NewTrialBC.png","highH","80","2","1","1","2","false","","","","","","","","","","","","","","","","",""
"image-keyboard-response","320","792284","0.0-4.0-6.0-1.0-1.80","6102c81e911700cf7ba5f6bd","63690f60c96a0a9a64b48fbc","63691cba88e99d92f4094ea2","null","","null","","","","","","","","./tasks/HMM-beads/Images/WhiteBeadChoice.png","","","","","","","","","","","","","","","","","","","","","","","",""
"image-keyboard-response","321","792790","0.0-4.0-6.0-1.0-2.80","6102c81e911700cf7ba5f6bd","63690f60c96a0a9a64b48fbc","63691cba88e99d92f4094ea2","null","","null","","","","","","","","./tasks/HMM-beads/Images/WhiteBeadChoiceWrong.png","","","","","","","","","","","","","","","","","","","","","","","",""
