"trial_type","trial_index","time_elapsed","internal_node_id","subject_id","study_id","session_id","rt","url","response","question_order","view_history","success","timeout","failed_images","failed_audio","failed_video","stimulus","block","trial_number","jar","bead","previous_bead","choice","correct","highH_score","lowH_score","state","rewarded","state1_action","state2_visited","state1_key","state2_key","state1_rt","state2_rt","two_arm_score_block1","block_num","seq_file","trial_seq_info","two_arm_score_block2","two_arm_score_total","total_bonus"
"pavlovia","0","3517","0.0-0.0","6172b8bcb0ca871db44b71c9","63690f60c96a0a9a64b48fbd","63691fb0fb18a7cd02c46af2","","","","","","","","","","","","","","","","","","","","","","","","","","","","","","","","","","",""
"external-html","1","10958","0.0-1.0-0.0","6172b8bcb0ca871db44b71c9","63690f60c96a0a9a64b48fbd","63691fb0fb18a7cd02c46af2","7035","new_consent.html","","","","","","","","","","","","","","","","","","","","","","","","","","","","","","","","",""
"survey-multi-choice","2","14551","0.0-1.0-1.0","6172b8bcb0ca871db44b71c9","63690f60c96a0a9a64b48fbd","63691fb0fb18a7cd02c46af2","3591","","{""Q0"":""Female"",""Q1"":""White""}","[0,1]","","","","","","","","","","","","","","","","","","","","","","","","","","","","","","",""
"survey-text","3","18151","0.0-1.0-2.0","6172b8bcb0ca871db44b71c9","63690f60c96a0a9a64b48fbd","63691fb0fb18a7cd02c46af2","3596","","{""Q0"":""32""}","","","","","","","","","","","","","","","","","","","","","","","","","","","","","","","",""
"instructions","4","153358","0.0-2.0","6172b8bcb0ca871db44b71c9","63690f60c96a0a9a64b48fbd","63691fb0fb18a7cd02c46af2","135098","","","","[{""page_index"":0,""viewing_time"":133458},{""page_index"":1,""viewing_time"":1640}]","","","","","","","","","","","","","","","","","","","","","","","","","","","","","",""
"instructions","5","154838","0.0-3.0","6172b8bcb0ca871db44b71c9","63690f60c96a0a9a64b48fbd","63691fb0fb18a7cd02c46af2","1479","","","","[{""page_index"":0,""viewing_time"":1479}]","","","","","","","","","","","","","","","","","","","","","","","","","","","","","",""
"preload","6","169538","0.0-4.0-0.0","6172b8bcb0ca871db44b71c9","63690f60c96a0a9a64b48fbd","63691fb0fb18a7cd02c46af2","","","","","","true","false","[]","[]","[]","","","","","","","","","","","","","","","","","","","","","","","","",""
"instructions","7","445470","0.0-4.0-1.0","6172b8bcb0ca871db44b71c9","63690f60c96a0a9a64b48fbd","63691fb0fb18a7cd02c46af2","275930","","","","[{""page_index"":0,""viewing_time"":27482},{""page_index"":1,""viewing_time"":17783},{""page_index"":2,""viewing_time"":11593},{""page_index"":3,""viewing_time"":2664},{""page_index"":4,""viewing_time"":52066},{""page_index"":3,""viewing_time"":6102},{""page_index"":4,""viewing_time"":3345},{""page_index"":5,""viewing_time"":4615},{""page_index"":6,""viewing_time"":1279},{""page_index"":7,""viewing_time"":8322},{""page_index"":8,""viewing_time"":3408},{""page_index"":7,""viewing_time"":1160},{""page_index"":8,""viewing_time"":784},{""page_index"":9,""viewing_time"":1176},{""page_index"":8,""viewing_time"":760},{""page_index"":9,""viewing_time"":552},{""page_index"":8,""viewing_time"":384},{""page_index"":7,""viewing_time"":504},{""page_index"":8,""viewing_time"":1312},{""page_index"":9,""viewing_time"":4311},{""page_index"":8,""viewing_time"":1593},{""page_index"":9,""viewing_time"":2392},{""page_index"":8,""viewing_time"":3192},{""page_index"":9,""viewing_time"":1751},{""page_index"":8,""viewing_time"":938},{""page_index"":9,""viewing_time"":1150},{""page_index"":8,""viewing_time"":937},{""page_index"":9,""viewing_time"":888},{""page_index"":8,""viewing_time"":800},{""page_index"":9,""viewing_time"":728},{""page_index"":8,""viewing_time"":568},{""page_index"":7,""viewing_time"":1888},{""page_index"":6,""viewing_time"":88863},{""page_index"":7,""viewing_time"":3384},{""page_index"":8,""viewing_time"":4289},{""page_index"":9,""viewing_time"":1887},{""page_index"":10,""viewing_time"":1105},{""page_index"":11,""viewing_time"":6512},{""page_index"":10,""viewing_time"":2935},{""page_index"":11,""viewing_time"":528}]","","","","","","","","","","","","","","","","","","","","","","","","","","","","","",""
"html-button-response","8","448046","0.0-4.0-2.0-0.0-0.0","6172b8bcb0ca871db44b71c9","63690f60c96a0a9a64b48fbd","63691fb0fb18a7cd02c46af2","2575","","1","","","","","","","","<div align=center>Your goal is to predict…?<br><br></div>","","","","","","","","","","","","","","","","","","","","","","","",""
"html-button-response","9","453581","0.0-4.0-2.0-1.0-0.0","6172b8bcb0ca871db44b71c9","63690f60c96a0a9a64b48fbd","63691fb0fb18a7cd02c46af2","2745","","2","","","","","","","","<div align=center>In the jar with mostly white beads, there are ___% white beads and ___% black beads?<br><br></div>","","","","","","","","","","","","","","","","","","","","","","","",""
"html-button-response","10","457814","0.0-4.0-2.0-2.0-0.0","6172b8bcb0ca871db44b71c9","63690f60c96a0a9a64b48fbd","63691fb0fb18a7cd02c46af2","2658","","1","","","","","","","","<div align=center>When there is a 1% probability that the jars will switch, the next bead will most likely be drawn from the…<br><br></div>","","","","","","","","","","","","","","","","","","","","","","","",""
"html-button-response","11","463142","0.0-4.0-2.0-2.1-0.1","6172b8bcb0ca871db44b71c9","63690f60c96a0a9a64b48fbd","63691fb0fb18a7cd02c46af2","2321","","0","","","","","","","","<div align=center>When there is a 1% probability that the jars will switch, the next bead will most likely be drawn from the…<br><br></div>","","","","","","","","","","","","","","","","","","","","","","","",""
"html-button-response","12","466094","0.0-4.0-2.0-3.0-0.0","6172b8bcb0ca871db44b71c9","63690f60c96a0a9a64b48fbd","63691fb0fb18a7cd02c46af2","1843","","0","","","","","","","","<div align=center>When there is a 99% probability that the jars will switch, the next bead will most likely be drawn from the…<br><br></div>","","","","","","","","","","","","","","","","","","","","","","","",""
"html-button-response","13","467758","0.0-4.0-2.0-3.1-0.1","6172b8bcb0ca871db44b71c9","63690f60c96a0a9a64b48fbd","63691fb0fb18a7cd02c46af2","426","","1","","","","","","","","<div align=center>When there is a 99% probability that the jars will switch, the next bead will most likely be drawn from the…<br><br></div>","","","","","","","","","","","","","","","","","","","","","","","",""
"instructions","14","470302","0.0-4.0-3.0","6172b8bcb0ca871db44b71c9","63690f60c96a0a9a64b48fbd","63691fb0fb18a7cd02c46af2","1738","","","","[{""page_index"":0,""viewing_time"":1738}]","","","","","","","","","","","","","","","","","","","","","","","","","","","","","",""
"html-keyboard-response","15","472945","0.0-4.0-4.0-0.0","6172b8bcb0ca871db44b71c9","63690f60c96a0a9a64b48fbd","63691fb0fb18a7cd02c46af2","2640",""," ","","","","","","","","<div align=center>In this practice block, there will be a <b>10% chance</b> that the jar on the next trial will be different from the jar on the current trial.<br><br></div>","","","","","","","","","","","","","","","","","","","","","","","",""
"image-keyboard-response","16","477230","0.0-4.0-4.0-1.0-0.0","6172b8bcb0ca871db44b71c9","63690f60c96a0a9a64b48fbd","63691fb0fb18a7cd02c46af2","4264","","f","","","","","","","","./tasks/HMM-beads/Images/NoChoice.png","practice","0","1","1","0","1","true","","","","","","","","","","","","","","","","",""
"image-keyboard-response","17","477548","0.0-4.0-4.0-1.0-1.0","6172b8bcb0ca871db44b71c9","63690f60c96a0a9a64b48fbd","63691fb0fb18a7cd02c46af2","null","","null","","","","","","","","./tasks/HMM-beads/Images/BlackBeadChoice.png","","","","","","","","","","","","","","","","","","","","","","","",""
"image-keyboard-response","18","478076","0.0-4.0-4.0-1.0-2.0","6172b8bcb0ca871db44b71c9","63690f60c96a0a9a64b48fbd","63691fb0fb18a7cd02c46af2","null","","null","","","","","","","","./tasks/HMM-beads/Images/BlackBeadChoiceCorrect.png","","","","","","","","","","","","","","","","","","","","","","","",""
"image-keyboard-response","19","479407","0.0-4.0-4.0-1.0-0.1","6172b8bcb0ca871db44b71c9","63690f60c96a0a9a64b48fbd","63691fb0fb18a7cd02c46af2","1306","","f","","","","","","","","./tasks/HMM-beads/Images/NewTrialBC.png","practice","1","1","1","1","1","true","","","","","","","","","","","","","","","","",""
"image-keyboard-response","20","479715","0.0-4.0-4.0-1.0-1.1","6172b8bcb0ca871db44b71c9","63690f60c96a0a9a64b48fbd","63691fb0fb18a7cd02c46af2","null","","null","","","","","","","","./tasks/HMM-beads/Images/BlackBeadChoice.png","","","","","","","","","","","","","","","","","","","","","","","",""
"image-keyboard-response","21","480228","0.0-4.0-4.0-1.0-2.1","6172b8bcb0ca871db44b71c9","63690f60c96a0a9a64b48fbd","63691fb0fb18a7cd02c46af2","null","","null","","","","","","","","./tasks/HMM-beads/Images/BlackBeadChoiceCorrect.png","","","","","","","","","","","","","","","","","","","","","","","",""
"image-keyboard-response","22","480255","0.0-4.0-4.0-1.0-0.2","6172b8bcb0ca871db44b71c9","63690f60c96a0a9a64b48fbd","63691fb0fb18a7cd02c46af2","24","","f","","","","","","","","./tasks/HMM-beads/Images/NewTrialBC.png","practice","2","1","2","1","1","false","","","","","","","","","","","","","","","","",""
"image-keyboard-response","23","480567","0.0-4.0-4.0-1.0-1.2","6172b8bcb0ca871db44b71c9","63690f60c96a0a9a64b48fbd","63691fb0fb18a7cd02c46af2","null","","null","","","","","","","","./tasks/HMM-beads/Images/BlackBeadChoice.png","","","","","","","","","","","","","","","","","","","","","","","",""
"image-keyboard-response","24","481107","0.0-4.0-4.0-1.0-2.2","6172b8bcb0ca871db44b71c9","63690f60c96a0a9a64b48fbd","63691fb0fb18a7cd02c46af2","null","","null","","","","","","","","./tasks/HMM-beads/Images/BlackBeadChoiceWrong.png","","","","","","","","","","","","","","","","","","","","","","","",""
"image-keyboard-response","25","482295","0.0-4.0-4.0-1.0-0.3","6172b8bcb0ca871db44b71c9","63690f60c96a0a9a64b48fbd","63691fb0fb18a7cd02c46af2","1163","","j","","","","","","","","./tasks/HMM-beads/Images/NewTrialWC.png","practice","3","1","1","2","2","false","","","","","","","","","","","","","","","","",""
"image-keyboard-response","26","482622","0.0-4.0-4.0-1.0-1.3","6172b8bcb0ca871db44b71c9","63690f60c96a0a9a64b48fbd","63691fb0fb18a7cd02c46af2","null","","null","","","","","","","","./tasks/HMM-beads/Images/WhiteBeadChoice.png","","","","","","","","","","","","","","","","","","","","","","","",""
"image-keyboard-response","27","483158","0.0-4.0-4.0-1.0-2.3","6172b8bcb0ca871db44b71c9","63690f60c96a0a9a64b48fbd","63691fb0fb18a7cd02c46af2","null","","null","","","","","","","","./tasks/HMM-beads/Images/WhiteBeadChoiceWrong.png","","","","","","","","","","","","","","","","","","","","","","","",""
"image-keyboard-response","28","483303","0.0-4.0-4.0-1.0-0.4","6172b8bcb0ca871db44b71c9","63690f60c96a0a9a64b48fbd","63691fb0fb18a7cd02c46af2","143","","f","","","","","","","","./tasks/HMM-beads/Images/NewTrialBC.png","practice","4","1","2","1","1","false","","","","","","","","","","","","","","","","",""
"image-keyboard-response","29","483614","0.0-4.0-4.0-1.0-1.4","6172b8bcb0ca871db44b71c9","63690f60c96a0a9a64b48fbd","63691fb0fb18a7cd02c46af2","null","","null","","","","","","","","./tasks/HMM-beads/Images/BlackBeadChoice.png","","","","","","","","","","","","","","","","","","","","","","","",""
"image-keyboard-response","30","484132","0.0-4.0-4.0-1.0-2.4","6172b8bcb0ca871db44b71c9","63690f60c96a0a9a64b48fbd","63691fb0fb18a7cd02c46af2","null","","null","","","","","","","","./tasks/HMM-beads/Images/BlackBeadChoiceWrong.png","","","","","","","","","","","","","","","","","","","","","","","",""
"image-keyboard-response","31","485584","0.0-4.0-4.0-1.0-0.5","6172b8bcb0ca871db44b71c9","63690f60c96a0a9a64b48fbd","63691fb0fb18a7cd02c46af2","1450","","j","","","","","","","","./tasks/HMM-beads/Images/NewTrialWC.png","practice","5","1","1","2","2","false","","","","","","","","","","","","","","","","",""
"image-keyboard-response","32","485886","0.0-4.0-4.0-1.0-1.5","6172b8bcb0ca871db44b71c9","63690f60c96a0a9a64b48fbd","63691fb0fb18a7cd02c46af2","null","","null","","","","","","","","./tasks/HMM-beads/Images/WhiteBeadChoice.png","","","","","","","","","","","","","","","","","","","","","","","",""
"image-keyboard-response","33","486393","0.0-4.0-4.0-1.0-2.5","6172b8bcb0ca871db44b71c9","63690f60c96a0a9a64b48fbd","63691fb0fb18a7cd02c46af2","null","","null","","","","","","","","./tasks/HMM-beads/Images/WhiteBeadChoiceWrong.png","","","","","","","","","","","","","","","","","","","","","","","",""
"image-keyboard-response","34","486519","0.0-4.0-4.0-1.0-0.6","6172b8bcb0ca871db44b71c9","63690f60c96a0a9a64b48fbd","63691fb0fb18a7cd02c46af2","124","","f","","","","","","","","./tasks/HMM-beads/Images/NewTrialBC.png","practice","6","1","2","1","1","false","","","","","","","","","","","","","","","","",""
"image-keyboard-response","35","486826","0.0-4.0-4.0-1.0-1.6","6172b8bcb0ca871db44b71c9","63690f60c96a0a9a64b48fbd","63691fb0fb18a7cd02c46af2","null","","null","","","","","","","","./tasks/HMM-beads/Images/BlackBeadChoice.png","","","","","","","","","","","","","","","","","","","","","","","",""
"image-keyboard-response","36","487335","0.0-4.0-4.0-1.0-2.6","6172b8bcb0ca871db44b71c9","63690f60c96a0a9a64b48fbd","63691fb0fb18a7cd02c46af2","null","","null","","","","","","","","./tasks/HMM-beads/Images/BlackBeadChoiceWrong.png","","","","","","","","","","","","","","","","","","","","","","","",""
"image-keyboard-response","37","487343","0.0-4.0-4.0-1.0-0.7","6172b8bcb0ca871db44b71c9","63690f60c96a0a9a64b48fbd","63691fb0fb18a7cd02c46af2","6","","j","","","","","","","","./tasks/HMM-beads/Images/NewTrialWC.png","practice","7","1","1","2","2","false","","","","","","","","","","","","","","","","",""
"image-keyboard-response","38","487657","0.0-4.0-4.0-1.0-1.7","6172b8bcb0ca871db44b71c9","63690f60c96a0a9a64b48fbd","63691fb0fb18a7cd02c46af2","null","","null","","","","","","","","./tasks/HMM-beads/Images/WhiteBeadChoice.png","","","","","","","","","","","","","","","","","","","","","","","",""
"image-keyboard-response","39","488165","0.0-4.0-4.0-1.0-2.7","6172b8bcb0ca871db44b71c9","63690f60c96a0a9a64b48fbd","63691fb0fb18a7cd02c46af2","null","","null","","","","","","","","./tasks/HMM-beads/Images/WhiteBeadChoiceWrong.png","","","","","","","","","","","","","","","","","","","","","","","",""
"image-keyboard-response","40","488375","0.0-4.0-4.0-1.0-0.8","6172b8bcb0ca871db44b71c9","63690f60c96a0a9a64b48fbd","63691fb0fb18a7cd02c46af2","208","","f","","","","","","","","./tasks/HMM-beads/Images/NewTrialBC.png","practice","8","1","1","1","1","true","","","","","","","","","","","","","","","","",""
"image-keyboard-response","41","488688","0.0-4.0-4.0-1.0-1.8","6172b8bcb0ca871db44b71c9","63690f60c96a0a9a64b48fbd","63691fb0fb18a7cd02c46af2","null","","null","","","","","","","","./tasks/HMM-beads/Images/BlackBeadChoice.png","","","","","","","","","","","","","","","","","","","","","","","",""
"image-keyboard-response","42","489199","0.0-4.0-4.0-1.0-2.8","6172b8bcb0ca871db44b71c9","63690f60c96a0a9a64b48fbd","63691fb0fb18a7cd02c46af2","null","","null","","","","","","","","./tasks/HMM-beads/Images/BlackBeadChoiceCorrect.png","","","","","","","","","","","","","","","","","","","","","","","",""
"image-keyboard-response","43","489664","0.0-4.0-4.0-1.0-0.9","6172b8bcb0ca871db44b71c9","63690f60c96a0a9a64b48fbd","63691fb0fb18a7cd02c46af2","463","","j","","","","","","","","./tasks/HMM-beads/Images/NewTrialBC.png","practice","9","2","2","1","2","true","","","","","","","","","","","","","","","","",""
"image-keyboard-response","44","489976","0.0-4.0-4.0-1.0-1.9","6172b8bcb0ca871db44b71c9","63690f60c96a0a9a64b48fbd","63691fb0fb18a7cd02c46af2","null","","null","","","","","","","","./tasks/HMM-beads/Images/WhiteBeadChoice.png","","","","","","","","","","","","","","","","","","","","","","","",""
"image-keyboard-response","45","490514","0.0-4.0-4.0-1.0-2.9","6172b8bcb0ca871db44b71c9","63690f60c96a0a9a64b48fbd","63691fb0fb18a7cd02c46af2","null","","null","","","","","","","","./tasks/HMM-beads/Images/WhiteBeadChoiceCorrect.png","","","","","","","","","","","","","","","","","","","","","","","",""
"image-keyboard-response","46","490863","0.0-4.0-4.0-1.0-0.10","6172b8bcb0ca871db44b71c9","63690f60c96a0a9a64b48fbd","63691fb0fb18a7cd02c46af2","347","","j","","","","","","","","./tasks/HMM-beads/Images/NewTrialWC.png","practice","10","2","1","2","2","false","","","","","","","","","","","","","","","","",""
"image-keyboard-response","47","491176","0.0-4.0-4.0-1.0-1.10","6172b8bcb0ca871db44b71c9","63690f60c96a0a9a64b48fbd","63691fb0fb18a7cd02c46af2","null","","null","","","","","","","","./tasks/HMM-beads/Images/WhiteBeadChoice.png","","","","","","","","","","","","","","","","","","","","","","","",""
"image-keyboard-response","48","491693","0.0-4.0-4.0-1.0-2.10","6172b8bcb0ca871db44b71c9","63690f60c96a0a9a64b48fbd","63691fb0fb18a7cd02c46af2","null","","null","","","","","","","","./tasks/HMM-beads/Images/WhiteBeadChoiceWrong.png","","","","","","","","","","","","","","","","","","","","","","","",""
"image-keyboard-response","49","492408","0.0-4.0-4.0-1.0-0.11","6172b8bcb0ca871db44b71c9","63690f60c96a0a9a64b48fbd","63691fb0fb18a7cd02c46af2","710","","f","","","","","","","","./tasks/HMM-beads/Images/NewTrialBC.png","practice","11","2","2","1","1","false","","","","","","","","","","","","","","","","",""
"image-keyboard-response","50","492721","0.0-4.0-4.0-1.0-1.11","6172b8bcb0ca871db44b71c9","63690f60c96a0a9a64b48fbd","63691fb0fb18a7cd02c46af2","null","","null","","","","","","","","./tasks/HMM-beads/Images/BlackBeadChoice.png","","","","","","","","","","","","","","","","","","","","","","","",""
"image-keyboard-response","51","493233","0.0-4.0-4.0-1.0-2.11","6172b8bcb0ca871db44b71c9","63690f60c96a0a9a64b48fbd","63691fb0fb18a7cd02c46af2","null","","null","","","","","","","","./tasks/HMM-beads/Images/BlackBeadChoiceWrong.png","","","","","","","","","","","","","","","","","","","","","","","",""
"image-keyboard-response","52","493655","0.0-4.0-4.0-1.0-0.12","6172b8bcb0ca871db44b71c9","63690f60c96a0a9a64b48fbd","63691fb0fb18a7cd02c46af2","421","","j","","","","","","","","./tasks/HMM-beads/Images/NewTrialWC.png","practice","12","2","2","2","2","true","","","","","","","","","","","","","","","","",""
"image-keyboard-response","53","493971","0.0-4.0-4.0-1.0-1.12","6172b8bcb0ca871db44b71c9","63690f60c96a0a9a64b48fbd","63691fb0fb18a7cd02c46af2","null","","null","","","","","","","","./tasks/HMM-beads/Images/WhiteBeadChoice.png","","","","","","","","","","","","","","","","","","","","","","","",""
"image-keyboard-response","54","494487","0.0-4.0-4.0-1.0-2.12","6172b8bcb0ca871db44b71c9","63690f60c96a0a9a64b48fbd","63691fb0fb18a7cd02c46af2","null","","null","","","","","","","","./tasks/HMM-beads/Images/WhiteBeadChoiceCorrect.png","","","","","","","","","","","","","","","","","","","","","","","",""
"image-keyboard-response","55","494639","0.0-4.0-4.0-1.0-0.13","6172b8bcb0ca871db44b71c9","63690f60c96a0a9a64b48fbd","63691fb0fb18a7cd02c46af2","150","","j","","","","","","","","./tasks/HMM-beads/Images/NewTrialWC.png","practice","13","2","2","2","2","true","","","","","","","","","","","","","","","","",""
"image-keyboard-response","56","494945","0.0-4.0-4.0-1.0-1.13","6172b8bcb0ca871db44b71c9","63690f60c96a0a9a64b48fbd","63691fb0fb18a7cd02c46af2","null","","null","","","","","","","","./tasks/HMM-beads/Images/WhiteBeadChoice.png","","","","","","","","","","","","","","","","","","","","","","","",""
"image-keyboard-response","57","495454","0.0-4.0-4.0-1.0-2.13","6172b8bcb0ca871db44b71c9","63690f60c96a0a9a64b48fbd","63691fb0fb18a7cd02c46af2","null","","null","","","","","","","","./tasks/HMM-beads/Images/WhiteBeadChoiceCorrect.png","","","","","","","","","","","","","","","","","","","","","","","",""
"image-keyboard-response","58","495656","0.0-4.0-4.0-1.0-0.14","6172b8bcb0ca871db44b71c9","63690f60c96a0a9a64b48fbd","63691fb0fb18a7cd02c46af2","197","","j","","","","","","","","./tasks/HMM-beads/Images/NewTrialWC.png","practice","14","2","2","2","2","true","","","","","","","","","","","","","","","","",""
"image-keyboard-response","59","495962","0.0-4.0-4.0-1.0-1.14","6172b8bcb0ca871db44b71c9","63690f60c96a0a9a64b48fbd","63691fb0fb18a7cd02c46af2","null","","null","","","","","","","","./tasks/HMM-beads/Images/WhiteBeadChoice.png","","","","","","","","","","","","","","","","","","","","","","","",""
"image-keyboard-response","60","496466","0.0-4.0-4.0-1.0-2.14","6172b8bcb0ca871db44b71c9","63690f60c96a0a9a64b48fbd","63691fb0fb18a7cd02c46af2","null","","null","","","","","","","","./tasks/HMM-beads/Images/WhiteBeadChoiceCorrect.png","","","","","","","","","","","","","","","","","","","","","","","",""
"image-keyboard-response","61","496520","0.0-4.0-4.0-1.0-0.15","6172b8bcb0ca871db44b71c9","63690f60c96a0a9a64b48fbd","63691fb0fb18a7cd02c46af2","52","","j","","","","","","","","./tasks/HMM-beads/Images/NewTrialWC.png","practice","15","1","1","2","2","false","","","","","","","","","","","","","","","","",""
"image-keyboard-response","62","496827","0.0-4.0-4.0-1.0-1.15","6172b8bcb0ca871db44b71c9","63690f60c96a0a9a64b48fbd","63691fb0fb18a7cd02c46af2","null","","null","","","","","","","","./tasks/HMM-beads/Images/WhiteBeadChoice.png","","","","","","","","","","","","","","","","","","","","","","","",""
"image-keyboard-response","63","497337","0.0-4.0-4.0-1.0-2.15","6172b8bcb0ca871db44b71c9","63690f60c96a0a9a64b48fbd","63691fb0fb18a7cd02c46af2","null","","null","","","","","","","","./tasks/HMM-beads/Images/WhiteBeadChoiceWrong.png","","","","","","","","","","","","","","","","","","","","","","","",""
"image-keyboard-response","64","498391","0.0-4.0-4.0-1.0-0.16","6172b8bcb0ca871db44b71c9","63690f60c96a0a9a64b48fbd","63691fb0fb18a7cd02c46af2","1052","","f","","","","","","","","./tasks/HMM-beads/Images/NewTrialBC.png","practice","16","1","2","1","1","false","","","","","","","","","","","","","","","","",""
"image-keyboard-response","65","498706","0.0-4.0-4.0-1.0-1.16","6172b8bcb0ca871db44b71c9","63690f60c96a0a9a64b48fbd","63691fb0fb18a7cd02c46af2","null","","null","","","","","","","","./tasks/HMM-beads/Images/BlackBeadChoice.png","","","","","","","","","","","","","","","","","","","","","","","",""
"image-keyboard-response","66","499224","0.0-4.0-4.0-1.0-2.16","6172b8bcb0ca871db44b71c9","63690f60c96a0a9a64b48fbd","63691fb0fb18a7cd02c46af2","null","","null","","","","","","","","./tasks/HMM-beads/Images/BlackBeadChoiceWrong.png","","","","","","","","","","","","","","","","","","","","","","","",""
"image-keyboard-response","67","500073","0.0-4.0-4.0-1.0-0.17","6172b8bcb0ca871db44b71c9","63690f60c96a0a9a64b48fbd","63691fb0fb18a7cd02c46af2","845","","j","","","","","","","","./tasks/HMM-beads/Images/NewTrialWC.png","practice","17","1","1","2","2","false","","","","","","","","","","","","","","","","",""
"image-keyboard-response","68","500393","0.0-4.0-4.0-1.0-1.17","6172b8bcb0ca871db44b71c9","63690f60c96a0a9a64b48fbd","63691fb0fb18a7cd02c46af2","null","","null","","","","","","","","./tasks/HMM-beads/Images/WhiteBeadChoice.png","","","","","","","","","","","","","","","","","","","","","","","",""
"image-keyboard-response","69","500900","0.0-4.0-4.0-1.0-2.17","6172b8bcb0ca871db44b71c9","63690f60c96a0a9a64b48fbd","63691fb0fb18a7cd02c46af2","null","","null","","","","","","","","./tasks/HMM-beads/Images/WhiteBeadChoiceWrong.png","","","","","","","","","","","","","","","","","","","","","","","",""
"image-keyboard-response","70","500968","0.0-4.0-4.0-1.0-0.18","6172b8bcb0ca871db44b71c9","63690f60c96a0a9a64b48fbd","63691fb0fb18a7cd02c46af2","64","","f","","","","","","","","./tasks/HMM-beads/Images/NewTrialBC.png","practice","18","1","1","1","1","true","","","","","","","","","","","","","","","","",""
"image-keyboard-response","71","501271","0.0-4.0-4.0-1.0-1.18","6172b8bcb0ca871db44b71c9","63690f60c96a0a9a64b48fbd","63691fb0fb18a7cd02c46af2","null","","null","","","","","","","","./tasks/HMM-beads/Images/BlackBeadChoice.png","","","","","","","","","","","","","","","","","","","","","","","",""
"image-keyboard-response","72","501775","0.0-4.0-4.0-1.0-2.18","6172b8bcb0ca871db44b71c9","63690f60c96a0a9a64b48fbd","63691fb0fb18a7cd02c46af2","null","","null","","","","","","","","./tasks/HMM-beads/Images/BlackBeadChoiceCorrect.png","","","","","","","","","","","","","","","","","","","","","","","",""
"image-keyboard-response","73","501864","0.0-4.0-4.0-1.0-0.19","6172b8bcb0ca871db44b71c9","63690f60c96a0a9a64b48fbd","63691fb0fb18a7cd02c46af2","85","","f","","","","","","","","./tasks/HMM-beads/Images/NewTrialBC.png","practice","19","1","1","1","1","true","","","","","","","","","","","","","","","","",""
"image-keyboard-response","74","502173","0.0-4.0-4.0-1.0-1.19","6172b8bcb0ca871db44b71c9","63690f60c96a0a9a64b48fbd","63691fb0fb18a7cd02c46af2","null","","null","","","","","","","","./tasks/HMM-beads/Images/BlackBeadChoice.png","","","","","","","","","","","","","","","","","","","","","","","",""
"image-keyboard-response","75","502687","0.0-4.0-4.0-1.0-2.19","6172b8bcb0ca871db44b71c9","63690f60c96a0a9a64b48fbd","63691fb0fb18a7cd02c46af2","null","","null","","","","","","","","./tasks/HMM-beads/Images/BlackBeadChoiceCorrect.png","","","","","","","","","","","","","","","","","","","","","","","",""
"html-keyboard-response","76","519312","0.0-4.0-4.0-2.0","6172b8bcb0ca871db44b71c9","63690f60c96a0a9a64b48fbd","63691fb0fb18a7cd02c46af2","16622",""," ","","","","","","","","","","","","","","","","","","","","","","","","","","","","","","","",""
"instructions","77","530534","0.0-4.0-5.0","6172b8bcb0ca871db44b71c9","63690f60c96a0a9a64b48fbd","63691fb0fb18a7cd02c46af2","11220","","","","[{""page_index"":0,""viewing_time"":7452},{""page_index"":1,""viewing_time"":3768}]","","","","","","","","","","","","","","","","","","","","","","","","","","","","","",""
"html-keyboard-response","78","532111","0.0-4.0-6.0-0.0","6172b8bcb0ca871db44b71c9","63690f60c96a0a9a64b48fbd","63691fb0fb18a7cd02c46af2","1575",""," ","","","","","","","","<div align=center>In this block, there will be a <b>99%</b> chance that the jar on the next trial will be different from the jar on the current trial.<br><br></div>","","","","","","","","","","","","","","","","","","","","","","","",""
"image-keyboard-response","79","534607","0.0-4.0-6.0-1.0-0.0","6172b8bcb0ca871db44b71c9","63690f60c96a0a9a64b48fbd","63691fb0fb18a7cd02c46af2","2492","","f","","","","","","","","./tasks/HMM-beads/Images/NoChoice.png","highH","0","1","1","0","1","true","","","","","","","","","","","","","","","","",""
"image-keyboard-response","80","534920","0.0-4.0-6.0-1.0-1.0","6172b8bcb0ca871db44b71c9","63690f60c96a0a9a64b48fbd","63691fb0fb18a7cd02c46af2","null","","null","","","","","","","","./tasks/HMM-beads/Images/BlackBeadChoice.png","","","","","","","","","","","","","","","","","","","","","","","",""
"image-keyboard-response","81","535435","0.0-4.0-6.0-1.0-2.0","6172b8bcb0ca871db44b71c9","63690f60c96a0a9a64b48fbd","63691fb0fb18a7cd02c46af2","null","","null","","","","","","","","./tasks/HMM-beads/Images/BlackBeadChoiceCorrect.png","","","","","","","","","","","","","","","","","","","","","","","",""
"image-keyboard-response","82","535624","0.0-4.0-6.0-1.0-0.1","6172b8bcb0ca871db44b71c9","63690f60c96a0a9a64b48fbd","63691fb0fb18a7cd02c46af2","185","","f","","","","","","","","./tasks/HMM-beads/Images/NewTrialBC.png","highH","1","2","2","1","1","false","","","","","","","","","","","","","","","","",""
"image-keyboard-response","83","535926","0.0-4.0-6.0-1.0-1.1","6172b8bcb0ca871db44b71c9","63690f60c96a0a9a64b48fbd","63691fb0fb18a7cd02c46af2","null","","null","","","","","","","","./tasks/HMM-beads/Images/BlackBeadChoice.png","","","","","","","","","","","","","","","","","","","","","","","",""
"image-keyboard-response","84","536432","0.0-4.0-6.0-1.0-2.1","6172b8bcb0ca871db44b71c9","63690f60c96a0a9a64b48fbd","63691fb0fb18a7cd02c46af2","null","","null","","","","","","","","./tasks/HMM-beads/Images/BlackBeadChoiceWrong.png","","","","","","","","","","","","","","","","","","","","","","","",""
"image-keyboard-response","85","537736","0.0-4.0-6.0-1.0-0.2","6172b8bcb0ca871db44b71c9","63690f60c96a0a9a64b48fbd","63691fb0fb18a7cd02c46af2","1301","","j","","","","","","","","./tasks/HMM-beads/Images/NewTrialWC.png","highH","2","1","1","2","2","false","","","","","","","","","","","","","","","","",""
"image-keyboard-response","86","538038","0.0-4.0-6.0-1.0-1.2","6172b8bcb0ca871db44b71c9","63690f60c96a0a9a64b48fbd","63691fb0fb18a7cd02c46af2","null","","null","","","","","","","","./tasks/HMM-beads/Images/WhiteBeadChoice.png","","","","","","","","","","","","","","","","","","","","","","","",""
"image-keyboard-response","87","538548","0.0-4.0-6.0-1.0-2.2","6172b8bcb0ca871db44b71c9","63690f60c96a0a9a64b48fbd","63691fb0fb18a7cd02c46af2","null","","null","","","","","","","","./tasks/HMM-beads/Images/WhiteBeadChoiceWrong.png","","","","","","","","","","","","","","","","","","","","","","","",""
"image-keyboard-response","88","538591","0.0-4.0-6.0-1.0-0.3","6172b8bcb0ca871db44b71c9","63690f60c96a0a9a64b48fbd","63691fb0fb18a7cd02c46af2","42","","f","","","","","","","","./tasks/HMM-beads/Images/NewTrialBC.png","highH","3","2","2","1","1","false","","","","","","","","","","","","","","","","",""
"image-keyboard-response","89","538895","0.0-4.0-6.0-1.0-1.3","6172b8bcb0ca871db44b71c9","63690f60c96a0a9a64b48fbd","63691fb0fb18a7cd02c46af2","null","","null","","","","","","","","./tasks/HMM-beads/Images/BlackBeadChoice.png","","","","","","","","","","","","","","","","","","","","","","","",""
"image-keyboard-response","90","539397","0.0-4.0-6.0-1.0-2.3","6172b8bcb0ca871db44b71c9","63690f60c96a0a9a64b48fbd","63691fb0fb18a7cd02c46af2","null","","null","","","","","","","","./tasks/HMM-beads/Images/BlackBeadChoiceWrong.png","","","","","","","","","","","","","","","","","","","","","","","",""
"image-keyboard-response","91","539943","0.0-4.0-6.0-1.0-0.4","6172b8bcb0ca871db44b71c9","63690f60c96a0a9a64b48fbd","63691fb0fb18a7cd02c46af2","546","","j","","","","","","","","./tasks/HMM-beads/Images/NewTrialWC.png","highH","4","1","1","2","2","false","","","","","","","","","","","","","","","","",""
"image-keyboard-response","92","540258","0.0-4.0-6.0-1.0-1.4","6172b8bcb0ca871db44b71c9","63690f60c96a0a9a64b48fbd","63691fb0fb18a7cd02c46af2","null","","null","","","","","","","","./tasks/HMM-beads/Images/WhiteBeadChoice.png","","","","","","","","","","","","","","","","","","","","","","","",""
"image-keyboard-response","93","540765","0.0-4.0-6.0-1.0-2.4","6172b8bcb0ca871db44b71c9","63690f60c96a0a9a64b48fbd","63691fb0fb18a7cd02c46af2","null","","null","","","","","","","","./tasks/HMM-beads/Images/WhiteBeadChoiceWrong.png","","","","","","","","","","","","","","","","","","","","","","","",""
"image-keyboard-response","94","540769","0.0-4.0-6.0-1.0-0.5","6172b8bcb0ca871db44b71c9","63690f60c96a0a9a64b48fbd","63691fb0fb18a7cd02c46af2","2","","f","","","","","","","","./tasks/HMM-beads/Images/NewTrialBC.png","highH","5","2","2","1","1","false","","","","","","","","","","","","","","","","",""
"image-keyboard-response","95","541084","0.0-4.0-6.0-1.0-1.5","6172b8bcb0ca871db44b71c9","63690f60c96a0a9a64b48fbd","63691fb0fb18a7cd02c46af2","null","","null","","","","","","","","./tasks/HMM-beads/Images/BlackBeadChoice.png","","","","","","","","","","","","","","","","","","","","","","","",""
"image-keyboard-response","96","541588","0.0-4.0-6.0-1.0-2.5","6172b8bcb0ca871db44b71c9","63690f60c96a0a9a64b48fbd","63691fb0fb18a7cd02c46af2","null","","null","","","","","","","","./tasks/HMM-beads/Images/BlackBeadChoiceWrong.png","","","","","","","","","","","","","","","","","","","","","","","",""
"image-keyboard-response","97","541663","0.0-4.0-6.0-1.0-0.6","6172b8bcb0ca871db44b71c9","63690f60c96a0a9a64b48fbd","63691fb0fb18a7cd02c46af2","73","","j","","","","","","","","./tasks/HMM-beads/Images/NewTrialWC.png","highH","6","1","1","2","2","false","","","","","","","","","","","","","","","","",""
"image-keyboard-response","98","541979","0.0-4.0-6.0-1.0-1.6","6172b8bcb0ca871db44b71c9","63690f60c96a0a9a64b48fbd","63691fb0fb18a7cd02c46af2","null","","null","","","","","","","","./tasks/HMM-beads/Images/WhiteBeadChoice.png","","","","","","","","","","","","","","","","","","","","","","","",""
"image-keyboard-response","99","542494","0.0-4.0-6.0-1.0-2.6","6172b8bcb0ca871db44b71c9","63690f60c96a0a9a64b48fbd","63691fb0fb18a7cd02c46af2","null","","null","","","","","","","","./tasks/HMM-beads/Images/WhiteBeadChoiceWrong.png","","","","","","","","","","","","","","","","","","","","","","","",""
"image-keyboard-response","100","543615","0.0-4.0-6.0-1.0-0.7","6172b8bcb0ca871db44b71c9","63690f60c96a0a9a64b48fbd","63691fb0fb18a7cd02c46af2","1120","","f","","","","","","","","./tasks/HMM-beads/Images/NewTrialBC.png","highH","7","2","1","1","1","true","","","","","","","","","","","","","","","","",""
"image-keyboard-response","101","543919","0.0-4.0-6.0-1.0-1.7","6172b8bcb0ca871db44b71c9","63690f60c96a0a9a64b48fbd","63691fb0fb18a7cd02c46af2","null","","null","","","","","","","","./tasks/HMM-beads/Images/BlackBeadChoice.png","","","","","","","","","","","","","","","","","","","","","","","",""
"image-keyboard-response","102","544433","0.0-4.0-6.0-1.0-2.7","6172b8bcb0ca871db44b71c9","63690f60c96a0a9a64b48fbd","63691fb0fb18a7cd02c46af2","null","","null","","","","","","","","./tasks/HMM-beads/Images/BlackBeadChoiceCorrect.png","","","","","","","","","","","","","","","","","","","","","","","",""
"image-keyboard-response","103","547920","0.0-4.0-6.0-1.0-0.8","6172b8bcb0ca871db44b71c9","63690f60c96a0a9a64b48fbd","63691fb0fb18a7cd02c46af2","3485","","j","","","","","","","","./tasks/HMM-beads/Images/NewTrialBC.png","highH","8","1","1","1","2","false","","","","","","","","","","","","","","","","",""
"image-keyboard-response","104","548237","0.0-4.0-6.0-1.0-1.8","6172b8bcb0ca871db44b71c9","63690f60c96a0a9a64b48fbd","63691fb0fb18a7cd02c46af2","null","","null","","","","","","","","./tasks/HMM-beads/Images/WhiteBeadChoice.png","","","","","","","","","","","","","","","","","","","","","","","",""
"image-keyboard-response","105","548746","0.0-4.0-6.0-1.0-2.8","6172b8bcb0ca871db44b71c9","63690f60c96a0a9a64b48fbd","63691fb0fb18a7cd02c46af2","null","","null","","","","","","","","./tasks/HMM-beads/Images/WhiteBeadChoiceWrong.png","","","","","","","","","","","","","","","","","","","","","","","",""
"image-keyboard-response","106","549631","0.0-4.0-6.0-1.0-0.9","6172b8bcb0ca871db44b71c9","63690f60c96a0a9a64b48fbd","63691fb0fb18a7cd02c46af2","884","","j","","","","","","","","./tasks/HMM-beads/Images/NewTrialBC.png","highH","9","2","2","1","2","true","","","","","","","","","","","","","","","","",""
"image-keyboard-response","107","549933","0.0-4.0-6.0-1.0-1.9","6172b8bcb0ca871db44b71c9","63690f60c96a0a9a64b48fbd","63691fb0fb18a7cd02c46af2","null","","null","","","","","","","","./tasks/HMM-beads/Images/WhiteBeadChoice.png","","","","","","","","","","","","","","","","","","","","","","","",""
"image-keyboard-response","108","550448","0.0-4.0-6.0-1.0-2.9","6172b8bcb0ca871db44b71c9","63690f60c96a0a9a64b48fbd","63691fb0fb18a7cd02c46af2","null","","null","","","","","","","","./tasks/HMM-beads/Images/WhiteBeadChoiceCorrect.png","","","","","","","","","","","","","","","","","","","","","","","",""
"image-keyboard-response","109","551729","0.0-4.0-6.0-1.0-0.10","6172b8bcb0ca871db44b71c9","63690f60c96a0a9a64b48fbd","63691fb0fb18a7cd02c46af2","1278","","j","","","","","","","","./tasks/HMM-beads/Images/NewTrialWC.png","highH","10","1","1","2","2","false","","","","","","","","","","","","","","","","",""
"image-keyboard-response","110","552045","0.0-4.0-6.0-1.0-1.10","6172b8bcb0ca871db44b71c9","63690f60c96a0a9a64b48fbd","63691fb0fb18a7cd02c46af2","null","","null","","","","","","","","./tasks/HMM-beads/Images/WhiteBeadChoice.png","","","","","","","","","","","","","","","","","","","","","","","",""
"image-keyboard-response","111","552550","0.0-4.0-6.0-1.0-2.10","6172b8bcb0ca871db44b71c9","63690f60c96a0a9a64b48fbd","63691fb0fb18a7cd02c46af2","null","","null","","","","","","","","./tasks/HMM-beads/Images/WhiteBeadChoiceWrong.png","","","","","","","","","","","","","","","","","","","","","","","",""
"image-keyboard-response","112","553136","0.0-4.0-6.0-1.0-0.11","6172b8bcb0ca871db44b71c9","63690f60c96a0a9a64b48fbd","63691fb0fb18a7cd02c46af2","583","","f","","","","","","","","./tasks/HMM-beads/Images/NewTrialBC.png","highH","11","2","2","1","1","false","","","","","","","","","","","","","","","","",""
"image-keyboard-response","113","553450","0.0-4.0-6.0-1.0-1.11","6172b8bcb0ca871db44b71c9","63690f60c96a0a9a64b48fbd","63691fb0fb18a7cd02c46af2","null","","null","","","","","","","","./tasks/HMM-beads/Images/BlackBeadChoice.png","","","","","","","","","","","","","","","","","","","","","","","",""
"image-keyboard-response","114","553964","0.0-4.0-6.0-1.0-2.11","6172b8bcb0ca871db44b71c9","63690f60c96a0a9a64b48fbd","63691fb0fb18a7cd02c46af2","null","","null","","","","","","","","./tasks/HMM-beads/Images/BlackBeadChoiceWrong.png","","","","","","","","","","","","","","","","","","","","","","","",""
"image-keyboard-response","115","554871","0.0-4.0-6.0-1.0-0.12","6172b8bcb0ca871db44b71c9","63690f60c96a0a9a64b48fbd","63691fb0fb18a7cd02c46af2","905","","j","","","","","","","","./tasks/HMM-beads/Images/NewTrialWC.png","highH","12","1","1","2","2","false","","","","","","","","","","","","","","","","",""
"image-keyboard-response","116","555175","0.0-4.0-6.0-1.0-1.12","6172b8bcb0ca871db44b71c9","63690f60c96a0a9a64b48fbd","63691fb0fb18a7cd02c46af2","null","","null","","","","","","","","./tasks/HMM-beads/Images/WhiteBeadChoice.png","","","","","","","","","","","","","","","","","","","","","","","",""
"image-keyboard-response","117","555680","0.0-4.0-6.0-1.0-2.12","6172b8bcb0ca871db44b71c9","63690f60c96a0a9a64b48fbd","63691fb0fb18a7cd02c46af2","null","","null","","","","","","","","./tasks/HMM-beads/Images/WhiteBeadChoiceWrong.png","","","","","","","","","","","","","","","","","","","","","","","",""
"image-keyboard-response","118","556063","0.0-4.0-6.0-1.0-0.13","6172b8bcb0ca871db44b71c9","63690f60c96a0a9a64b48fbd","63691fb0fb18a7cd02c46af2","379","","f","","","","","","","","./tasks/HMM-beads/Images/NewTrialBC.png","highH","13","2","1","1","1","true","","","","","","","","","","","","","","","","",""
"image-keyboard-response","119","556383","0.0-4.0-6.0-1.0-1.13","6172b8bcb0ca871db44b71c9","63690f60c96a0a9a64b48fbd","63691fb0fb18a7cd02c46af2","null","","null","","","","","","","","./tasks/HMM-beads/Images/BlackBeadChoice.png","","","","","","","","","","","","","","","","","","","","","","","",""
"image-keyboard-response","120","556894","0.0-4.0-6.0-1.0-2.13","6172b8bcb0ca871db44b71c9","63690f60c96a0a9a64b48fbd","63691fb0fb18a7cd02c46af2","null","","null","","","","","","","","./tasks/HMM-beads/Images/BlackBeadChoiceCorrect.png","","","","","","","","","","","","","","","","","","","","","","","",""
"image-keyboard-response","121","557313","0.0-4.0-6.0-1.0-0.14","6172b8bcb0ca871db44b71c9","63690f60c96a0a9a64b48fbd","63691fb0fb18a7cd02c46af2","415","","f","","","","","","","","./tasks/HMM-beads/Images/NewTrialBC.png","highH","14","1","2","1","1","false","","","","","","","","","","","","","","","","",""
"image-keyboard-response","122","557625","0.0-4.0-6.0-1.0-1.14","6172b8bcb0ca871db44b71c9","63690f60c96a0a9a64b48fbd","63691fb0fb18a7cd02c46af2","null","","null","","","","","","","","./tasks/HMM-beads/Images/BlackBeadChoice.png","","","","","","","","","","","","","","","","","","","","","","","",""
"image-keyboard-response","123","558141","0.0-4.0-6.0-1.0-2.14","6172b8bcb0ca871db44b71c9","63690f60c96a0a9a64b48fbd","63691fb0fb18a7cd02c46af2","null","","null","","","","","","","","./tasks/HMM-beads/Images/BlackBeadChoiceWrong.png","","","","","","","","","","","","","","","","","","","","","","","",""
"image-keyboard-response","124","558392","0.0-4.0-6.0-1.0-0.15","6172b8bcb0ca871db44b71c9","63690f60c96a0a9a64b48fbd","63691fb0fb18a7cd02c46af2","248","","j","","","","","","","","./tasks/HMM-beads/Images/NewTrialWC.png","highH","15","2","2","2","2","true","","","","","","","","","","","","","","","","",""
"image-keyboard-response","125","558698","0.0-4.0-6.0-1.0-1.15","6172b8bcb0ca871db44b71c9","63690f60c96a0a9a64b48fbd","63691fb0fb18a7cd02c46af2","null","","null","","","","","","","","./tasks/HMM-beads/Images/WhiteBeadChoice.png","","","","","","","","","","","","","","","","","","","","","","","",""
"image-keyboard-response","126","559216","0.0-4.0-6.0-1.0-2.15","6172b8bcb0ca871db44b71c9","63690f60c96a0a9a64b48fbd","63691fb0fb18a7cd02c46af2","null","","null","","","","","","","","./tasks/HMM-beads/Images/WhiteBeadChoiceCorrect.png","","","","","","","","","","","","","","","","","","","","","","","",""
"image-keyboard-response","127","559511","0.0-4.0-6.0-1.0-0.16","6172b8bcb0ca871db44b71c9","63690f60c96a0a9a64b48fbd","63691fb0fb18a7cd02c46af2","294","","j","","","","","","","","./tasks/HMM-beads/Images/NewTrialWC.png","highH","16","1","1","2","2","false","","","","","","","","","","","","","","","","",""
"image-keyboard-response","128","559816","0.0-4.0-6.0-1.0-1.16","6172b8bcb0ca871db44b71c9","63690f60c96a0a9a64b48fbd","63691fb0fb18a7cd02c46af2","null","","null","","","","","","","","./tasks/HMM-beads/Images/WhiteBeadChoice.png","","","","","","","","","","","","","","","","","","","","","","","",""
"image-keyboard-response","129","560330","0.0-4.0-6.0-1.0-2.16","6172b8bcb0ca871db44b71c9","63690f60c96a0a9a64b48fbd","63691fb0fb18a7cd02c46af2","null","","null","","","","","","","","./tasks/HMM-beads/Images/WhiteBeadChoiceWrong.png","","","","","","","","","","","","","","","","","","","","","","","",""
"image-keyboard-response","130","560535","0.0-4.0-6.0-1.0-0.17","6172b8bcb0ca871db44b71c9","63690f60c96a0a9a64b48fbd","63691fb0fb18a7cd02c46af2","201","","f","","","","","","","","./tasks/HMM-beads/Images/NewTrialBC.png","highH","17","2","2","1","1","false","","","","","","","","","","","","","","","","",""
"image-keyboard-response","131","560847","0.0-4.0-6.0-1.0-1.17","6172b8bcb0ca871db44b71c9","63690f60c96a0a9a64b48fbd","63691fb0fb18a7cd02c46af2","null","","null","","","","","","","","./tasks/HMM-beads/Images/BlackBeadChoice.png","","","","","","","","","","","","","","","","","","","","","","","",""
"image-keyboard-response","132","561361","0.0-4.0-6.0-1.0-2.17","6172b8bcb0ca871db44b71c9","63690f60c96a0a9a64b48fbd","63691fb0fb18a7cd02c46af2","null","","null","","","","","","","","./tasks/HMM-beads/Images/BlackBeadChoiceWrong.png","","","","","","","","","","","","","","","","","","","","","","","",""
"image-keyboard-response","133","561472","0.0-4.0-6.0-1.0-0.18","6172b8bcb0ca871db44b71c9","63690f60c96a0a9a64b48fbd","63691fb0fb18a7cd02c46af2","108","","j","","","","","","","","./tasks/HMM-beads/Images/NewTrialWC.png","highH","18","1","2","2","2","true","","","","","","","","","","","","","","","","",""
"image-keyboard-response","134","561782","0.0-4.0-6.0-1.0-1.18","6172b8bcb0ca871db44b71c9","63690f60c96a0a9a64b48fbd","63691fb0fb18a7cd02c46af2","null","","null","","","","","","","","./tasks/HMM-beads/Images/WhiteBeadChoice.png","","","","","","","","","","","","","","","","","","","","","","","",""
"image-keyboard-response","135","562287","0.0-4.0-6.0-1.0-2.18","6172b8bcb0ca871db44b71c9","63690f60c96a0a9a64b48fbd","63691fb0fb18a7cd02c46af2","null","","null","","","","","","","","./tasks/HMM-beads/Images/WhiteBeadChoiceCorrect.png","","","","","","","","","","","","","","","","","","","","","","","",""
"image-keyboard-response","136","562496","0.0-4.0-6.0-1.0-0.19","6172b8bcb0ca871db44b71c9","63690f60c96a0a9a64b48fbd","63691fb0fb18a7cd02c46af2","206","","j","","","","","","","","./tasks/HMM-beads/Images/NewTrialWC.png","highH","19","2","2","2","2","true","","","","","","","","","","","","","","","","",""
"image-keyboard-response","137","562802","0.0-4.0-6.0-1.0-1.19","6172b8bcb0ca871db44b71c9","63690f60c96a0a9a64b48fbd","63691fb0fb18a7cd02c46af2","null","","null","","","","","","","","./tasks/HMM-beads/Images/WhiteBeadChoice.png","","","","","","","","","","","","","","","","","","","","","","","",""
"image-keyboard-response","138","563320","0.0-4.0-6.0-1.0-2.19","6172b8bcb0ca871db44b71c9","63690f60c96a0a9a64b48fbd","63691fb0fb18a7cd02c46af2","null","","null","","","","","","","","./tasks/HMM-beads/Images/WhiteBeadChoiceCorrect.png","","","","","","","","","","","","","","","","","","","","","","","",""
"image-keyboard-response","139","563560","0.0-4.0-6.0-1.0-0.20","6172b8bcb0ca871db44b71c9","63690f60c96a0a9a64b48fbd","63691fb0fb18a7cd02c46af2","236","","j","","","","","","","","./tasks/HMM-beads/Images/NewTrialWC.png","highH","20","1","1","2","2","false","","","","","","","","","","","","","","","","",""
"image-keyboard-response","140","563867","0.0-4.0-6.0-1.0-1.20","6172b8bcb0ca871db44b71c9","63690f60c96a0a9a64b48fbd","63691fb0fb18a7cd02c46af2","null","","null","","","","","","","","./tasks/HMM-beads/Images/WhiteBeadChoice.png","","","","","","","","","","","","","","","","","","","","","","","",""
"image-keyboard-response","141","564370","0.0-4.0-6.0-1.0-2.20","6172b8bcb0ca871db44b71c9","63690f60c96a0a9a64b48fbd","63691fb0fb18a7cd02c46af2","null","","null","","","","","","","","./tasks/HMM-beads/Images/WhiteBeadChoiceWrong.png","","","","","","","","","","","","","","","","","","","","","","","",""
"image-keyboard-response","142","564648","0.0-4.0-6.0-1.0-0.21","6172b8bcb0ca871db44b71c9","63690f60c96a0a9a64b48fbd","63691fb0fb18a7cd02c46af2","273","","f","","","","","","","","./tasks/HMM-beads/Images/NewTrialBC.png","highH","21","2","1","1","1","true","","","","","","","","","","","","","","","","",""
"image-keyboard-response","143","564966","0.0-4.0-6.0-1.0-1.21","6172b8bcb0ca871db44b71c9","63690f60c96a0a9a64b48fbd","63691fb0fb18a7cd02c46af2","null","","null","","","","","","","","./tasks/HMM-beads/Images/BlackBeadChoice.png","","","","","","","","","","","","","","","","","","","","","","","",""
"image-keyboard-response","144","565485","0.0-4.0-6.0-1.0-2.21","6172b8bcb0ca871db44b71c9","63690f60c96a0a9a64b48fbd","63691fb0fb18a7cd02c46af2","null","","null","","","","","","","","./tasks/HMM-beads/Images/BlackBeadChoiceCorrect.png","","","","","","","","","","","","","","","","","","","","","","","",""
"image-keyboard-response","145","565720","0.0-4.0-6.0-1.0-0.22","6172b8bcb0ca871db44b71c9","63690f60c96a0a9a64b48fbd","63691fb0fb18a7cd02c46af2","232","","f","","","","","","","","./tasks/HMM-beads/Images/NewTrialBC.png","highH","22","1","1","1","1","true","","","","","","","","","","","","","","","","",""
"image-keyboard-response","146","566026","0.0-4.0-6.0-1.0-1.22","6172b8bcb0ca871db44b71c9","63690f60c96a0a9a64b48fbd","63691fb0fb18a7cd02c46af2","null","","null","","","","","","","","./tasks/HMM-beads/Images/BlackBeadChoice.png","","","","","","","","","","","","","","","","","","","","","","","",""
"image-keyboard-response","147","566540","0.0-4.0-6.0-1.0-2.22","6172b8bcb0ca871db44b71c9","63690f60c96a0a9a64b48fbd","63691fb0fb18a7cd02c46af2","null","","null","","","","","","","","./tasks/HMM-beads/Images/BlackBeadChoiceCorrect.png","","","","","","","","","","","","","","","","","","","","","","","",""
"image-keyboard-response","148","566856","0.0-4.0-6.0-1.0-0.23","6172b8bcb0ca871db44b71c9","63690f60c96a0a9a64b48fbd","63691fb0fb18a7cd02c46af2","313","","f","","","","","","","","./tasks/HMM-beads/Images/NewTrialBC.png","highH","23","2","2","1","1","false","","","","","","","","","","","","","","","","",""
"image-keyboard-response","149","567160","0.0-4.0-6.0-1.0-1.23","6172b8bcb0ca871db44b71c9","63690f60c96a0a9a64b48fbd","63691fb0fb18a7cd02c46af2","null","","null","","","","","","","","./tasks/HMM-beads/Images/BlackBeadChoice.png","","","","","","","","","","","","","","","","","","","","","","","",""
"image-keyboard-response","150","567669","0.0-4.0-6.0-1.0-2.23","6172b8bcb0ca871db44b71c9","63690f60c96a0a9a64b48fbd","63691fb0fb18a7cd02c46af2","null","","null","","","","","","","","./tasks/HMM-beads/Images/BlackBeadChoiceWrong.png","","","","","","","","","","","","","","","","","","","","","","","",""
"image-keyboard-response","151","567928","0.0-4.0-6.0-1.0-0.24","6172b8bcb0ca871db44b71c9","63690f60c96a0a9a64b48fbd","63691fb0fb18a7cd02c46af2","257","","j","","","","","","","","./tasks/HMM-beads/Images/NewTrialWC.png","highH","24","1","1","2","2","false","","","","","","","","","","","","","","","","",""
"image-keyboard-response","152","568233","0.0-4.0-6.0-1.0-1.24","6172b8bcb0ca871db44b71c9","63690f60c96a0a9a64b48fbd","63691fb0fb18a7cd02c46af2","null","","null","","","","","","","","./tasks/HMM-beads/Images/WhiteBeadChoice.png","","","","","","","","","","","","","","","","","","","","","","","",""
"image-keyboard-response","153","568738","0.0-4.0-6.0-1.0-2.24","6172b8bcb0ca871db44b71c9","63690f60c96a0a9a64b48fbd","63691fb0fb18a7cd02c46af2","null","","null","","","","","","","","./tasks/HMM-beads/Images/WhiteBeadChoiceWrong.png","","","","","","","","","","","","","","","","","","","","","","","",""
"image-keyboard-response","154","569000","0.0-4.0-6.0-1.0-0.25","6172b8bcb0ca871db44b71c9","63690f60c96a0a9a64b48fbd","63691fb0fb18a7cd02c46af2","257","","f","","","","","","","","./tasks/HMM-beads/Images/NewTrialBC.png","highH","25","2","1","1","1","true","","","","","","","","","","","","","","","","",""
"image-keyboard-response","155","569306","0.0-4.0-6.0-1.0-1.25","6172b8bcb0ca871db44b71c9","63690f60c96a0a9a64b48fbd","63691fb0fb18a7cd02c46af2","null","","null","","","","","","","","./tasks/HMM-beads/Images/BlackBeadChoice.png","","","","","","","","","","","","","","","","","","","","","","","",""
"image-keyboard-response","156","569813","0.0-4.0-6.0-1.0-2.25","6172b8bcb0ca871db44b71c9","63690f60c96a0a9a64b48fbd","63691fb0fb18a7cd02c46af2","null","","null","","","","","","","","./tasks/HMM-beads/Images/BlackBeadChoiceCorrect.png","","","","","","","","","","","","","","","","","","","","","","","",""
"image-keyboard-response","157","570376","0.0-4.0-6.0-1.0-0.26","6172b8bcb0ca871db44b71c9","63690f60c96a0a9a64b48fbd","63691fb0fb18a7cd02c46af2","560","","f","","","","","","","","./tasks/HMM-beads/Images/NewTrialBC.png","highH","26","1","1","1","1","true","","","","","","","","","","","","","","","","",""
"image-keyboard-response","158","570689","0.0-4.0-6.0-1.0-1.26","6172b8bcb0ca871db44b71c9","63690f60c96a0a9a64b48fbd","63691fb0fb18a7cd02c46af2","null","","null","","","","","","","","./tasks/HMM-beads/Images/BlackBeadChoice.png","","","","","","","","","","","","","","","","","","","","","","","",""
"image-keyboard-response","159","571192","0.0-4.0-6.0-1.0-2.26","6172b8bcb0ca871db44b71c9","63690f60c96a0a9a64b48fbd","63691fb0fb18a7cd02c46af2","null","","null","","","","","","","","./tasks/HMM-beads/Images/BlackBeadChoiceCorrect.png","","","","","","","","","","","","","","","","","","","","","","","",""
"image-keyboard-response","160","571480","0.0-4.0-6.0-1.0-0.27","6172b8bcb0ca871db44b71c9","63690f60c96a0a9a64b48fbd","63691fb0fb18a7cd02c46af2","283","","f","","","","","","","","./tasks/HMM-beads/Images/NewTrialBC.png","highH","27","2","2","1","1","false","","","","","","","","","","","","","","","","",""
"image-keyboard-response","161","571786","0.0-4.0-6.0-1.0-1.27","6172b8bcb0ca871db44b71c9","63690f60c96a0a9a64b48fbd","63691fb0fb18a7cd02c46af2","null","","null","","","","","","","","./tasks/HMM-beads/Images/BlackBeadChoice.png","","","","","","","","","","","","","","","","","","","","","","","",""
"image-keyboard-response","162","572301","0.0-4.0-6.0-1.0-2.27","6172b8bcb0ca871db44b71c9","63690f60c96a0a9a64b48fbd","63691fb0fb18a7cd02c46af2","null","","null","","","","","","","","./tasks/HMM-beads/Images/BlackBeadChoiceWrong.png","","","","","","","","","","","","","","","","","","","","","","","",""
"image-keyboard-response","163","572568","0.0-4.0-6.0-1.0-0.28","6172b8bcb0ca871db44b71c9","63690f60c96a0a9a64b48fbd","63691fb0fb18a7cd02c46af2","263","","j","","","","","","","","./tasks/HMM-beads/Images/NewTrialWC.png","highH","28","2","1","2","2","false","","","","","","","","","","","","","","","","",""
"image-keyboard-response","164","572878","0.0-4.0-6.0-1.0-1.28","6172b8bcb0ca871db44b71c9","63690f60c96a0a9a64b48fbd","63691fb0fb18a7cd02c46af2","null","","null","","","","","","","","./tasks/HMM-beads/Images/WhiteBeadChoice.png","","","","","","","","","","","","","","","","","","","","","","","",""
"image-keyboard-response","165","573392","0.0-4.0-6.0-1.0-2.28","6172b8bcb0ca871db44b71c9","63690f60c96a0a9a64b48fbd","63691fb0fb18a7cd02c46af2","null","","null","","","","","","","","./tasks/HMM-beads/Images/WhiteBeadChoiceWrong.png","","","","","","","","","","","","","","","","","","","","","","","",""
"image-keyboard-response","166","573623","0.0-4.0-6.0-1.0-0.29","6172b8bcb0ca871db44b71c9","63690f60c96a0a9a64b48fbd","63691fb0fb18a7cd02c46af2","227","","f","","","","","","","","./tasks/HMM-beads/Images/NewTrialBC.png","highH","29","1","1","1","1","true","","","","","","","","","","","","","","","","",""
"image-keyboard-response","167","573929","0.0-4.0-6.0-1.0-1.29","6172b8bcb0ca871db44b71c9","63690f60c96a0a9a64b48fbd","63691fb0fb18a7cd02c46af2","null","","null","","","","","","","","./tasks/HMM-beads/Images/BlackBeadChoice.png","","","","","","","","","","","","","","","","","","","","","","","",""
"image-keyboard-response","168","574440","0.0-4.0-6.0-1.0-2.29","6172b8bcb0ca871db44b71c9","63690f60c96a0a9a64b48fbd","63691fb0fb18a7cd02c46af2","null","","null","","","","","","","","./tasks/HMM-beads/Images/BlackBeadChoiceCorrect.png","","","","","","","","","","","","","","","","","","","","","","","",""
"image-keyboard-response","169","574752","0.0-4.0-6.0-1.0-0.30","6172b8bcb0ca871db44b71c9","63690f60c96a0a9a64b48fbd","63691fb0fb18a7cd02c46af2","310","","f","","","","","","","","./tasks/HMM-beads/Images/NewTrialBC.png","highH","30","2","1","1","1","true","","","","","","","","","","","","","","","","",""
"image-keyboard-response","170","575068","0.0-4.0-6.0-1.0-1.30","6172b8bcb0ca871db44b71c9","63690f60c96a0a9a64b48fbd","63691fb0fb18a7cd02c46af2","null","","null","","","","","","","","./tasks/HMM-beads/Images/BlackBeadChoice.png","","","","","","","","","","","","","","","","","","","","","","","",""
"image-keyboard-response","171","575582","0.0-4.0-6.0-1.0-2.30","6172b8bcb0ca871db44b71c9","63690f60c96a0a9a64b48fbd","63691fb0fb18a7cd02c46af2","null","","null","","","","","","","","./tasks/HMM-beads/Images/BlackBeadChoiceCorrect.png","","","","","","","","","","","","","","","","","","","","","","","",""
"image-keyboard-response","172","575808","0.0-4.0-6.0-1.0-0.31","6172b8bcb0ca871db44b71c9","63690f60c96a0a9a64b48fbd","63691fb0fb18a7cd02c46af2","224","","f","","","","","","","","./tasks/HMM-beads/Images/NewTrialBC.png","highH","31","1","1","1","1","true","","","","","","","","","","","","","","","","",""
"image-keyboard-response","173","576119","0.0-4.0-6.0-1.0-1.31","6172b8bcb0ca871db44b71c9","63690f60c96a0a9a64b48fbd","63691fb0fb18a7cd02c46af2","null","","null","","","","","","","","./tasks/HMM-beads/Images/BlackBeadChoice.png","","","","","","","","","","","","","","","","","","","","","","","",""
"image-keyboard-response","174","576636","0.0-4.0-6.0-1.0-2.31","6172b8bcb0ca871db44b71c9","63690f60c96a0a9a64b48fbd","63691fb0fb18a7cd02c46af2","null","","null","","","","","","","","./tasks/HMM-beads/Images/BlackBeadChoiceCorrect.png","","","","","","","","","","","","","","","","","","","","","","","",""
"image-keyboard-response","175","576930","0.0-4.0-6.0-1.0-0.32","6172b8bcb0ca871db44b71c9","63690f60c96a0a9a64b48fbd","63691fb0fb18a7cd02c46af2","289","","f","","","","","","","","./tasks/HMM-beads/Images/NewTrialBC.png","highH","32","2","2","1","1","false","","","","","","","","","","","","","","","","",""
"image-keyboard-response","176","577244","0.0-4.0-6.0-1.0-1.32","6172b8bcb0ca871db44b71c9","63690f60c96a0a9a64b48fbd","63691fb0fb18a7cd02c46af2","null","","null","","","","","","","","./tasks/HMM-beads/Images/BlackBeadChoice.png","","","","","","","","","","","","","","","","","","","","","","","",""
"image-keyboard-response","177","577754","0.0-4.0-6.0-1.0-2.32","6172b8bcb0ca871db44b71c9","63690f60c96a0a9a64b48fbd","63691fb0fb18a7cd02c46af2","null","","null","","","","","","","","./tasks/HMM-beads/Images/BlackBeadChoiceWrong.png","","","","","","","","","","","","","","","","","","","","","","","",""
"image-keyboard-response","178","578045","0.0-4.0-6.0-1.0-0.33","6172b8bcb0ca871db44b71c9","63690f60c96a0a9a64b48fbd","63691fb0fb18a7cd02c46af2","287","","j","","","","","","","","./tasks/HMM-beads/Images/NewTrialWC.png","highH","33","1","1","2","2","false","","","","","","","","","","","","","","","","",""
"image-keyboard-response","179","578350","0.0-4.0-6.0-1.0-1.33","6172b8bcb0ca871db44b71c9","63690f60c96a0a9a64b48fbd","63691fb0fb18a7cd02c46af2","null","","null","","","","","","","","./tasks/HMM-beads/Images/WhiteBeadChoice.png","","","","","","","","","","","","","","","","","","","","","","","",""
"image-keyboard-response","180","578857","0.0-4.0-6.0-1.0-2.33","6172b8bcb0ca871db44b71c9","63690f60c96a0a9a64b48fbd","63691fb0fb18a7cd02c46af2","null","","null","","","","","","","","./tasks/HMM-beads/Images/WhiteBeadChoiceWrong.png","","","","","","","","","","","","","","","","","","","","","","","",""
"image-keyboard-response","181","579087","0.0-4.0-6.0-1.0-0.34","6172b8bcb0ca871db44b71c9","63690f60c96a0a9a64b48fbd","63691fb0fb18a7cd02c46af2","228","","f","","","","","","","","./tasks/HMM-beads/Images/NewTrialBC.png","highH","34","2","2","1","1","false","","","","","","","","","","","","","","","","",""
"image-keyboard-response","182","579400","0.0-4.0-6.0-1.0-1.34","6172b8bcb0ca871db44b71c9","63690f60c96a0a9a64b48fbd","63691fb0fb18a7cd02c46af2","null","","null","","","","","","","","./tasks/HMM-beads/Images/BlackBeadChoice.png","","","","","","","","","","","","","","","","","","","","","","","",""
"image-keyboard-response","183","579904","0.0-4.0-6.0-1.0-2.34","6172b8bcb0ca871db44b71c9","63690f60c96a0a9a64b48fbd","63691fb0fb18a7cd02c46af2","null","","null","","","","","","","","./tasks/HMM-beads/Images/BlackBeadChoiceWrong.png","","","","","","","","","","","","","","","","","","","","","","","",""
"image-keyboard-response","184","580191","0.0-4.0-6.0-1.0-0.35","6172b8bcb0ca871db44b71c9","63690f60c96a0a9a64b48fbd","63691fb0fb18a7cd02c46af2","283","","j","","","","","","","","./tasks/HMM-beads/Images/NewTrialWC.png","highH","35","1","1","2","2","false","","","","","","","","","","","","","","","","",""
"image-keyboard-response","185","580505","0.0-4.0-6.0-1.0-1.35","6172b8bcb0ca871db44b71c9","63690f60c96a0a9a64b48fbd","63691fb0fb18a7cd02c46af2","null","","null","","","","","","","","./tasks/HMM-beads/Images/WhiteBeadChoice.png","","","","","","","","","","","","","","","","","","","","","","","",""
"image-keyboard-response","186","581012","0.0-4.0-6.0-1.0-2.35","6172b8bcb0ca871db44b71c9","63690f60c96a0a9a64b48fbd","63691fb0fb18a7cd02c46af2","null","","null","","","","","","","","./tasks/HMM-beads/Images/WhiteBeadChoiceWrong.png","","","","","","","","","","","","","","","","","","","","","","","",""
"image-keyboard-response","187","581263","0.0-4.0-6.0-1.0-0.36","6172b8bcb0ca871db44b71c9","63690f60c96a0a9a64b48fbd","63691fb0fb18a7cd02c46af2","247","","f","","","","","","","","./tasks/HMM-beads/Images/NewTrialBC.png","highH","36","2","1","1","1","true","","","","","","","","","","","","","","","","",""
"image-keyboard-response","188","581568","0.0-4.0-6.0-1.0-1.36","6172b8bcb0ca871db44b71c9","63690f60c96a0a9a64b48fbd","63691fb0fb18a7cd02c46af2","null","","null","","","","","","","","./tasks/HMM-beads/Images/BlackBeadChoice.png","","","","","","","","","","","","","","","","","","","","","","","",""
"image-keyboard-response","189","582073","0.0-4.0-6.0-1.0-2.36","6172b8bcb0ca871db44b71c9","63690f60c96a0a9a64b48fbd","63691fb0fb18a7cd02c46af2","null","","null","","","","","","","","./tasks/HMM-beads/Images/BlackBeadChoiceCorrect.png","","","","","","","","","","","","","","","","","","","","","","","",""
"image-keyboard-response","190","582365","0.0-4.0-6.0-1.0-0.37","6172b8bcb0ca871db44b71c9","63690f60c96a0a9a64b48fbd","63691fb0fb18a7cd02c46af2","289","","f","","","","","","","","./tasks/HMM-beads/Images/NewTrialBC.png","highH","37","1","1","1","1","true","","","","","","","","","","","","","","","","",""
"image-keyboard-response","191","582679","0.0-4.0-6.0-1.0-1.37","6172b8bcb0ca871db44b71c9","63690f60c96a0a9a64b48fbd","63691fb0fb18a7cd02c46af2","null","","null","","","","","","","","./tasks/HMM-beads/Images/BlackBeadChoice.png","","","","","","","","","","","","","","","","","","","","","","","",""
"image-keyboard-response","192","583190","0.0-4.0-6.0-1.0-2.37","6172b8bcb0ca871db44b71c9","63690f60c96a0a9a64b48fbd","63691fb0fb18a7cd02c46af2","null","","null","","","","","","","","./tasks/HMM-beads/Images/BlackBeadChoiceCorrect.png","","","","","","","","","","","","","","","","","","","","","","","",""
"image-keyboard-response","193","583495","0.0-4.0-6.0-1.0-0.38","6172b8bcb0ca871db44b71c9","63690f60c96a0a9a64b48fbd","63691fb0fb18a7cd02c46af2","302","","f","","","","","","","","./tasks/HMM-beads/Images/NewTrialBC.png","highH","38","2","2","1","1","false","","","","","","","","","","","","","","","","",""
"image-keyboard-response","194","583806","0.0-4.0-6.0-1.0-1.38","6172b8bcb0ca871db44b71c9","63690f60c96a0a9a64b48fbd","63691fb0fb18a7cd02c46af2","null","","null","","","","","","","","./tasks/HMM-beads/Images/BlackBeadChoice.png","","","","","","","","","","","","","","","","","","","","","","","",""
"image-keyboard-response","195","584318","0.0-4.0-6.0-1.0-2.38","6172b8bcb0ca871db44b71c9","63690f60c96a0a9a64b48fbd","63691fb0fb18a7cd02c46af2","null","","null","","","","","","","","./tasks/HMM-beads/Images/BlackBeadChoiceWrong.png","","","","","","","","","","","","","","","","","","","","","","","",""
"image-keyboard-response","196","584576","0.0-4.0-6.0-1.0-0.39","6172b8bcb0ca871db44b71c9","63690f60c96a0a9a64b48fbd","63691fb0fb18a7cd02c46af2","256","","j","","","","","","","","./tasks/HMM-beads/Images/NewTrialWC.png","highH","39","1","1","2","2","false","","","","","","","","","","","","","","","","",""
"image-keyboard-response","197","584891","0.0-4.0-6.0-1.0-1.39","6172b8bcb0ca871db44b71c9","63690f60c96a0a9a64b48fbd","63691fb0fb18a7cd02c46af2","null","","null","","","","","","","","./tasks/HMM-beads/Images/WhiteBeadChoice.png","","","","","","","","","","","","","","","","","","","","","","","",""
"image-keyboard-response","198","585395","0.0-4.0-6.0-1.0-2.39","6172b8bcb0ca871db44b71c9","63690f60c96a0a9a64b48fbd","63691fb0fb18a7cd02c46af2","null","","null","","","","","","","","./tasks/HMM-beads/Images/WhiteBeadChoiceWrong.png","","","","","","","","","","","","","","","","","","","","","","","",""
"image-keyboard-response","199","585576","0.0-4.0-6.0-1.0-0.40","6172b8bcb0ca871db44b71c9","63690f60c96a0a9a64b48fbd","63691fb0fb18a7cd02c46af2","179","","f","","","","","","","","./tasks/HMM-beads/Images/NewTrialBC.png","highH","40","2","2","1","1","false","","","","","","","","","","","","","","","","",""
"image-keyboard-response","200","585882","0.0-4.0-6.0-1.0-1.40","6172b8bcb0ca871db44b71c9","63690f60c96a0a9a64b48fbd","63691fb0fb18a7cd02c46af2","null","","null","","","","","","","","./tasks/HMM-beads/Images/BlackBeadChoice.png","","","","","","","","","","","","","","","","","","","","","","","",""
"image-keyboard-response","201","586398","0.0-4.0-6.0-1.0-2.40","6172b8bcb0ca871db44b71c9","63690f60c96a0a9a64b48fbd","63691fb0fb18a7cd02c46af2","null","","null","","","","","","","","./tasks/HMM-beads/Images/BlackBeadChoiceWrong.png","","","","","","","","","","","","","","","","","","","","","","","",""
"image-keyboard-response","202","586703","0.0-4.0-6.0-1.0-0.41","6172b8bcb0ca871db44b71c9","63690f60c96a0a9a64b48fbd","63691fb0fb18a7cd02c46af2","301","","j","","","","","","","","./tasks/HMM-beads/Images/NewTrialWC.png","highH","41","1","2","2","2","true","","","","","","","","","","","","","","","","",""
"image-keyboard-response","203","587022","0.0-4.0-6.0-1.0-1.41","6172b8bcb0ca871db44b71c9","63690f60c96a0a9a64b48fbd","63691fb0fb18a7cd02c46af2","null","","null","","","","","","","","./tasks/HMM-beads/Images/WhiteBeadChoice.png","","","","","","","","","","","","","","","","","","","","","","","",""
"image-keyboard-response","204","587529","0.0-4.0-6.0-1.0-2.41","6172b8bcb0ca871db44b71c9","63690f60c96a0a9a64b48fbd","63691fb0fb18a7cd02c46af2","null","","null","","","","","","","","./tasks/HMM-beads/Images/WhiteBeadChoiceCorrect.png","","","","","","","","","","","","","","","","","","","","","","","",""
"image-keyboard-response","205","587768","0.0-4.0-6.0-1.0-0.42","6172b8bcb0ca871db44b71c9","63690f60c96a0a9a64b48fbd","63691fb0fb18a7cd02c46af2","235","","j","","","","","","","","./tasks/HMM-beads/Images/NewTrialWC.png","highH","42","2","2","2","2","true","","","","","","","","","","","","","","","","",""
"image-keyboard-response","206","588070","0.0-4.0-6.0-1.0-1.42","6172b8bcb0ca871db44b71c9","63690f60c96a0a9a64b48fbd","63691fb0fb18a7cd02c46af2","null","","null","","","","","","","","./tasks/HMM-beads/Images/WhiteBeadChoice.png","","","","","","","","","","","","","","","","","","","","","","","",""
"image-keyboard-response","207","588580","0.0-4.0-6.0-1.0-2.42","6172b8bcb0ca871db44b71c9","63690f60c96a0a9a64b48fbd","63691fb0fb18a7cd02c46af2","null","","null","","","","","","","","./tasks/HMM-beads/Images/WhiteBeadChoiceCorrect.png","","","","","","","","","","","","","","","","","","","","","","","",""
"image-keyboard-response","208","589175","0.0-4.0-6.0-1.0-0.43","6172b8bcb0ca871db44b71c9","63690f60c96a0a9a64b48fbd","63691fb0fb18a7cd02c46af2","593","","j","","","","","","","","./tasks/HMM-beads/Images/NewTrialWC.png","highH","43","1","1","2","2","false","","","","","","","","","","","","","","","","",""
"image-keyboard-response","209","589488","0.0-4.0-6.0-1.0-1.43","6172b8bcb0ca871db44b71c9","63690f60c96a0a9a64b48fbd","63691fb0fb18a7cd02c46af2","null","","null","","","","","","","","./tasks/HMM-beads/Images/WhiteBeadChoice.png","","","","","","","","","","","","","","","","","","","","","","","",""
"image-keyboard-response","210","590006","0.0-4.0-6.0-1.0-2.43","6172b8bcb0ca871db44b71c9","63690f60c96a0a9a64b48fbd","63691fb0fb18a7cd02c46af2","null","","null","","","","","","","","./tasks/HMM-beads/Images/WhiteBeadChoiceWrong.png","","","","","","","","","","","","","","","","","","","","","","","",""
"image-keyboard-response","211","590144","0.0-4.0-6.0-1.0-0.44","6172b8bcb0ca871db44b71c9","63690f60c96a0a9a64b48fbd","63691fb0fb18a7cd02c46af2","133","","f","","","","","","","","./tasks/HMM-beads/Images/NewTrialBC.png","highH","44","2","1","1","1","true","","","","","","","","","","","","","","","","",""
"image-keyboard-response","212","590449","0.0-4.0-6.0-1.0-1.44","6172b8bcb0ca871db44b71c9","63690f60c96a0a9a64b48fbd","63691fb0fb18a7cd02c46af2","null","","null","","","","","","","","./tasks/HMM-beads/Images/BlackBeadChoice.png","","","","","","","","","","","","","","","","","","","","","","","",""
"image-keyboard-response","213","590968","0.0-4.0-6.0-1.0-2.44","6172b8bcb0ca871db44b71c9","63690f60c96a0a9a64b48fbd","63691fb0fb18a7cd02c46af2","null","","null","","","","","","","","./tasks/HMM-beads/Images/BlackBeadChoiceCorrect.png","","","","","","","","","","","","","","","","","","","","","","","",""
"image-keyboard-response","214","591097","0.0-4.0-6.0-1.0-0.45","6172b8bcb0ca871db44b71c9","63690f60c96a0a9a64b48fbd","63691fb0fb18a7cd02c46af2","127","","f","","","","","","","","./tasks/HMM-beads/Images/NewTrialBC.png","highH","45","1","1","1","1","true","","","","","","","","","","","","","","","","",""
"image-keyboard-response","215","591399","0.0-4.0-6.0-1.0-1.45","6172b8bcb0ca871db44b71c9","63690f60c96a0a9a64b48fbd","63691fb0fb18a7cd02c46af2","null","","null","","","","","","","","./tasks/HMM-beads/Images/BlackBeadChoice.png","","","","","","","","","","","","","","","","","","","","","","","",""
"image-keyboard-response","216","591916","0.0-4.0-6.0-1.0-2.45","6172b8bcb0ca871db44b71c9","63690f60c96a0a9a64b48fbd","63691fb0fb18a7cd02c46af2","null","","null","","","","","","","","./tasks/HMM-beads/Images/BlackBeadChoiceCorrect.png","","","","","","","","","","","","","","","","","","","","","","","",""
"image-keyboard-response","217","592103","0.0-4.0-6.0-1.0-0.46","6172b8bcb0ca871db44b71c9","63690f60c96a0a9a64b48fbd","63691fb0fb18a7cd02c46af2","185","","f","","","","","","","","./tasks/HMM-beads/Images/NewTrialBC.png","highH","46","2","2","1","1","false","","","","","","","","","","","","","","","","",""
"image-keyboard-response","218","592415","0.0-4.0-6.0-1.0-1.46","6172b8bcb0ca871db44b71c9","63690f60c96a0a9a64b48fbd","63691fb0fb18a7cd02c46af2","null","","null","","","","","","","","./tasks/HMM-beads/Images/BlackBeadChoice.png","","","","","","","","","","","","","","","","","","","","","","","",""
"image-keyboard-response","219","592922","0.0-4.0-6.0-1.0-2.46","6172b8bcb0ca871db44b71c9","63690f60c96a0a9a64b48fbd","63691fb0fb18a7cd02c46af2","null","","null","","","","","","","","./tasks/HMM-beads/Images/BlackBeadChoiceWrong.png","","","","","","","","","","","","","","","","","","","","","","","",""
"image-keyboard-response","220","593103","0.0-4.0-6.0-1.0-0.47","6172b8bcb0ca871db44b71c9","63690f60c96a0a9a64b48fbd","63691fb0fb18a7cd02c46af2","179","","j","","","","","","","","./tasks/HMM-beads/Images/NewTrialWC.png","highH","47","1","1","2","2","false","","","","","","","","","","","","","","","","",""
"image-keyboard-response","221","593414","0.0-4.0-6.0-1.0-1.47","6172b8bcb0ca871db44b71c9","63690f60c96a0a9a64b48fbd","63691fb0fb18a7cd02c46af2","null","","null","","","","","","","","./tasks/HMM-beads/Images/WhiteBeadChoice.png","","","","","","","","","","","","","","","","","","","","","","","",""
"image-keyboard-response","222","593928","0.0-4.0-6.0-1.0-2.47","6172b8bcb0ca871db44b71c9","63690f60c96a0a9a64b48fbd","63691fb0fb18a7cd02c46af2","null","","null","","","","","","","","./tasks/HMM-beads/Images/WhiteBeadChoiceWrong.png","","","","","","","","","","","","","","","","","","","","","","","",""
"image-keyboard-response","223","594063","0.0-4.0-6.0-1.0-0.48","6172b8bcb0ca871db44b71c9","63690f60c96a0a9a64b48fbd","63691fb0fb18a7cd02c46af2","133","","f","","","","","","","","./tasks/HMM-beads/Images/NewTrialBC.png","highH","48","2","2","1","1","false","","","","","","","","","","","","","","","","",""
"image-keyboard-response","224","594380","0.0-4.0-6.0-1.0-1.48","6172b8bcb0ca871db44b71c9","63690f60c96a0a9a64b48fbd","63691fb0fb18a7cd02c46af2","null","","null","","","","","","","","./tasks/HMM-beads/Images/BlackBeadChoice.png","","","","","","","","","","","","","","","","","","","","","","","",""
"image-keyboard-response","225","594898","0.0-4.0-6.0-1.0-2.48","6172b8bcb0ca871db44b71c9","63690f60c96a0a9a64b48fbd","63691fb0fb18a7cd02c46af2","null","","null","","","","","","","","./tasks/HMM-beads/Images/BlackBeadChoiceWrong.png","","","","","","","","","","","","","","","","","","","","","","","",""
"image-keyboard-response","226","594975","0.0-4.0-6.0-1.0-0.49","6172b8bcb0ca871db44b71c9","63690f60c96a0a9a64b48fbd","63691fb0fb18a7cd02c46af2","73","","j","","","","","","","","./tasks/HMM-beads/Images/NewTrialWC.png","highH","49","1","1","2","2","false","","","","","","","","","","","","","","","","",""
"image-keyboard-response","227","595287","0.0-4.0-6.0-1.0-1.49","6172b8bcb0ca871db44b71c9","63690f60c96a0a9a64b48fbd","63691fb0fb18a7cd02c46af2","null","","null","","","","","","","","./tasks/HMM-beads/Images/WhiteBeadChoice.png","","","","","","","","","","","","","","","","","","","","","","","",""
"image-keyboard-response","228","595805","0.0-4.0-6.0-1.0-2.49","6172b8bcb0ca871db44b71c9","63690f60c96a0a9a64b48fbd","63691fb0fb18a7cd02c46af2","null","","null","","","","","","","","./tasks/HMM-beads/Images/WhiteBeadChoiceWrong.png","","","","","","","","","","","","","","","","","","","","","","","",""
"image-keyboard-response","229","595951","0.0-4.0-6.0-1.0-0.50","6172b8bcb0ca871db44b71c9","63690f60c96a0a9a64b48fbd","63691fb0fb18a7cd02c46af2","145","","f","","","","","","","","./tasks/HMM-beads/Images/NewTrialBC.png","highH","50","2","1","1","1","true","","","","","","","","","","","","","","","","",""
"image-keyboard-response","230","596263","0.0-4.0-6.0-1.0-1.50","6172b8bcb0ca871db44b71c9","63690f60c96a0a9a64b48fbd","63691fb0fb18a7cd02c46af2","null","","null","","","","","","","","./tasks/HMM-beads/Images/BlackBeadChoice.png","","","","","","","","","","","","","","","","","","","","","","","",""
"image-keyboard-response","231","596777","0.0-4.0-6.0-1.0-2.50","6172b8bcb0ca871db44b71c9","63690f60c96a0a9a64b48fbd","63691fb0fb18a7cd02c46af2","null","","null","","","","","","","","./tasks/HMM-beads/Images/BlackBeadChoiceCorrect.png","","","","","","","","","","","","","","","","","","","","","","","",""
"image-keyboard-response","232","597023","0.0-4.0-6.0-1.0-0.51","6172b8bcb0ca871db44b71c9","63690f60c96a0a9a64b48fbd","63691fb0fb18a7cd02c46af2","245","","f","","","","","","","","./tasks/HMM-beads/Images/NewTrialBC.png","highH","51","1","1","1","1","true","","","","","","","","","","","","","","","","",""
"image-keyboard-response","233","597333","0.0-4.0-6.0-1.0-1.51","6172b8bcb0ca871db44b71c9","63690f60c96a0a9a64b48fbd","63691fb0fb18a7cd02c46af2","null","","null","","","","","","","","./tasks/HMM-beads/Images/BlackBeadChoice.png","","","","","","","","","","","","","","","","","","","","","","","",""
"image-keyboard-response","234","597839","0.0-4.0-6.0-1.0-2.51","6172b8bcb0ca871db44b71c9","63690f60c96a0a9a64b48fbd","63691fb0fb18a7cd02c46af2","null","","null","","","","","","","","./tasks/HMM-beads/Images/BlackBeadChoiceCorrect.png","","","","","","","","","","","","","","","","","","","","","","","",""
"image-keyboard-response","235","598015","0.0-4.0-6.0-1.0-0.52","6172b8bcb0ca871db44b71c9","63690f60c96a0a9a64b48fbd","63691fb0fb18a7cd02c46af2","172","","f","","","","","","","","./tasks/HMM-beads/Images/NewTrialBC.png","highH","52","2","2","1","1","false","","","","","","","","","","","","","","","","",""
"image-keyboard-response","236","598319","0.0-4.0-6.0-1.0-1.52","6172b8bcb0ca871db44b71c9","63690f60c96a0a9a64b48fbd","63691fb0fb18a7cd02c46af2","null","","null","","","","","","","","./tasks/HMM-beads/Images/BlackBeadChoice.png","","","","","","","","","","","","","","","","","","","","","","","",""
"image-keyboard-response","237","598826","0.0-4.0-6.0-1.0-2.52","6172b8bcb0ca871db44b71c9","63690f60c96a0a9a64b48fbd","63691fb0fb18a7cd02c46af2","null","","null","","","","","","","","./tasks/HMM-beads/Images/BlackBeadChoiceWrong.png","","","","","","","","","","","","","","","","","","","","","","","",""
"image-keyboard-response","238","598983","0.0-4.0-6.0-1.0-0.53","6172b8bcb0ca871db44b71c9","63690f60c96a0a9a64b48fbd","63691fb0fb18a7cd02c46af2","153","","j","","","","","","","","./tasks/HMM-beads/Images/NewTrialWC.png","highH","53","1","1","2","2","false","","","","","","","","","","","","","","","","",""
"image-keyboard-response","239","599288","0.0-4.0-6.0-1.0-1.53","6172b8bcb0ca871db44b71c9","63690f60c96a0a9a64b48fbd","63691fb0fb18a7cd02c46af2","null","","null","","","","","","","","./tasks/HMM-beads/Images/WhiteBeadChoice.png","","","","","","","","","","","","","","","","","","","","","","","",""
"image-keyboard-response","240","599794","0.0-4.0-6.0-1.0-2.53","6172b8bcb0ca871db44b71c9","63690f60c96a0a9a64b48fbd","63691fb0fb18a7cd02c46af2","null","","null","","","","","","","","./tasks/HMM-beads/Images/WhiteBeadChoiceWrong.png","","","","","","","","","","","","","","","","","","","","","","","",""
"image-keyboard-response","241","600024","0.0-4.0-6.0-1.0-0.54","6172b8bcb0ca871db44b71c9","63690f60c96a0a9a64b48fbd","63691fb0fb18a7cd02c46af2","227","","f","","","","","","","","./tasks/HMM-beads/Images/NewTrialBC.png","highH","54","2","2","1","1","false","","","","","","","","","","","","","","","","",""
"image-keyboard-response","242","600338","0.0-4.0-6.0-1.0-1.54","6172b8bcb0ca871db44b71c9","63690f60c96a0a9a64b48fbd","63691fb0fb18a7cd02c46af2","null","","null","","","","","","","","./tasks/HMM-beads/Images/BlackBeadChoice.png","","","","","","","","","","","","","","","","","","","","","","","",""
"image-keyboard-response","243","600852","0.0-4.0-6.0-1.0-2.54","6172b8bcb0ca871db44b71c9","63690f60c96a0a9a64b48fbd","63691fb0fb18a7cd02c46af2","null","","null","","","","","","","","./tasks/HMM-beads/Images/BlackBeadChoiceWrong.png","","","","","","","","","","","","","","","","","","","","","","","",""
"image-keyboard-response","244","601023","0.0-4.0-6.0-1.0-0.55","6172b8bcb0ca871db44b71c9","63690f60c96a0a9a64b48fbd","63691fb0fb18a7cd02c46af2","169","","j","","","","","","","","./tasks/HMM-beads/Images/NewTrialWC.png","highH","55","1","1","2","2","false","","","","","","","","","","","","","","","","",""
"image-keyboard-response","245","601338","0.0-4.0-6.0-1.0-1.55","6172b8bcb0ca871db44b71c9","63690f60c96a0a9a64b48fbd","63691fb0fb18a7cd02c46af2","null","","null","","","","","","","","./tasks/HMM-beads/Images/WhiteBeadChoice.png","","","","","","","","","","","","","","","","","","","","","","","",""
"image-keyboard-response","246","601854","0.0-4.0-6.0-1.0-2.55","6172b8bcb0ca871db44b71c9","63690f60c96a0a9a64b48fbd","63691fb0fb18a7cd02c46af2","null","","null","","","","","","","","./tasks/HMM-beads/Images/WhiteBeadChoiceWrong.png","","","","","","","","","","","","","","","","","","","","","","","",""
"image-keyboard-response","247","602080","0.0-4.0-6.0-1.0-0.56","6172b8bcb0ca871db44b71c9","63690f60c96a0a9a64b48fbd","63691fb0fb18a7cd02c46af2","225","","f","","","","","","","","./tasks/HMM-beads/Images/NewTrialBC.png","highH","56","2","2","1","1","false","","","","","","","","","","","","","","","","",""
"image-keyboard-response","248","602383","0.0-4.0-6.0-1.0-1.56","6172b8bcb0ca871db44b71c9","63690f60c96a0a9a64b48fbd","63691fb0fb18a7cd02c46af2","null","","null","","","","","","","","./tasks/HMM-beads/Images/BlackBeadChoice.png","","","","","","","","","","","","","","","","","","","","","","","",""
"image-keyboard-response","249","602887","0.0-4.0-6.0-1.0-2.56","6172b8bcb0ca871db44b71c9","63690f60c96a0a9a64b48fbd","63691fb0fb18a7cd02c46af2","null","","null","","","","","","","","./tasks/HMM-beads/Images/BlackBeadChoiceWrong.png","","","","","","","","","","","","","","","","","","","","","","","",""
"image-keyboard-response","250","603231","0.0-4.0-6.0-1.0-0.57","6172b8bcb0ca871db44b71c9","63690f60c96a0a9a64b48fbd","63691fb0fb18a7cd02c46af2","340","","j","","","","","","","","./tasks/HMM-beads/Images/NewTrialWC.png","highH","57","1","1","2","2","false","","","","","","","","","","","","","","","","",""
"image-keyboard-response","251","603548","0.0-4.0-6.0-1.0-1.57","6172b8bcb0ca871db44b71c9","63690f60c96a0a9a64b48fbd","63691fb0fb18a7cd02c46af2","null","","null","","","","","","","","./tasks/HMM-beads/Images/WhiteBeadChoice.png","","","","","","","","","","","","","","","","","","","","","","","",""
"image-keyboard-response","252","604057","0.0-4.0-6.0-1.0-2.57","6172b8bcb0ca871db44b71c9","63690f60c96a0a9a64b48fbd","63691fb0fb18a7cd02c46af2","null","","null","","","","","","","","./tasks/HMM-beads/Images/WhiteBeadChoiceWrong.png","","","","","","","","","","","","","","","","","","","","","","","",""
"image-keyboard-response","253","604351","0.0-4.0-6.0-1.0-0.58","6172b8bcb0ca871db44b71c9","63690f60c96a0a9a64b48fbd","63691fb0fb18a7cd02c46af2","292","","f","","","","","","","","./tasks/HMM-beads/Images/NewTrialBC.png","highH","58","2","2","1","1","false","","","","","","","","","","","","","","","","",""
"image-keyboard-response","254","604657","0.0-4.0-6.0-1.0-1.58","6172b8bcb0ca871db44b71c9","63690f60c96a0a9a64b48fbd","63691fb0fb18a7cd02c46af2","null","","null","","","","","","","","./tasks/HMM-beads/Images/BlackBeadChoice.png","","","","","","","","","","","","","","","","","","","","","","","",""
"image-keyboard-response","255","605161","0.0-4.0-6.0-1.0-2.58","6172b8bcb0ca871db44b71c9","63690f60c96a0a9a64b48fbd","63691fb0fb18a7cd02c46af2","null","","null","","","","","","","","./tasks/HMM-beads/Images/BlackBeadChoiceWrong.png","","","","","","","","","","","","","","","","","","","","","","","",""
"image-keyboard-response","256","605503","0.0-4.0-6.0-1.0-0.59","6172b8bcb0ca871db44b71c9","63690f60c96a0a9a64b48fbd","63691fb0fb18a7cd02c46af2","340","","j","","","","","","","","./tasks/HMM-beads/Images/NewTrialWC.png","highH","59","1","1","2","2","false","","","","","","","","","","","","","","","","",""
"image-keyboard-response","257","605815","0.0-4.0-6.0-1.0-1.59","6172b8bcb0ca871db44b71c9","63690f60c96a0a9a64b48fbd","63691fb0fb18a7cd02c46af2","null","","null","","","","","","","","./tasks/HMM-beads/Images/WhiteBeadChoice.png","","","","","","","","","","","","","","","","","","","","","","","",""
"image-keyboard-response","258","606331","0.0-4.0-6.0-1.0-2.59","6172b8bcb0ca871db44b71c9","63690f60c96a0a9a64b48fbd","63691fb0fb18a7cd02c46af2","null","","null","","","","","","","","./tasks/HMM-beads/Images/WhiteBeadChoiceWrong.png","","","","","","","","","","","","","","","","","","","","","","","",""
"image-keyboard-response","259","606536","0.0-4.0-6.0-1.0-0.60","6172b8bcb0ca871db44b71c9","63690f60c96a0a9a64b48fbd","63691fb0fb18a7cd02c46af2","201","","f","","","","","","","","./tasks/HMM-beads/Images/NewTrialBC.png","highH","60","2","2","1","1","false","","","","","","","","","","","","","","","","",""
"image-keyboard-response","260","606853","0.0-4.0-6.0-1.0-1.60","6172b8bcb0ca871db44b71c9","63690f60c96a0a9a64b48fbd","63691fb0fb18a7cd02c46af2","null","","null","","","","","","","","./tasks/HMM-beads/Images/BlackBeadChoice.png","","","","","","","","","","","","","","","","","","","","","","","",""
"image-keyboard-response","261","607364","0.0-4.0-6.0-1.0-2.60","6172b8bcb0ca871db44b71c9","63690f60c96a0a9a64b48fbd","63691fb0fb18a7cd02c46af2","null","","null","","","","","","","","./tasks/HMM-beads/Images/BlackBeadChoiceWrong.png","","","","","","","","","","","","","","","","","","","","","","","",""
"image-keyboard-response","262","607976","0.0-4.0-6.0-1.0-0.61","6172b8bcb0ca871db44b71c9","63690f60c96a0a9a64b48fbd","63691fb0fb18a7cd02c46af2","607","","j","","","","","","","","./tasks/HMM-beads/Images/NewTrialWC.png","highH","61","1","2","2","2","true","","","","","","","","","","","","","","","","",""
"image-keyboard-response","263","608285","0.0-4.0-6.0-1.0-1.61","6172b8bcb0ca871db44b71c9","63690f60c96a0a9a64b48fbd","63691fb0fb18a7cd02c46af2","null","","null","","","","","","","","./tasks/HMM-beads/Images/WhiteBeadChoice.png","","","","","","","","","","","","","","","","","","","","","","","",""
"image-keyboard-response","264","608790","0.0-4.0-6.0-1.0-2.61","6172b8bcb0ca871db44b71c9","63690f60c96a0a9a64b48fbd","63691fb0fb18a7cd02c46af2","null","","null","","","","","","","","./tasks/HMM-beads/Images/WhiteBeadChoiceCorrect.png","","","","","","","","","","","","","","","","","","","","","","","",""
"image-keyboard-response","265","608952","0.0-4.0-6.0-1.0-0.62","6172b8bcb0ca871db44b71c9","63690f60c96a0a9a64b48fbd","63691fb0fb18a7cd02c46af2","159","","j","","","","","","","","./tasks/HMM-beads/Images/NewTrialWC.png","highH","62","2","2","2","2","true","","","","","","","","","","","","","","","","",""
"image-keyboard-response","266","609264","0.0-4.0-6.0-1.0-1.62","6172b8bcb0ca871db44b71c9","63690f60c96a0a9a64b48fbd","63691fb0fb18a7cd02c46af2","null","","null","","","","","","","","./tasks/HMM-beads/Images/WhiteBeadChoice.png","","","","","","","","","","","","","","","","","","","","","","","",""
"image-keyboard-response","267","609773","0.0-4.0-6.0-1.0-2.62","6172b8bcb0ca871db44b71c9","63690f60c96a0a9a64b48fbd","63691fb0fb18a7cd02c46af2","null","","null","","","","","","","","./tasks/HMM-beads/Images/WhiteBeadChoiceCorrect.png","","","","","","","","","","","","","","","","","","","","","","","",""
"image-keyboard-response","268","610039","0.0-4.0-6.0-1.0-0.63","6172b8bcb0ca871db44b71c9","63690f60c96a0a9a64b48fbd","63691fb0fb18a7cd02c46af2","264","","j","","","","","","","","./tasks/HMM-beads/Images/NewTrialWC.png","highH","63","1","1","2","2","false","","","","","","","","","","","","","","","","",""
"image-keyboard-response","269","610344","0.0-4.0-6.0-1.0-1.63","6172b8bcb0ca871db44b71c9","63690f60c96a0a9a64b48fbd","63691fb0fb18a7cd02c46af2","null","","null","","","","","","","","./tasks/HMM-beads/Images/WhiteBeadChoice.png","","","","","","","","","","","","","","","","","","","","","","","",""
"image-keyboard-response","270","610846","0.0-4.0-6.0-1.0-2.63","6172b8bcb0ca871db44b71c9","63690f60c96a0a9a64b48fbd","63691fb0fb18a7cd02c46af2","null","","null","","","","","","","","./tasks/HMM-beads/Images/WhiteBeadChoiceWrong.png","","","","","","","","","","","","","","","","","","","","","","","",""
"image-keyboard-response","271","611079","0.0-4.0-6.0-1.0-0.64","6172b8bcb0ca871db44b71c9","63690f60c96a0a9a64b48fbd","63691fb0fb18a7cd02c46af2","230","","f","","","","","","","","./tasks/HMM-beads/Images/NewTrialBC.png","highH","64","2","2","1","1","false","","","","","","","","","","","","","","","","",""
"image-keyboard-response","272","611389","0.0-4.0-6.0-1.0-1.64","6172b8bcb0ca871db44b71c9","63690f60c96a0a9a64b48fbd","63691fb0fb18a7cd02c46af2","null","","null","","","","","","","","./tasks/HMM-beads/Images/BlackBeadChoice.png","","","","","","","","","","","","","","","","","","","","","","","",""
"image-keyboard-response","273","611893","0.0-4.0-6.0-1.0-2.64","6172b8bcb0ca871db44b71c9","63690f60c96a0a9a64b48fbd","63691fb0fb18a7cd02c46af2","null","","null","","","","","","","","./tasks/HMM-beads/Images/BlackBeadChoiceWrong.png","","","","","","","","","","","","","","","","","","","","","","","",""
"image-keyboard-response","274","612112","0.0-4.0-6.0-1.0-0.65","6172b8bcb0ca871db44b71c9","63690f60c96a0a9a64b48fbd","63691fb0fb18a7cd02c46af2","214","","j","","","","","","","","./tasks/HMM-beads/Images/NewTrialWC.png","highH","65","1","1","2","2","false","","","","","","","","","","","","","","","","",""
"image-keyboard-response","275","612423","0.0-4.0-6.0-1.0-1.65","6172b8bcb0ca871db44b71c9","63690f60c96a0a9a64b48fbd","63691fb0fb18a7cd02c46af2","null","","null","","","","","","","","./tasks/HMM-beads/Images/WhiteBeadChoice.png","","","","","","","","","","","","","","","","","","","","","","","",""
"image-keyboard-response","276","612937","0.0-4.0-6.0-1.0-2.65","6172b8bcb0ca871db44b71c9","63690f60c96a0a9a64b48fbd","63691fb0fb18a7cd02c46af2","null","","null","","","","","","","","./tasks/HMM-beads/Images/WhiteBeadChoiceWrong.png","","","","","","","","","","","","","","","","","","","","","","","",""
"image-keyboard-response","277","613072","0.0-4.0-6.0-1.0-0.66","6172b8bcb0ca871db44b71c9","63690f60c96a0a9a64b48fbd","63691fb0fb18a7cd02c46af2","131","","f","","","","","","","","./tasks/HMM-beads/Images/NewTrialBC.png","highH","66","2","2","1","1","false","","","","","","","","","","","","","","","","",""
"image-keyboard-response","278","613388","0.0-4.0-6.0-1.0-1.66","6172b8bcb0ca871db44b71c9","63690f60c96a0a9a64b48fbd","63691fb0fb18a7cd02c46af2","null","","null","","","","","","","","./tasks/HMM-beads/Images/BlackBeadChoice.png","","","","","","","","","","","","","","","","","","","","","","","",""
"image-keyboard-response","279","613892","0.0-4.0-6.0-1.0-2.66","6172b8bcb0ca871db44b71c9","63690f60c96a0a9a64b48fbd","63691fb0fb18a7cd02c46af2","null","","null","","","","","","","","./tasks/HMM-beads/Images/BlackBeadChoiceWrong.png","","","","","","","","","","","","","","","","","","","","","","","",""
"image-keyboard-response","280","614136","0.0-4.0-6.0-1.0-0.67","6172b8bcb0ca871db44b71c9","63690f60c96a0a9a64b48fbd","63691fb0fb18a7cd02c46af2","241","","j","","","","","","","","./tasks/HMM-beads/Images/NewTrialWC.png","highH","67","1","1","2","2","false","","","","","","","","","","","","","","","","",""
"image-keyboard-response","281","614444","0.0-4.0-6.0-1.0-1.67","6172b8bcb0ca871db44b71c9","63690f60c96a0a9a64b48fbd","63691fb0fb18a7cd02c46af2","null","","null","","","","","","","","./tasks/HMM-beads/Images/WhiteBeadChoice.png","","","","","","","","","","","","","","","","","","","","","","","",""
"image-keyboard-response","282","614949","0.0-4.0-6.0-1.0-2.67","6172b8bcb0ca871db44b71c9","63690f60c96a0a9a64b48fbd","63691fb0fb18a7cd02c46af2","null","","null","","","","","","","","./tasks/HMM-beads/Images/WhiteBeadChoiceWrong.png","","","","","","","","","","","","","","","","","","","","","","","",""
"image-keyboard-response","283","615207","0.0-4.0-6.0-1.0-0.68","6172b8bcb0ca871db44b71c9","63690f60c96a0a9a64b48fbd","63691fb0fb18a7cd02c46af2","255","","f","","","","","","","","./tasks/HMM-beads/Images/NewTrialBC.png","highH","68","2","2","1","1","false","","","","","","","","","","","","","","","","",""
"image-keyboard-response","284","615515","0.0-4.0-6.0-1.0-1.68","6172b8bcb0ca871db44b71c9","63690f60c96a0a9a64b48fbd","63691fb0fb18a7cd02c46af2","null","","null","","","","","","","","./tasks/HMM-beads/Images/BlackBeadChoice.png","","","","","","","","","","","","","","","","","","","","","","","",""
"image-keyboard-response","285","616019","0.0-4.0-6.0-1.0-2.68","6172b8bcb0ca871db44b71c9","63690f60c96a0a9a64b48fbd","63691fb0fb18a7cd02c46af2","null","","null","","","","","","","","./tasks/HMM-beads/Images/BlackBeadChoiceWrong.png","","","","","","","","","","","","","","","","","","","","","","","",""
"image-keyboard-response","286","616183","0.0-4.0-6.0-1.0-0.69","6172b8bcb0ca871db44b71c9","63690f60c96a0a9a64b48fbd","63691fb0fb18a7cd02c46af2","159","","j","","","","","","","","./tasks/HMM-beads/Images/NewTrialWC.png","highH","69","1","2","2","2","true","","","","","","","","","","","","","","","","",""
"image-keyboard-response","287","616488","0.0-4.0-6.0-1.0-1.69","6172b8bcb0ca871db44b71c9","63690f60c96a0a9a64b48fbd","63691fb0fb18a7cd02c46af2","null","","null","","","","","","","","./tasks/HMM-beads/Images/WhiteBeadChoice.png","","","","","","","","","","","","","","","","","","","","","","","",""
"image-keyboard-response","288","616991","0.0-4.0-6.0-1.0-2.69","6172b8bcb0ca871db44b71c9","63690f60c96a0a9a64b48fbd","63691fb0fb18a7cd02c46af2","null","","null","","","","","","","","./tasks/HMM-beads/Images/WhiteBeadChoiceCorrect.png","","","","","","","","","","","","","","","","","","","","","","","",""
"image-keyboard-response","289","617103","0.0-4.0-6.0-1.0-0.70","6172b8bcb0ca871db44b71c9","63690f60c96a0a9a64b48fbd","63691fb0fb18a7cd02c46af2","110","","j","","","","","","","","./tasks/HMM-beads/Images/NewTrialWC.png","highH","70","2","2","2","2","true","","","","","","","","","","","","","","","","",""
"image-keyboard-response","290","617417","0.0-4.0-6.0-1.0-1.70","6172b8bcb0ca871db44b71c9","63690f60c96a0a9a64b48fbd","63691fb0fb18a7cd02c46af2","null","","null","","","","","","","","./tasks/HMM-beads/Images/WhiteBeadChoice.png","","","","","","","","","","","","","","","","","","","","","","","",""
"image-keyboard-response","291","617920","0.0-4.0-6.0-1.0-2.70","6172b8bcb0ca871db44b71c9","63690f60c96a0a9a64b48fbd","63691fb0fb18a7cd02c46af2","null","","null","","","","","","","","./tasks/HMM-beads/Images/WhiteBeadChoiceCorrect.png","","","","","","","","","","","","","","","","","","","","","","","",""
"image-keyboard-response","292","618152","0.0-4.0-6.0-1.0-0.71","6172b8bcb0ca871db44b71c9","63690f60c96a0a9a64b48fbd","63691fb0fb18a7cd02c46af2","229","","j","","","","","","","","./tasks/HMM-beads/Images/NewTrialWC.png","highH","71","1","2","2","2","true","","","","","","","","","","","","","","","","",""
"image-keyboard-response","293","618462","0.0-4.0-6.0-1.0-1.71","6172b8bcb0ca871db44b71c9","63690f60c96a0a9a64b48fbd","63691fb0fb18a7cd02c46af2","null","","null","","","","","","","","./tasks/HMM-beads/Images/WhiteBeadChoice.png","","","","","","","","","","","","","","","","","","","","","","","",""
"image-keyboard-response","294","618969","0.0-4.0-6.0-1.0-2.71","6172b8bcb0ca871db44b71c9","63690f60c96a0a9a64b48fbd","63691fb0fb18a7cd02c46af2","null","","null","","","","","","","","./tasks/HMM-beads/Images/WhiteBeadChoiceCorrect.png","","","","","","","","","","","","","","","","","","","","","","","",""
"image-keyboard-response","295","619200","0.0-4.0-6.0-1.0-0.72","6172b8bcb0ca871db44b71c9","63690f60c96a0a9a64b48fbd","63691fb0fb18a7cd02c46af2","229","","j","","","","","","","","./tasks/HMM-beads/Images/NewTrialWC.png","highH","72","2","2","2","2","true","","","","","","","","","","","","","","","","",""
"image-keyboard-response","296","619506","0.0-4.0-6.0-1.0-1.72","6172b8bcb0ca871db44b71c9","63690f60c96a0a9a64b48fbd","63691fb0fb18a7cd02c46af2","null","","null","","","","","","","","./tasks/HMM-beads/Images/WhiteBeadChoice.png","","","","","","","","","","","","","","","","","","","","","","","",""
"image-keyboard-response","297","620014","0.0-4.0-6.0-1.0-2.72","6172b8bcb0ca871db44b71c9","63690f60c96a0a9a64b48fbd","63691fb0fb18a7cd02c46af2","null","","null","","","","","","","","./tasks/HMM-beads/Images/WhiteBeadChoiceCorrect.png","","","","","","","","","","","","","","","","","","","","","","","",""
"image-keyboard-response","298","620175","0.0-4.0-6.0-1.0-0.73","6172b8bcb0ca871db44b71c9","63690f60c96a0a9a64b48fbd","63691fb0fb18a7cd02c46af2","157","","j","","","","","","","","./tasks/HMM-beads/Images/NewTrialWC.png","highH","73","1","1","2","2","false","","","","","","","","","","","","","","","","",""
"image-keyboard-response","299","620490","0.0-4.0-6.0-1.0-1.73","6172b8bcb0ca871db44b71c9","63690f60c96a0a9a64b48fbd","63691fb0fb18a7cd02c46af2","null","","null","","","","","","","","./tasks/HMM-beads/Images/WhiteBeadChoice.png","","","","","","","","","","","","","","","","","","","","","","","",""
"image-keyboard-response","300","621001","0.0-4.0-6.0-1.0-2.73","6172b8bcb0ca871db44b71c9","63690f60c96a0a9a64b48fbd","63691fb0fb18a7cd02c46af2","null","","null","","","","","","","","./tasks/HMM-beads/Images/WhiteBeadChoiceWrong.png","","","","","","","","","","","","","","","","","","","","","","","",""
"image-keyboard-response","301","621111","0.0-4.0-6.0-1.0-0.74","6172b8bcb0ca871db44b71c9","63690f60c96a0a9a64b48fbd","63691fb0fb18a7cd02c46af2","108","","f","","","","","","","","./tasks/HMM-beads/Images/NewTrialBC.png","highH","74","2","2","1","1","false","","","","","","","","","","","","","","","","",""
"image-keyboard-response","302","621421","0.0-4.0-6.0-1.0-1.74","6172b8bcb0ca871db44b71c9","63690f60c96a0a9a64b48fbd","63691fb0fb18a7cd02c46af2","null","","null","","","","","","","","./tasks/HMM-beads/Images/BlackBeadChoice.png","","","","","","","","","","","","","","","","","","","","","","","",""
"image-keyboard-response","303","621933","0.0-4.0-6.0-1.0-2.74","6172b8bcb0ca871db44b71c9","63690f60c96a0a9a64b48fbd","63691fb0fb18a7cd02c46af2","null","","null","","","","","","","","./tasks/HMM-beads/Images/BlackBeadChoiceWrong.png","","","","","","","","","","","","","","","","","","","","","","","",""
"image-keyboard-response","304","622000","0.0-4.0-6.0-1.0-0.75","6172b8bcb0ca871db44b71c9","63690f60c96a0a9a64b48fbd","63691fb0fb18a7cd02c46af2","64","","j","","","","","","","","./tasks/HMM-beads/Images/NewTrialWC.png","highH","75","1","1","2","2","false","","","","","","","","","","","","","","","","",""
"image-keyboard-response","305","622309","0.0-4.0-6.0-1.0-1.75","6172b8bcb0ca871db44b71c9","63690f60c96a0a9a64b48fbd","63691fb0fb18a7cd02c46af2","null","","null","","","","","","","","./tasks/HMM-beads/Images/WhiteBeadChoice.png","","","","","","","","","","","","","","","","","","","","","","","",""
"image-keyboard-response","306","622825","0.0-4.0-6.0-1.0-2.75","6172b8bcb0ca871db44b71c9","63690f60c96a0a9a64b48fbd","63691fb0fb18a7cd02c46af2","null","","null","","","","","","","","./tasks/HMM-beads/Images/WhiteBeadChoiceWrong.png","","","","","","","","","","","","","","","","","","","","","","","",""
"image-keyboard-response","307","622927","0.0-4.0-6.0-1.0-0.76","6172b8bcb0ca871db44b71c9","63690f60c96a0a9a64b48fbd","63691fb0fb18a7cd02c46af2","100","","f","","","","","","","","./tasks/HMM-beads/Images/NewTrialBC.png","highH","76","2","2","1","1","false","","","","","","","","","","","","","","","","",""
"image-keyboard-response","308","623231","0.0-4.0-6.0-1.0-1.76","6172b8bcb0ca871db44b71c9","63690f60c96a0a9a64b48fbd","63691fb0fb18a7cd02c46af2","null","","null","","","","","","","","./tasks/HMM-beads/Images/BlackBeadChoice.png","","","","","","","","","","","","","","","","","","","","","","","",""
"image-keyboard-response","309","623740","0.0-4.0-6.0-1.0-2.76","6172b8bcb0ca871db44b71c9","63690f60c96a0a9a64b48fbd","63691fb0fb18a7cd02c46af2","null","","null","","","","","","","","./tasks/HMM-beads/Images/BlackBeadChoiceWrong.png","","","","","","","","","","","","","","","","","","","","","","","",""
"image-keyboard-response","310","623815","0.0-4.0-6.0-1.0-0.77","6172b8bcb0ca871db44b71c9","63690f60c96a0a9a64b48fbd","63691fb0fb18a7cd02c46af2","73","","j","","","","","","","","./tasks/HMM-beads/Images/NewTrialWC.png","highH","77","1","1","2","2","false","","","","","","","","","","","","","","","","",""
"image-keyboard-response","311","624121","0.0-4.0-6.0-1.0-1.77","6172b8bcb0ca871db44b71c9","63690f60c96a0a9a64b48fbd","63691fb0fb18a7cd02c46af2","null","","null","","","","","","","","./tasks/HMM-beads/Images/WhiteBeadChoice.png","","","","","","","","","","","","","","","","","","","","","","","",""
"image-keyboard-response","312","624629","0.0-4.0-6.0-1.0-2.77","6172b8bcb0ca871db44b71c9","63690f60c96a0a9a64b48fbd","63691fb0fb18a7cd02c46af2","null","","null","","","","","","","","./tasks/HMM-beads/Images/WhiteBeadChoiceWrong.png","","","","","","","","","","","","","","","","","","","","","","","",""
"image-keyboard-response","313","624832","0.0-4.0-6.0-1.0-0.78","6172b8bcb0ca871db44b71c9","63690f60c96a0a9a64b48fbd","63691fb0fb18a7cd02c46af2","198","","f","","","","","","","","./tasks/HMM-beads/Images/NewTrialBC.png","highH","78","2","2","1","1","false","","","","","","","","","","","","","","","","",""
"image-keyboard-response","314","625139","0.0-4.0-6.0-1.0-1.78","6172b8bcb0ca871db44b71c9","63690f60c96a0a9a64b48fbd","63691fb0fb18a7cd02c46af2","null","","null","","","","","","","","./tasks/HMM-beads/Images/BlackBeadChoice.png","","","","","","","","","","","","","","","","","","","","","","","",""
"image-keyboard-response","315","625649","0.0-4.0-6.0-1.0-2.78","6172b8bcb0ca871db44b71c9","63690f60c96a0a9a64b48fbd","63691fb0fb18a7cd02c46af2","null","","null","","","","","","","","./tasks/HMM-beads/Images/BlackBeadChoiceWrong.png","","","","","","","","","","","","","","","","","","","","","","","",""
"image-keyboard-response","316","625736","0.0-4.0-6.0-1.0-0.79","6172b8bcb0ca871db44b71c9","63690f60c96a0a9a64b48fbd","63691fb0fb18a7cd02c46af2","84","","j","","","","","","","","./tasks/HMM-beads/Images/NewTrialWC.png","highH","79","1","1","2","2","false","","","","","","","","","","","","","","","","",""
"image-keyboard-response","317","626045","0.0-4.0-6.0-1.0-1.79","6172b8bcb0ca871db44b71c9","63690f60c96a0a9a64b48fbd","63691fb0fb18a7cd02c46af2","null","","null","","","","","","","","./tasks/HMM-beads/Images/WhiteBeadChoice.png","","","","","","","","","","","","","","","","","","","","","","","",""
