"trial_type","trial_index","time_elapsed","internal_node_id","subject_id","study_id","session_id","rt","url","response","question_order","view_history","success","timeout","failed_images","failed_audio","failed_video","stimulus","block","trial_number","jar","bead","previous_bead","choice","correct","lowH_score","highH_score","state","rewarded","state1_action","state2_visited","state1_key","state2_key","state1_rt","state2_rt","block_num","seq_file","trial_seq_info","two_arm_score_block1","two_arm_score_block2","two_arm_score_total","total_bonus"
"pavlovia","0","1434","0.0-0.0","60ff4fc94dbc53a93c790a0b","63690f60c96a0a9a64b48fbd","6369332ed22300905f35d889","","","","","","","","","","","","","","","","","","","","","","","","","","","","","","","","","","",""
"external-html","1","7199","0.0-1.0-0.0","60ff4fc94dbc53a93c790a0b","63690f60c96a0a9a64b48fbd","6369332ed22300905f35d889","5608","new_consent.html","","","","","","","","","","","","","","","","","","","","","","","","","","","","","","","","",""
"survey-multi-choice","2","19420","0.0-1.0-1.0","60ff4fc94dbc53a93c790a0b","63690f60c96a0a9a64b48fbd","6369332ed22300905f35d889","12218","","{""Q0"":""Female"",""Q1"":""Black or African American""}","[0,1]","","","","","","","","","","","","","","","","","","","","","","","","","","","","","","",""
"survey-text","3","22055","0.0-1.0-2.0","60ff4fc94dbc53a93c790a0b","63690f60c96a0a9a64b48fbd","6369332ed22300905f35d889","2629","","{""Q0"":""24""}","","","","","","","","","","","","","","","","","","","","","","","","","","","","","","","",""
"instructions","4","51222","0.0-2.0","60ff4fc94dbc53a93c790a0b","63690f60c96a0a9a64b48fbd","6369332ed22300905f35d889","29061","","","","[{""page_index"":0,""viewing_time"":26925},{""page_index"":1,""viewing_time"":2135}]","","","","","","","","","","","","","","","","","","","","","","","","","","","","","",""
"instructions","5","65106","0.0-3.0","60ff4fc94dbc53a93c790a0b","63690f60c96a0a9a64b48fbd","6369332ed22300905f35d889","13883","","","","[{""page_index"":0,""viewing_time"":13883}]","","","","","","","","","","","","","","","","","","","","","","","","","","","","","",""
"preload","6","66580","0.0-4.0-0.0","60ff4fc94dbc53a93c790a0b","63690f60c96a0a9a64b48fbd","6369332ed22300905f35d889","","","","","","true","false","[]","[]","[]","","","","","","","","","","","","","","","","","","","","","","","","",""
"instructions","7","153804","0.0-4.0-1.0","60ff4fc94dbc53a93c790a0b","63690f60c96a0a9a64b48fbd","6369332ed22300905f35d889","87222","","","","[{""page_index"":0,""viewing_time"":28055},{""page_index"":1,""viewing_time"":10092},{""page_index"":2,""viewing_time"":4371},{""page_index"":3,""viewing_time"":1071},{""page_index"":4,""viewing_time"":7243},{""page_index"":5,""viewing_time"":4102},{""page_index"":6,""viewing_time"":1343},{""page_index"":7,""viewing_time"":11279},{""page_index"":6,""viewing_time"":2092},{""page_index"":7,""viewing_time"":885},{""page_index"":8,""viewing_time"":2952},{""page_index"":9,""viewing_time"":1240},{""page_index"":8,""viewing_time"":612},{""page_index"":7,""viewing_time"":2079},{""page_index"":8,""viewing_time"":4619},{""page_index"":9,""viewing_time"":488},{""page_index"":10,""viewing_time"":2612},{""page_index"":11,""viewing_time"":2086}]","","","","","","","","","","","","","","","","","","","","","","","","","","","","","",""
"html-button-response","8","157536","0.0-4.0-2.0-0.0-0.0","60ff4fc94dbc53a93c790a0b","63690f60c96a0a9a64b48fbd","6369332ed22300905f35d889","3730","","1","","","","","","","","<div align=center>Your goal is to predict…?<br><br></div>","","","","","","","","","","","","","","","","","","","","","","","",""
"html-button-response","9","165251","0.0-4.0-2.0-1.0-0.0","60ff4fc94dbc53a93c790a0b","63690f60c96a0a9a64b48fbd","6369332ed22300905f35d889","5535","","2","","","","","","","","<div align=center>In the jar with mostly white beads, there are ___% white beads and ___% black beads?<br><br></div>","","","","","","","","","","","","","","","","","","","","","","","",""
"html-button-response","10","174622","0.0-4.0-2.0-2.0-0.0","60ff4fc94dbc53a93c790a0b","63690f60c96a0a9a64b48fbd","6369332ed22300905f35d889","7845","","1","","","","","","","","<div align=center>When there is a 1% probability that the jars will switch, the next bead will most likely be drawn from the…<br><br></div>","","","","","","","","","","","","","","","","","","","","","","","",""
"html-button-response","11","176842","0.0-4.0-2.0-2.1-0.1","60ff4fc94dbc53a93c790a0b","63690f60c96a0a9a64b48fbd","6369332ed22300905f35d889","887","","0","","","","","","","","<div align=center>When there is a 1% probability that the jars will switch, the next bead will most likely be drawn from the…<br><br></div>","","","","","","","","","","","","","","","","","","","","","","","",""
"html-button-response","12","180433","0.0-4.0-2.0-3.0-0.0","60ff4fc94dbc53a93c790a0b","63690f60c96a0a9a64b48fbd","6369332ed22300905f35d889","1913","","1","","","","","","","","<div align=center>When there is a 99% probability that the jars will switch, the next bead will most likely be drawn from the…<br><br></div>","","","","","","","","","","","","","","","","","","","","","","","",""
"instructions","13","183164","0.0-4.0-3.0","60ff4fc94dbc53a93c790a0b","63690f60c96a0a9a64b48fbd","6369332ed22300905f35d889","1532","","","","[{""page_index"":0,""viewing_time"":1531}]","","","","","","","","","","","","","","","","","","","","","","","","","","","","","",""
"html-keyboard-response","14","187236","0.0-4.0-4.0-0.0","60ff4fc94dbc53a93c790a0b","63690f60c96a0a9a64b48fbd","6369332ed22300905f35d889","4071",""," ","","","","","","","","<div align=center>In this practice block, there will be a <b>10% chance</b> that the jar on the next trial will be different from the jar on the current trial.<br><br></div>","","","","","","","","","","","","","","","","","","","","","","","",""
"image-keyboard-response","15","192264","0.0-4.0-4.0-1.0-0.0","60ff4fc94dbc53a93c790a0b","63690f60c96a0a9a64b48fbd","6369332ed22300905f35d889","5019","","f","","","","","","","","./tasks/HMM-beads/Images/NoChoice.png","practice","0","1","1","0","1","true","","","","","","","","","","","","","","","","",""
"image-keyboard-response","16","192569","0.0-4.0-4.0-1.0-1.0","60ff4fc94dbc53a93c790a0b","63690f60c96a0a9a64b48fbd","6369332ed22300905f35d889","null","","null","","","","","","","","./tasks/HMM-beads/Images/BlackBeadChoice.png","","","","","","","","","","","","","","","","","","","","","","","",""
"image-keyboard-response","17","193074","0.0-4.0-4.0-1.0-2.0","60ff4fc94dbc53a93c790a0b","63690f60c96a0a9a64b48fbd","6369332ed22300905f35d889","null","","null","","","","","","","","./tasks/HMM-beads/Images/BlackBeadChoiceCorrect.png","","","","","","","","","","","","","","","","","","","","","","","",""
"image-keyboard-response","18","196704","0.0-4.0-4.0-1.0-0.1","60ff4fc94dbc53a93c790a0b","63690f60c96a0a9a64b48fbd","6369332ed22300905f35d889","3629","","j","","","","","","","","./tasks/HMM-beads/Images/NewTrialBC.png","practice","1","1","1","1","2","false","","","","","","","","","","","","","","","","",""
"image-keyboard-response","19","197009","0.0-4.0-4.0-1.0-1.1","60ff4fc94dbc53a93c790a0b","63690f60c96a0a9a64b48fbd","6369332ed22300905f35d889","null","","null","","","","","","","","./tasks/HMM-beads/Images/WhiteBeadChoice.png","","","","","","","","","","","","","","","","","","","","","","","",""
"image-keyboard-response","20","197516","0.0-4.0-4.0-1.0-2.1","60ff4fc94dbc53a93c790a0b","63690f60c96a0a9a64b48fbd","6369332ed22300905f35d889","null","","null","","","","","","","","./tasks/HMM-beads/Images/WhiteBeadChoiceWrong.png","","","","","","","","","","","","","","","","","","","","","","","",""
"image-keyboard-response","21","199313","0.0-4.0-4.0-1.0-0.2","60ff4fc94dbc53a93c790a0b","63690f60c96a0a9a64b48fbd","6369332ed22300905f35d889","1796","","j","","","","","","","","./tasks/HMM-beads/Images/NewTrialBC.png","practice","2","1","2","1","2","true","","","","","","","","","","","","","","","","",""
"image-keyboard-response","22","199617","0.0-4.0-4.0-1.0-1.2","60ff4fc94dbc53a93c790a0b","63690f60c96a0a9a64b48fbd","6369332ed22300905f35d889","null","","null","","","","","","","","./tasks/HMM-beads/Images/WhiteBeadChoice.png","","","","","","","","","","","","","","","","","","","","","","","",""
"image-keyboard-response","23","200119","0.0-4.0-4.0-1.0-2.2","60ff4fc94dbc53a93c790a0b","63690f60c96a0a9a64b48fbd","6369332ed22300905f35d889","null","","null","","","","","","","","./tasks/HMM-beads/Images/WhiteBeadChoiceCorrect.png","","","","","","","","","","","","","","","","","","","","","","","",""
"image-keyboard-response","24","202024","0.0-4.0-4.0-1.0-0.3","60ff4fc94dbc53a93c790a0b","63690f60c96a0a9a64b48fbd","6369332ed22300905f35d889","1904","","f","","","","","","","","./tasks/HMM-beads/Images/NewTrialWC.png","practice","3","1","1","2","1","true","","","","","","","","","","","","","","","","",""
"image-keyboard-response","25","202327","0.0-4.0-4.0-1.0-1.3","60ff4fc94dbc53a93c790a0b","63690f60c96a0a9a64b48fbd","6369332ed22300905f35d889","null","","null","","","","","","","","./tasks/HMM-beads/Images/BlackBeadChoice.png","","","","","","","","","","","","","","","","","","","","","","","",""
"image-keyboard-response","26","202829","0.0-4.0-4.0-1.0-2.3","60ff4fc94dbc53a93c790a0b","63690f60c96a0a9a64b48fbd","6369332ed22300905f35d889","null","","null","","","","","","","","./tasks/HMM-beads/Images/BlackBeadChoiceCorrect.png","","","","","","","","","","","","","","","","","","","","","","","",""
"image-keyboard-response","27","205826","0.0-4.0-4.0-1.0-0.4","60ff4fc94dbc53a93c790a0b","63690f60c96a0a9a64b48fbd","6369332ed22300905f35d889","2983","","j","","","","","","","","./tasks/HMM-beads/Images/NewTrialBC.png","practice","4","1","2","1","2","true","","","","","","","","","","","","","","","","",""
"image-keyboard-response","28","206128","0.0-4.0-4.0-1.0-1.4","60ff4fc94dbc53a93c790a0b","63690f60c96a0a9a64b48fbd","6369332ed22300905f35d889","null","","null","","","","","","","","./tasks/HMM-beads/Images/WhiteBeadChoice.png","","","","","","","","","","","","","","","","","","","","","","","",""
"image-keyboard-response","29","206633","0.0-4.0-4.0-1.0-2.4","60ff4fc94dbc53a93c790a0b","63690f60c96a0a9a64b48fbd","6369332ed22300905f35d889","null","","null","","","","","","","","./tasks/HMM-beads/Images/WhiteBeadChoiceCorrect.png","","","","","","","","","","","","","","","","","","","","","","","",""
"image-keyboard-response","30","208014","0.0-4.0-4.0-1.0-0.5","60ff4fc94dbc53a93c790a0b","63690f60c96a0a9a64b48fbd","6369332ed22300905f35d889","1380","","j","","","","","","","","./tasks/HMM-beads/Images/NewTrialWC.png","practice","5","1","1","2","2","false","","","","","","","","","","","","","","","","",""
"image-keyboard-response","31","208320","0.0-4.0-4.0-1.0-1.5","60ff4fc94dbc53a93c790a0b","63690f60c96a0a9a64b48fbd","6369332ed22300905f35d889","null","","null","","","","","","","","./tasks/HMM-beads/Images/WhiteBeadChoice.png","","","","","","","","","","","","","","","","","","","","","","","",""
"image-keyboard-response","32","208822","0.0-4.0-4.0-1.0-2.5","60ff4fc94dbc53a93c790a0b","63690f60c96a0a9a64b48fbd","6369332ed22300905f35d889","null","","null","","","","","","","","./tasks/HMM-beads/Images/WhiteBeadChoiceWrong.png","","","","","","","","","","","","","","","","","","","","","","","",""
"image-keyboard-response","33","210455","0.0-4.0-4.0-1.0-0.6","60ff4fc94dbc53a93c790a0b","63690f60c96a0a9a64b48fbd","6369332ed22300905f35d889","1631","","f","","","","","","","","./tasks/HMM-beads/Images/NewTrialBC.png","practice","6","1","2","1","1","false","","","","","","","","","","","","","","","","",""
"image-keyboard-response","34","210760","0.0-4.0-4.0-1.0-1.6","60ff4fc94dbc53a93c790a0b","63690f60c96a0a9a64b48fbd","6369332ed22300905f35d889","null","","null","","","","","","","","./tasks/HMM-beads/Images/BlackBeadChoice.png","","","","","","","","","","","","","","","","","","","","","","","",""
"image-keyboard-response","35","211266","0.0-4.0-4.0-1.0-2.6","60ff4fc94dbc53a93c790a0b","63690f60c96a0a9a64b48fbd","6369332ed22300905f35d889","null","","null","","","","","","","","./tasks/HMM-beads/Images/BlackBeadChoiceWrong.png","","","","","","","","","","","","","","","","","","","","","","","",""
"image-keyboard-response","36","213645","0.0-4.0-4.0-1.0-0.7","60ff4fc94dbc53a93c790a0b","63690f60c96a0a9a64b48fbd","6369332ed22300905f35d889","2366","","j","","","","","","","","./tasks/HMM-beads/Images/NewTrialWC.png","practice","7","1","1","2","2","false","","","","","","","","","","","","","","","","",""
"image-keyboard-response","37","213948","0.0-4.0-4.0-1.0-1.7","60ff4fc94dbc53a93c790a0b","63690f60c96a0a9a64b48fbd","6369332ed22300905f35d889","null","","null","","","","","","","","./tasks/HMM-beads/Images/WhiteBeadChoice.png","","","","","","","","","","","","","","","","","","","","","","","",""
"image-keyboard-response","38","214455","0.0-4.0-4.0-1.0-2.7","60ff4fc94dbc53a93c790a0b","63690f60c96a0a9a64b48fbd","6369332ed22300905f35d889","null","","null","","","","","","","","./tasks/HMM-beads/Images/WhiteBeadChoiceWrong.png","","","","","","","","","","","","","","","","","","","","","","","",""
"image-keyboard-response","39","215920","0.0-4.0-4.0-1.0-0.8","60ff4fc94dbc53a93c790a0b","63690f60c96a0a9a64b48fbd","6369332ed22300905f35d889","1464","","j","","","","","","","","./tasks/HMM-beads/Images/NewTrialBC.png","practice","8","1","1","1","2","false","","","","","","","","","","","","","","","","",""
"image-keyboard-response","40","216222","0.0-4.0-4.0-1.0-1.8","60ff4fc94dbc53a93c790a0b","63690f60c96a0a9a64b48fbd","6369332ed22300905f35d889","null","","null","","","","","","","","./tasks/HMM-beads/Images/WhiteBeadChoice.png","","","","","","","","","","","","","","","","","","","","","","","",""
"image-keyboard-response","41","216725","0.0-4.0-4.0-1.0-2.8","60ff4fc94dbc53a93c790a0b","63690f60c96a0a9a64b48fbd","6369332ed22300905f35d889","null","","null","","","","","","","","./tasks/HMM-beads/Images/WhiteBeadChoiceWrong.png","","","","","","","","","","","","","","","","","","","","","","","",""
"image-keyboard-response","42","217514","0.0-4.0-4.0-1.0-0.9","60ff4fc94dbc53a93c790a0b","63690f60c96a0a9a64b48fbd","6369332ed22300905f35d889","788","","j","","","","","","","","./tasks/HMM-beads/Images/NewTrialBC.png","practice","9","2","2","1","2","true","","","","","","","","","","","","","","","","",""
"image-keyboard-response","43","217817","0.0-4.0-4.0-1.0-1.9","60ff4fc94dbc53a93c790a0b","63690f60c96a0a9a64b48fbd","6369332ed22300905f35d889","null","","null","","","","","","","","./tasks/HMM-beads/Images/WhiteBeadChoice.png","","","","","","","","","","","","","","","","","","","","","","","",""
"image-keyboard-response","44","218320","0.0-4.0-4.0-1.0-2.9","60ff4fc94dbc53a93c790a0b","63690f60c96a0a9a64b48fbd","6369332ed22300905f35d889","null","","null","","","","","","","","./tasks/HMM-beads/Images/WhiteBeadChoiceCorrect.png","","","","","","","","","","","","","","","","","","","","","","","",""
"image-keyboard-response","45","224280","0.0-4.0-4.0-1.0-0.10","60ff4fc94dbc53a93c790a0b","63690f60c96a0a9a64b48fbd","6369332ed22300905f35d889","5959","","j","","","","","","","","./tasks/HMM-beads/Images/NewTrialWC.png","practice","10","2","1","2","2","false","","","","","","","","","","","","","","","","",""
"image-keyboard-response","46","224587","0.0-4.0-4.0-1.0-1.10","60ff4fc94dbc53a93c790a0b","63690f60c96a0a9a64b48fbd","6369332ed22300905f35d889","null","","null","","","","","","","","./tasks/HMM-beads/Images/WhiteBeadChoice.png","","","","","","","","","","","","","","","","","","","","","","","",""
"image-keyboard-response","47","225091","0.0-4.0-4.0-1.0-2.10","60ff4fc94dbc53a93c790a0b","63690f60c96a0a9a64b48fbd","6369332ed22300905f35d889","null","","null","","","","","","","","./tasks/HMM-beads/Images/WhiteBeadChoiceWrong.png","","","","","","","","","","","","","","","","","","","","","","","",""
"image-keyboard-response","48","226410","0.0-4.0-4.0-1.0-0.11","60ff4fc94dbc53a93c790a0b","63690f60c96a0a9a64b48fbd","6369332ed22300905f35d889","1318","","f","","","","","","","","./tasks/HMM-beads/Images/NewTrialBC.png","practice","11","2","2","1","1","false","","","","","","","","","","","","","","","","",""
"image-keyboard-response","49","226712","0.0-4.0-4.0-1.0-1.11","60ff4fc94dbc53a93c790a0b","63690f60c96a0a9a64b48fbd","6369332ed22300905f35d889","null","","null","","","","","","","","./tasks/HMM-beads/Images/BlackBeadChoice.png","","","","","","","","","","","","","","","","","","","","","","","",""
"image-keyboard-response","50","227216","0.0-4.0-4.0-1.0-2.11","60ff4fc94dbc53a93c790a0b","63690f60c96a0a9a64b48fbd","6369332ed22300905f35d889","null","","null","","","","","","","","./tasks/HMM-beads/Images/BlackBeadChoiceWrong.png","","","","","","","","","","","","","","","","","","","","","","","",""
"image-keyboard-response","51","228309","0.0-4.0-4.0-1.0-0.12","60ff4fc94dbc53a93c790a0b","63690f60c96a0a9a64b48fbd","6369332ed22300905f35d889","1092","","f","","","","","","","","./tasks/HMM-beads/Images/NewTrialWC.png","practice","12","2","2","2","1","false","","","","","","","","","","","","","","","","",""
"image-keyboard-response","52","228616","0.0-4.0-4.0-1.0-1.12","60ff4fc94dbc53a93c790a0b","63690f60c96a0a9a64b48fbd","6369332ed22300905f35d889","null","","null","","","","","","","","./tasks/HMM-beads/Images/BlackBeadChoice.png","","","","","","","","","","","","","","","","","","","","","","","",""
"image-keyboard-response","53","229118","0.0-4.0-4.0-1.0-2.12","60ff4fc94dbc53a93c790a0b","63690f60c96a0a9a64b48fbd","6369332ed22300905f35d889","null","","null","","","","","","","","./tasks/HMM-beads/Images/BlackBeadChoiceWrong.png","","","","","","","","","","","","","","","","","","","","","","","",""
"image-keyboard-response","54","229506","0.0-4.0-4.0-1.0-0.13","60ff4fc94dbc53a93c790a0b","63690f60c96a0a9a64b48fbd","6369332ed22300905f35d889","387","","f","","","","","","","","./tasks/HMM-beads/Images/NewTrialWC.png","practice","13","2","2","2","1","false","","","","","","","","","","","","","","","","",""
"image-keyboard-response","55","229808","0.0-4.0-4.0-1.0-1.13","60ff4fc94dbc53a93c790a0b","63690f60c96a0a9a64b48fbd","6369332ed22300905f35d889","null","","null","","","","","","","","./tasks/HMM-beads/Images/BlackBeadChoice.png","","","","","","","","","","","","","","","","","","","","","","","",""
"image-keyboard-response","56","230314","0.0-4.0-4.0-1.0-2.13","60ff4fc94dbc53a93c790a0b","63690f60c96a0a9a64b48fbd","6369332ed22300905f35d889","null","","null","","","","","","","","./tasks/HMM-beads/Images/BlackBeadChoiceWrong.png","","","","","","","","","","","","","","","","","","","","","","","",""
"image-keyboard-response","57","230689","0.0-4.0-4.0-1.0-0.14","60ff4fc94dbc53a93c790a0b","63690f60c96a0a9a64b48fbd","6369332ed22300905f35d889","374","","f","","","","","","","","./tasks/HMM-beads/Images/NewTrialWC.png","practice","14","2","2","2","1","false","","","","","","","","","","","","","","","","",""
"image-keyboard-response","58","230990","0.0-4.0-4.0-1.0-1.14","60ff4fc94dbc53a93c790a0b","63690f60c96a0a9a64b48fbd","6369332ed22300905f35d889","null","","null","","","","","","","","./tasks/HMM-beads/Images/BlackBeadChoice.png","","","","","","","","","","","","","","","","","","","","","","","",""
"image-keyboard-response","59","231496","0.0-4.0-4.0-1.0-2.14","60ff4fc94dbc53a93c790a0b","63690f60c96a0a9a64b48fbd","6369332ed22300905f35d889","null","","null","","","","","","","","./tasks/HMM-beads/Images/BlackBeadChoiceWrong.png","","","","","","","","","","","","","","","","","","","","","","","",""
"image-keyboard-response","60","232012","0.0-4.0-4.0-1.0-0.15","60ff4fc94dbc53a93c790a0b","63690f60c96a0a9a64b48fbd","6369332ed22300905f35d889","515","","f","","","","","","","","./tasks/HMM-beads/Images/NewTrialWC.png","practice","15","1","1","2","1","true","","","","","","","","","","","","","","","","",""
"image-keyboard-response","61","232319","0.0-4.0-4.0-1.0-1.15","60ff4fc94dbc53a93c790a0b","63690f60c96a0a9a64b48fbd","6369332ed22300905f35d889","null","","null","","","","","","","","./tasks/HMM-beads/Images/BlackBeadChoice.png","","","","","","","","","","","","","","","","","","","","","","","",""
"image-keyboard-response","62","232823","0.0-4.0-4.0-1.0-2.15","60ff4fc94dbc53a93c790a0b","63690f60c96a0a9a64b48fbd","6369332ed22300905f35d889","null","","null","","","","","","","","./tasks/HMM-beads/Images/BlackBeadChoiceCorrect.png","","","","","","","","","","","","","","","","","","","","","","","",""
"image-keyboard-response","63","233281","0.0-4.0-4.0-1.0-0.16","60ff4fc94dbc53a93c790a0b","63690f60c96a0a9a64b48fbd","6369332ed22300905f35d889","457","","f","","","","","","","","./tasks/HMM-beads/Images/NewTrialBC.png","practice","16","1","2","1","1","false","","","","","","","","","","","","","","","","",""
"image-keyboard-response","64","233587","0.0-4.0-4.0-1.0-1.16","60ff4fc94dbc53a93c790a0b","63690f60c96a0a9a64b48fbd","6369332ed22300905f35d889","null","","null","","","","","","","","./tasks/HMM-beads/Images/BlackBeadChoice.png","","","","","","","","","","","","","","","","","","","","","","","",""
"image-keyboard-response","65","234092","0.0-4.0-4.0-1.0-2.16","60ff4fc94dbc53a93c790a0b","63690f60c96a0a9a64b48fbd","6369332ed22300905f35d889","null","","null","","","","","","","","./tasks/HMM-beads/Images/BlackBeadChoiceWrong.png","","","","","","","","","","","","","","","","","","","","","","","",""
"image-keyboard-response","66","234544","0.0-4.0-4.0-1.0-0.17","60ff4fc94dbc53a93c790a0b","63690f60c96a0a9a64b48fbd","6369332ed22300905f35d889","452","","j","","","","","","","","./tasks/HMM-beads/Images/NewTrialWC.png","practice","17","1","1","2","2","false","","","","","","","","","","","","","","","","",""
"image-keyboard-response","67","234861","0.0-4.0-4.0-1.0-1.17","60ff4fc94dbc53a93c790a0b","63690f60c96a0a9a64b48fbd","6369332ed22300905f35d889","null","","null","","","","","","","","./tasks/HMM-beads/Images/WhiteBeadChoice.png","","","","","","","","","","","","","","","","","","","","","","","",""
"image-keyboard-response","68","235367","0.0-4.0-4.0-1.0-2.17","60ff4fc94dbc53a93c790a0b","63690f60c96a0a9a64b48fbd","6369332ed22300905f35d889","null","","null","","","","","","","","./tasks/HMM-beads/Images/WhiteBeadChoiceWrong.png","","","","","","","","","","","","","","","","","","","","","","","",""
"image-keyboard-response","69","235943","0.0-4.0-4.0-1.0-0.18","60ff4fc94dbc53a93c790a0b","63690f60c96a0a9a64b48fbd","6369332ed22300905f35d889","574","","j","","","","","","","","./tasks/HMM-beads/Images/NewTrialBC.png","practice","18","1","1","1","2","false","","","","","","","","","","","","","","","","",""
"image-keyboard-response","70","236249","0.0-4.0-4.0-1.0-1.18","60ff4fc94dbc53a93c790a0b","63690f60c96a0a9a64b48fbd","6369332ed22300905f35d889","null","","null","","","","","","","","./tasks/HMM-beads/Images/WhiteBeadChoice.png","","","","","","","","","","","","","","","","","","","","","","","",""
"image-keyboard-response","71","236752","0.0-4.0-4.0-1.0-2.18","60ff4fc94dbc53a93c790a0b","63690f60c96a0a9a64b48fbd","6369332ed22300905f35d889","null","","null","","","","","","","","./tasks/HMM-beads/Images/WhiteBeadChoiceWrong.png","","","","","","","","","","","","","","","","","","","","","","","",""
"image-keyboard-response","72","237208","0.0-4.0-4.0-1.0-0.19","60ff4fc94dbc53a93c790a0b","63690f60c96a0a9a64b48fbd","6369332ed22300905f35d889","455","","f","","","","","","","","./tasks/HMM-beads/Images/NewTrialBC.png","practice","19","1","1","1","1","true","","","","","","","","","","","","","","","","",""
"image-keyboard-response","73","237513","0.0-4.0-4.0-1.0-1.19","60ff4fc94dbc53a93c790a0b","63690f60c96a0a9a64b48fbd","6369332ed22300905f35d889","null","","null","","","","","","","","./tasks/HMM-beads/Images/BlackBeadChoice.png","","","","","","","","","","","","","","","","","","","","","","","",""
"image-keyboard-response","74","238019","0.0-4.0-4.0-1.0-2.19","60ff4fc94dbc53a93c790a0b","63690f60c96a0a9a64b48fbd","6369332ed22300905f35d889","null","","null","","","","","","","","./tasks/HMM-beads/Images/BlackBeadChoiceCorrect.png","","","","","","","","","","","","","","","","","","","","","","","",""
"html-keyboard-response","75","289990","0.0-4.0-4.0-2.0","60ff4fc94dbc53a93c790a0b","63690f60c96a0a9a64b48fbd","6369332ed22300905f35d889","51969",""," ","","","","","","","","","","","","","","","","","","","","","","","","","","","","","","","",""
"instructions","76","297846","0.0-4.0-5.0","60ff4fc94dbc53a93c790a0b","63690f60c96a0a9a64b48fbd","6369332ed22300905f35d889","7856","","","","[{""page_index"":0,""viewing_time"":4777},{""page_index"":1,""viewing_time"":3078}]","","","","","","","","","","","","","","","","","","","","","","","","","","","","","",""
"html-keyboard-response","77","299733","0.0-4.0-6.0-0.0","60ff4fc94dbc53a93c790a0b","63690f60c96a0a9a64b48fbd","6369332ed22300905f35d889","1886",""," ","","","","","","","","<div align=center>In this block, there will be a <b>1% chance</b> that the jar on the next trial will be different from the jar on the current trial.<br><br></div>","","","","","","","","","","","","","","","","","","","","","","","",""
"image-keyboard-response","78","301070","0.0-4.0-6.0-1.0-0.0","60ff4fc94dbc53a93c790a0b","63690f60c96a0a9a64b48fbd","6369332ed22300905f35d889","1335","","j","","","","","","","","./tasks/HMM-beads/Images/NoChoice.png","lowH","0","2","2","0","2","true","","","","","","","","","","","","","","","","",""
"image-keyboard-response","79","301371","0.0-4.0-6.0-1.0-1.0","60ff4fc94dbc53a93c790a0b","63690f60c96a0a9a64b48fbd","6369332ed22300905f35d889","null","","null","","","","","","","","./tasks/HMM-beads/Images/WhiteBeadChoice.png","","","","","","","","","","","","","","","","","","","","","","","",""
"image-keyboard-response","80","301875","0.0-4.0-6.0-1.0-2.0","60ff4fc94dbc53a93c790a0b","63690f60c96a0a9a64b48fbd","6369332ed22300905f35d889","null","","null","","","","","","","","./tasks/HMM-beads/Images/WhiteBeadChoiceCorrect.png","","","","","","","","","","","","","","","","","","","","","","","",""
"image-keyboard-response","81","302717","0.0-4.0-6.0-1.0-0.1","60ff4fc94dbc53a93c790a0b","63690f60c96a0a9a64b48fbd","6369332ed22300905f35d889","840","","j","","","","","","","","./tasks/HMM-beads/Images/NewTrialWC.png","lowH","1","2","2","2","2","true","","","","","","","","","","","","","","","","",""
"image-keyboard-response","82","303023","0.0-4.0-6.0-1.0-1.1","60ff4fc94dbc53a93c790a0b","63690f60c96a0a9a64b48fbd","6369332ed22300905f35d889","null","","null","","","","","","","","./tasks/HMM-beads/Images/WhiteBeadChoice.png","","","","","","","","","","","","","","","","","","","","","","","",""
"image-keyboard-response","83","303538","0.0-4.0-6.0-1.0-2.1","60ff4fc94dbc53a93c790a0b","63690f60c96a0a9a64b48fbd","6369332ed22300905f35d889","null","","null","","","","","","","","./tasks/HMM-beads/Images/WhiteBeadChoiceCorrect.png","","","","","","","","","","","","","","","","","","","","","","","",""
"image-keyboard-response","84","305200","0.0-4.0-6.0-1.0-0.2","60ff4fc94dbc53a93c790a0b","63690f60c96a0a9a64b48fbd","6369332ed22300905f35d889","1661","","j","","","","","","","","./tasks/HMM-beads/Images/NewTrialWC.png","lowH","2","2","2","2","2","true","","","","","","","","","","","","","","","","",""
"image-keyboard-response","85","305502","0.0-4.0-6.0-1.0-1.2","60ff4fc94dbc53a93c790a0b","63690f60c96a0a9a64b48fbd","6369332ed22300905f35d889","null","","null","","","","","","","","./tasks/HMM-beads/Images/WhiteBeadChoice.png","","","","","","","","","","","","","","","","","","","","","","","",""
"image-keyboard-response","86","306006","0.0-4.0-6.0-1.0-2.2","60ff4fc94dbc53a93c790a0b","63690f60c96a0a9a64b48fbd","6369332ed22300905f35d889","null","","null","","","","","","","","./tasks/HMM-beads/Images/WhiteBeadChoiceCorrect.png","","","","","","","","","","","","","","","","","","","","","","","",""
"image-keyboard-response","87","306594","0.0-4.0-6.0-1.0-0.3","60ff4fc94dbc53a93c790a0b","63690f60c96a0a9a64b48fbd","6369332ed22300905f35d889","587","","f","","","","","","","","./tasks/HMM-beads/Images/NewTrialWC.png","lowH","3","2","2","2","1","false","","","","","","","","","","","","","","","","",""
"image-keyboard-response","88","306899","0.0-4.0-6.0-1.0-1.3","60ff4fc94dbc53a93c790a0b","63690f60c96a0a9a64b48fbd","6369332ed22300905f35d889","null","","null","","","","","","","","./tasks/HMM-beads/Images/BlackBeadChoice.png","","","","","","","","","","","","","","","","","","","","","","","",""
"image-keyboard-response","89","307405","0.0-4.0-6.0-1.0-2.3","60ff4fc94dbc53a93c790a0b","63690f60c96a0a9a64b48fbd","6369332ed22300905f35d889","null","","null","","","","","","","","./tasks/HMM-beads/Images/BlackBeadChoiceWrong.png","","","","","","","","","","","","","","","","","","","","","","","",""
"image-keyboard-response","90","308037","0.0-4.0-6.0-1.0-0.4","60ff4fc94dbc53a93c790a0b","63690f60c96a0a9a64b48fbd","6369332ed22300905f35d889","631","","f","","","","","","","","./tasks/HMM-beads/Images/NewTrialWC.png","lowH","4","2","1","2","1","true","","","","","","","","","","","","","","","","",""
"image-keyboard-response","91","308341","0.0-4.0-6.0-1.0-1.4","60ff4fc94dbc53a93c790a0b","63690f60c96a0a9a64b48fbd","6369332ed22300905f35d889","null","","null","","","","","","","","./tasks/HMM-beads/Images/BlackBeadChoice.png","","","","","","","","","","","","","","","","","","","","","","","",""
"image-keyboard-response","92","308848","0.0-4.0-6.0-1.0-2.4","60ff4fc94dbc53a93c790a0b","63690f60c96a0a9a64b48fbd","6369332ed22300905f35d889","null","","null","","","","","","","","./tasks/HMM-beads/Images/BlackBeadChoiceCorrect.png","","","","","","","","","","","","","","","","","","","","","","","",""
"image-keyboard-response","93","309787","0.0-4.0-6.0-1.0-0.5","60ff4fc94dbc53a93c790a0b","63690f60c96a0a9a64b48fbd","6369332ed22300905f35d889","938","","f","","","","","","","","./tasks/HMM-beads/Images/NewTrialBC.png","lowH","5","2","2","1","1","false","","","","","","","","","","","","","","","","",""
"image-keyboard-response","94","310093","0.0-4.0-6.0-1.0-1.5","60ff4fc94dbc53a93c790a0b","63690f60c96a0a9a64b48fbd","6369332ed22300905f35d889","null","","null","","","","","","","","./tasks/HMM-beads/Images/BlackBeadChoice.png","","","","","","","","","","","","","","","","","","","","","","","",""
"image-keyboard-response","95","310599","0.0-4.0-6.0-1.0-2.5","60ff4fc94dbc53a93c790a0b","63690f60c96a0a9a64b48fbd","6369332ed22300905f35d889","null","","null","","","","","","","","./tasks/HMM-beads/Images/BlackBeadChoiceWrong.png","","","","","","","","","","","","","","","","","","","","","","","",""
"image-keyboard-response","96","311184","0.0-4.0-6.0-1.0-0.6","60ff4fc94dbc53a93c790a0b","63690f60c96a0a9a64b48fbd","6369332ed22300905f35d889","583","","j","","","","","","","","./tasks/HMM-beads/Images/NewTrialWC.png","lowH","6","2","2","2","2","true","","","","","","","","","","","","","","","","",""
"image-keyboard-response","97","311490","0.0-4.0-6.0-1.0-1.6","60ff4fc94dbc53a93c790a0b","63690f60c96a0a9a64b48fbd","6369332ed22300905f35d889","null","","null","","","","","","","","./tasks/HMM-beads/Images/WhiteBeadChoice.png","","","","","","","","","","","","","","","","","","","","","","","",""
"image-keyboard-response","98","311995","0.0-4.0-6.0-1.0-2.6","60ff4fc94dbc53a93c790a0b","63690f60c96a0a9a64b48fbd","6369332ed22300905f35d889","null","","null","","","","","","","","./tasks/HMM-beads/Images/WhiteBeadChoiceCorrect.png","","","","","","","","","","","","","","","","","","","","","","","",""
"image-keyboard-response","99","312670","0.0-4.0-6.0-1.0-0.7","60ff4fc94dbc53a93c790a0b","63690f60c96a0a9a64b48fbd","6369332ed22300905f35d889","674","","j","","","","","","","","./tasks/HMM-beads/Images/NewTrialWC.png","lowH","7","2","2","2","2","true","","","","","","","","","","","","","","","","",""
"image-keyboard-response","100","312972","0.0-4.0-6.0-1.0-1.7","60ff4fc94dbc53a93c790a0b","63690f60c96a0a9a64b48fbd","6369332ed22300905f35d889","null","","null","","","","","","","","./tasks/HMM-beads/Images/WhiteBeadChoice.png","","","","","","","","","","","","","","","","","","","","","","","",""
"image-keyboard-response","101","313473","0.0-4.0-6.0-1.0-2.7","60ff4fc94dbc53a93c790a0b","63690f60c96a0a9a64b48fbd","6369332ed22300905f35d889","null","","null","","","","","","","","./tasks/HMM-beads/Images/WhiteBeadChoiceCorrect.png","","","","","","","","","","","","","","","","","","","","","","","",""
"image-keyboard-response","102","314361","0.0-4.0-6.0-1.0-0.8","60ff4fc94dbc53a93c790a0b","63690f60c96a0a9a64b48fbd","6369332ed22300905f35d889","887","","j","","","","","","","","./tasks/HMM-beads/Images/NewTrialWC.png","lowH","8","2","2","2","2","true","","","","","","","","","","","","","","","","",""
"image-keyboard-response","103","314666","0.0-4.0-6.0-1.0-1.8","60ff4fc94dbc53a93c790a0b","63690f60c96a0a9a64b48fbd","6369332ed22300905f35d889","null","","null","","","","","","","","./tasks/HMM-beads/Images/WhiteBeadChoice.png","","","","","","","","","","","","","","","","","","","","","","","",""
"image-keyboard-response","104","315172","0.0-4.0-6.0-1.0-2.8","60ff4fc94dbc53a93c790a0b","63690f60c96a0a9a64b48fbd","6369332ed22300905f35d889","null","","null","","","","","","","","./tasks/HMM-beads/Images/WhiteBeadChoiceCorrect.png","","","","","","","","","","","","","","","","","","","","","","","",""
"image-keyboard-response","105","316031","0.0-4.0-6.0-1.0-0.9","60ff4fc94dbc53a93c790a0b","63690f60c96a0a9a64b48fbd","6369332ed22300905f35d889","846","","f","","","","","","","","./tasks/HMM-beads/Images/NewTrialWC.png","lowH","9","2","2","2","1","false","","","","","","","","","","","","","","","","",""
"image-keyboard-response","106","316335","0.0-4.0-6.0-1.0-1.9","60ff4fc94dbc53a93c790a0b","63690f60c96a0a9a64b48fbd","6369332ed22300905f35d889","null","","null","","","","","","","","./tasks/HMM-beads/Images/BlackBeadChoice.png","","","","","","","","","","","","","","","","","","","","","","","",""
"image-keyboard-response","107","316839","0.0-4.0-6.0-1.0-2.9","60ff4fc94dbc53a93c790a0b","63690f60c96a0a9a64b48fbd","6369332ed22300905f35d889","null","","null","","","","","","","","./tasks/HMM-beads/Images/BlackBeadChoiceWrong.png","","","","","","","","","","","","","","","","","","","","","","","",""
"image-keyboard-response","108","317411","0.0-4.0-6.0-1.0-0.10","60ff4fc94dbc53a93c790a0b","63690f60c96a0a9a64b48fbd","6369332ed22300905f35d889","570","","f","","","","","","","","./tasks/HMM-beads/Images/NewTrialWC.png","lowH","10","2","2","2","1","false","","","","","","","","","","","","","","","","",""
"image-keyboard-response","109","317717","0.0-4.0-6.0-1.0-1.10","60ff4fc94dbc53a93c790a0b","63690f60c96a0a9a64b48fbd","6369332ed22300905f35d889","null","","null","","","","","","","","./tasks/HMM-beads/Images/BlackBeadChoice.png","","","","","","","","","","","","","","","","","","","","","","","",""
"image-keyboard-response","110","318221","0.0-4.0-6.0-1.0-2.10","60ff4fc94dbc53a93c790a0b","63690f60c96a0a9a64b48fbd","6369332ed22300905f35d889","null","","null","","","","","","","","./tasks/HMM-beads/Images/BlackBeadChoiceWrong.png","","","","","","","","","","","","","","","","","","","","","","","",""
"image-keyboard-response","111","319023","0.0-4.0-6.0-1.0-0.11","60ff4fc94dbc53a93c790a0b","63690f60c96a0a9a64b48fbd","6369332ed22300905f35d889","800","","j","","","","","","","","./tasks/HMM-beads/Images/NewTrialWC.png","lowH","11","2","2","2","2","true","","","","","","","","","","","","","","","","",""
"image-keyboard-response","112","319327","0.0-4.0-6.0-1.0-1.11","60ff4fc94dbc53a93c790a0b","63690f60c96a0a9a64b48fbd","6369332ed22300905f35d889","null","","null","","","","","","","","./tasks/HMM-beads/Images/WhiteBeadChoice.png","","","","","","","","","","","","","","","","","","","","","","","",""
"image-keyboard-response","113","319828","0.0-4.0-6.0-1.0-2.11","60ff4fc94dbc53a93c790a0b","63690f60c96a0a9a64b48fbd","6369332ed22300905f35d889","null","","null","","","","","","","","./tasks/HMM-beads/Images/WhiteBeadChoiceCorrect.png","","","","","","","","","","","","","","","","","","","","","","","",""
"image-keyboard-response","114","320636","0.0-4.0-6.0-1.0-0.12","60ff4fc94dbc53a93c790a0b","63690f60c96a0a9a64b48fbd","6369332ed22300905f35d889","807","","j","","","","","","","","./tasks/HMM-beads/Images/NewTrialWC.png","lowH","12","2","2","2","2","true","","","","","","","","","","","","","","","","",""
"image-keyboard-response","115","320940","0.0-4.0-6.0-1.0-1.12","60ff4fc94dbc53a93c790a0b","63690f60c96a0a9a64b48fbd","6369332ed22300905f35d889","null","","null","","","","","","","","./tasks/HMM-beads/Images/WhiteBeadChoice.png","","","","","","","","","","","","","","","","","","","","","","","",""
"image-keyboard-response","116","321445","0.0-4.0-6.0-1.0-2.12","60ff4fc94dbc53a93c790a0b","63690f60c96a0a9a64b48fbd","6369332ed22300905f35d889","null","","null","","","","","","","","./tasks/HMM-beads/Images/WhiteBeadChoiceCorrect.png","","","","","","","","","","","","","","","","","","","","","","","",""
"image-keyboard-response","117","322523","0.0-4.0-6.0-1.0-0.13","60ff4fc94dbc53a93c790a0b","63690f60c96a0a9a64b48fbd","6369332ed22300905f35d889","1078","","j","","","","","","","","./tasks/HMM-beads/Images/NewTrialWC.png","lowH","13","2","2","2","2","true","","","","","","","","","","","","","","","","",""
"image-keyboard-response","118","322836","0.0-4.0-6.0-1.0-1.13","60ff4fc94dbc53a93c790a0b","63690f60c96a0a9a64b48fbd","6369332ed22300905f35d889","null","","null","","","","","","","","./tasks/HMM-beads/Images/WhiteBeadChoice.png","","","","","","","","","","","","","","","","","","","","","","","",""
"image-keyboard-response","119","323343","0.0-4.0-6.0-1.0-2.13","60ff4fc94dbc53a93c790a0b","63690f60c96a0a9a64b48fbd","6369332ed22300905f35d889","null","","null","","","","","","","","./tasks/HMM-beads/Images/WhiteBeadChoiceCorrect.png","","","","","","","","","","","","","","","","","","","","","","","",""
"image-keyboard-response","120","324216","0.0-4.0-6.0-1.0-0.14","60ff4fc94dbc53a93c790a0b","63690f60c96a0a9a64b48fbd","6369332ed22300905f35d889","872","","j","","","","","","","","./tasks/HMM-beads/Images/NewTrialWC.png","lowH","14","2","2","2","2","true","","","","","","","","","","","","","","","","",""
"image-keyboard-response","121","324517","0.0-4.0-6.0-1.0-1.14","60ff4fc94dbc53a93c790a0b","63690f60c96a0a9a64b48fbd","6369332ed22300905f35d889","null","","null","","","","","","","","./tasks/HMM-beads/Images/WhiteBeadChoice.png","","","","","","","","","","","","","","","","","","","","","","","",""
"image-keyboard-response","122","325021","0.0-4.0-6.0-1.0-2.14","60ff4fc94dbc53a93c790a0b","63690f60c96a0a9a64b48fbd","6369332ed22300905f35d889","null","","null","","","","","","","","./tasks/HMM-beads/Images/WhiteBeadChoiceCorrect.png","","","","","","","","","","","","","","","","","","","","","","","",""
"image-keyboard-response","123","325804","0.0-4.0-6.0-1.0-0.15","60ff4fc94dbc53a93c790a0b","63690f60c96a0a9a64b48fbd","6369332ed22300905f35d889","782","","j","","","","","","","","./tasks/HMM-beads/Images/NewTrialWC.png","lowH","15","2","1","2","2","false","","","","","","","","","","","","","","","","",""
"image-keyboard-response","124","326108","0.0-4.0-6.0-1.0-1.15","60ff4fc94dbc53a93c790a0b","63690f60c96a0a9a64b48fbd","6369332ed22300905f35d889","null","","null","","","","","","","","./tasks/HMM-beads/Images/WhiteBeadChoice.png","","","","","","","","","","","","","","","","","","","","","","","",""
"image-keyboard-response","125","326612","0.0-4.0-6.0-1.0-2.15","60ff4fc94dbc53a93c790a0b","63690f60c96a0a9a64b48fbd","6369332ed22300905f35d889","null","","null","","","","","","","","./tasks/HMM-beads/Images/WhiteBeadChoiceWrong.png","","","","","","","","","","","","","","","","","","","","","","","",""
"image-keyboard-response","126","327318","0.0-4.0-6.0-1.0-0.16","60ff4fc94dbc53a93c790a0b","63690f60c96a0a9a64b48fbd","6369332ed22300905f35d889","705","","f","","","","","","","","./tasks/HMM-beads/Images/NewTrialBC.png","lowH","16","2","1","1","1","true","","","","","","","","","","","","","","","","",""
"image-keyboard-response","127","327621","0.0-4.0-6.0-1.0-1.16","60ff4fc94dbc53a93c790a0b","63690f60c96a0a9a64b48fbd","6369332ed22300905f35d889","null","","null","","","","","","","","./tasks/HMM-beads/Images/BlackBeadChoice.png","","","","","","","","","","","","","","","","","","","","","","","",""
"image-keyboard-response","128","328125","0.0-4.0-6.0-1.0-2.16","60ff4fc94dbc53a93c790a0b","63690f60c96a0a9a64b48fbd","6369332ed22300905f35d889","null","","null","","","","","","","","./tasks/HMM-beads/Images/BlackBeadChoiceCorrect.png","","","","","","","","","","","","","","","","","","","","","","","",""
"image-keyboard-response","129","328746","0.0-4.0-6.0-1.0-0.17","60ff4fc94dbc53a93c790a0b","63690f60c96a0a9a64b48fbd","6369332ed22300905f35d889","621","","f","","","","","","","","./tasks/HMM-beads/Images/NewTrialBC.png","lowH","17","2","2","1","1","false","","","","","","","","","","","","","","","","",""
"image-keyboard-response","130","329050","0.0-4.0-6.0-1.0-1.17","60ff4fc94dbc53a93c790a0b","63690f60c96a0a9a64b48fbd","6369332ed22300905f35d889","null","","null","","","","","","","","./tasks/HMM-beads/Images/BlackBeadChoice.png","","","","","","","","","","","","","","","","","","","","","","","",""
"image-keyboard-response","131","329556","0.0-4.0-6.0-1.0-2.17","60ff4fc94dbc53a93c790a0b","63690f60c96a0a9a64b48fbd","6369332ed22300905f35d889","null","","null","","","","","","","","./tasks/HMM-beads/Images/BlackBeadChoiceWrong.png","","","","","","","","","","","","","","","","","","","","","","","",""
"image-keyboard-response","132","331044","0.0-4.0-6.0-1.0-0.18","60ff4fc94dbc53a93c790a0b","63690f60c96a0a9a64b48fbd","6369332ed22300905f35d889","1488","","f","","","","","","","","./tasks/HMM-beads/Images/NewTrialWC.png","lowH","18","2","2","2","1","false","","","","","","","","","","","","","","","","",""
"image-keyboard-response","133","331346","0.0-4.0-6.0-1.0-1.18","60ff4fc94dbc53a93c790a0b","63690f60c96a0a9a64b48fbd","6369332ed22300905f35d889","null","","null","","","","","","","","./tasks/HMM-beads/Images/BlackBeadChoice.png","","","","","","","","","","","","","","","","","","","","","","","",""
"image-keyboard-response","134","331849","0.0-4.0-6.0-1.0-2.18","60ff4fc94dbc53a93c790a0b","63690f60c96a0a9a64b48fbd","6369332ed22300905f35d889","null","","null","","","","","","","","./tasks/HMM-beads/Images/BlackBeadChoiceWrong.png","","","","","","","","","","","","","","","","","","","","","","","",""
"image-keyboard-response","135","332966","0.0-4.0-6.0-1.0-0.19","60ff4fc94dbc53a93c790a0b","63690f60c96a0a9a64b48fbd","6369332ed22300905f35d889","1116","","f","","","","","","","","./tasks/HMM-beads/Images/NewTrialWC.png","lowH","19","2","2","2","1","false","","","","","","","","","","","","","","","","",""
"image-keyboard-response","136","333272","0.0-4.0-6.0-1.0-1.19","60ff4fc94dbc53a93c790a0b","63690f60c96a0a9a64b48fbd","6369332ed22300905f35d889","null","","null","","","","","","","","./tasks/HMM-beads/Images/BlackBeadChoice.png","","","","","","","","","","","","","","","","","","","","","","","",""
"image-keyboard-response","137","333790","0.0-4.0-6.0-1.0-2.19","60ff4fc94dbc53a93c790a0b","63690f60c96a0a9a64b48fbd","6369332ed22300905f35d889","null","","null","","","","","","","","./tasks/HMM-beads/Images/BlackBeadChoiceWrong.png","","","","","","","","","","","","","","","","","","","","","","","",""
"image-keyboard-response","138","334542","0.0-4.0-6.0-1.0-0.20","60ff4fc94dbc53a93c790a0b","63690f60c96a0a9a64b48fbd","6369332ed22300905f35d889","750","","j","","","","","","","","./tasks/HMM-beads/Images/NewTrialWC.png","lowH","20","2","2","2","2","true","","","","","","","","","","","","","","","","",""
"image-keyboard-response","139","334845","0.0-4.0-6.0-1.0-1.20","60ff4fc94dbc53a93c790a0b","63690f60c96a0a9a64b48fbd","6369332ed22300905f35d889","null","","null","","","","","","","","./tasks/HMM-beads/Images/WhiteBeadChoice.png","","","","","","","","","","","","","","","","","","","","","","","",""
"image-keyboard-response","140","335347","0.0-4.0-6.0-1.0-2.20","60ff4fc94dbc53a93c790a0b","63690f60c96a0a9a64b48fbd","6369332ed22300905f35d889","null","","null","","","","","","","","./tasks/HMM-beads/Images/WhiteBeadChoiceCorrect.png","","","","","","","","","","","","","","","","","","","","","","","",""
"image-keyboard-response","141","335975","0.0-4.0-6.0-1.0-0.21","60ff4fc94dbc53a93c790a0b","63690f60c96a0a9a64b48fbd","6369332ed22300905f35d889","627","","j","","","","","","","","./tasks/HMM-beads/Images/NewTrialWC.png","lowH","21","2","2","2","2","true","","","","","","","","","","","","","","","","",""
"image-keyboard-response","142","336281","0.0-4.0-6.0-1.0-1.21","60ff4fc94dbc53a93c790a0b","63690f60c96a0a9a64b48fbd","6369332ed22300905f35d889","null","","null","","","","","","","","./tasks/HMM-beads/Images/WhiteBeadChoice.png","","","","","","","","","","","","","","","","","","","","","","","",""
"image-keyboard-response","143","336787","0.0-4.0-6.0-1.0-2.21","60ff4fc94dbc53a93c790a0b","63690f60c96a0a9a64b48fbd","6369332ed22300905f35d889","null","","null","","","","","","","","./tasks/HMM-beads/Images/WhiteBeadChoiceCorrect.png","","","","","","","","","","","","","","","","","","","","","","","",""
"image-keyboard-response","144","337343","0.0-4.0-6.0-1.0-0.22","60ff4fc94dbc53a93c790a0b","63690f60c96a0a9a64b48fbd","6369332ed22300905f35d889","555","","j","","","","","","","","./tasks/HMM-beads/Images/NewTrialWC.png","lowH","22","2","2","2","2","true","","","","","","","","","","","","","","","","",""
"image-keyboard-response","145","337648","0.0-4.0-6.0-1.0-1.22","60ff4fc94dbc53a93c790a0b","63690f60c96a0a9a64b48fbd","6369332ed22300905f35d889","null","","null","","","","","","","","./tasks/HMM-beads/Images/WhiteBeadChoice.png","","","","","","","","","","","","","","","","","","","","","","","",""
"image-keyboard-response","146","338150","0.0-4.0-6.0-1.0-2.22","60ff4fc94dbc53a93c790a0b","63690f60c96a0a9a64b48fbd","6369332ed22300905f35d889","null","","null","","","","","","","","./tasks/HMM-beads/Images/WhiteBeadChoiceCorrect.png","","","","","","","","","","","","","","","","","","","","","","","",""
"image-keyboard-response","147","338669","0.0-4.0-6.0-1.0-0.23","60ff4fc94dbc53a93c790a0b","63690f60c96a0a9a64b48fbd","6369332ed22300905f35d889","518","","j","","","","","","","","./tasks/HMM-beads/Images/NewTrialWC.png","lowH","23","2","2","2","2","true","","","","","","","","","","","","","","","","",""
"image-keyboard-response","148","338972","0.0-4.0-6.0-1.0-1.23","60ff4fc94dbc53a93c790a0b","63690f60c96a0a9a64b48fbd","6369332ed22300905f35d889","null","","null","","","","","","","","./tasks/HMM-beads/Images/WhiteBeadChoice.png","","","","","","","","","","","","","","","","","","","","","","","",""
"image-keyboard-response","149","339479","0.0-4.0-6.0-1.0-2.23","60ff4fc94dbc53a93c790a0b","63690f60c96a0a9a64b48fbd","6369332ed22300905f35d889","null","","null","","","","","","","","./tasks/HMM-beads/Images/WhiteBeadChoiceCorrect.png","","","","","","","","","","","","","","","","","","","","","","","",""
"image-keyboard-response","150","340098","0.0-4.0-6.0-1.0-0.24","60ff4fc94dbc53a93c790a0b","63690f60c96a0a9a64b48fbd","6369332ed22300905f35d889","618","","j","","","","","","","","./tasks/HMM-beads/Images/NewTrialWC.png","lowH","24","2","2","2","2","true","","","","","","","","","","","","","","","","",""
"image-keyboard-response","151","340404","0.0-4.0-6.0-1.0-1.24","60ff4fc94dbc53a93c790a0b","63690f60c96a0a9a64b48fbd","6369332ed22300905f35d889","null","","null","","","","","","","","./tasks/HMM-beads/Images/WhiteBeadChoice.png","","","","","","","","","","","","","","","","","","","","","","","",""
"image-keyboard-response","152","340911","0.0-4.0-6.0-1.0-2.24","60ff4fc94dbc53a93c790a0b","63690f60c96a0a9a64b48fbd","6369332ed22300905f35d889","null","","null","","","","","","","","./tasks/HMM-beads/Images/WhiteBeadChoiceCorrect.png","","","","","","","","","","","","","","","","","","","","","","","",""
"image-keyboard-response","153","341808","0.0-4.0-6.0-1.0-0.25","60ff4fc94dbc53a93c790a0b","63690f60c96a0a9a64b48fbd","6369332ed22300905f35d889","896","","f","","","","","","","","./tasks/HMM-beads/Images/NewTrialWC.png","lowH","25","2","2","2","1","false","","","","","","","","","","","","","","","","",""
"image-keyboard-response","154","342109","0.0-4.0-6.0-1.0-1.25","60ff4fc94dbc53a93c790a0b","63690f60c96a0a9a64b48fbd","6369332ed22300905f35d889","null","","null","","","","","","","","./tasks/HMM-beads/Images/BlackBeadChoice.png","","","","","","","","","","","","","","","","","","","","","","","",""
"image-keyboard-response","155","342611","0.0-4.0-6.0-1.0-2.25","60ff4fc94dbc53a93c790a0b","63690f60c96a0a9a64b48fbd","6369332ed22300905f35d889","null","","null","","","","","","","","./tasks/HMM-beads/Images/BlackBeadChoiceWrong.png","","","","","","","","","","","","","","","","","","","","","","","",""
"image-keyboard-response","156","343079","0.0-4.0-6.0-1.0-0.26","60ff4fc94dbc53a93c790a0b","63690f60c96a0a9a64b48fbd","6369332ed22300905f35d889","467","","j","","","","","","","","./tasks/HMM-beads/Images/NewTrialWC.png","lowH","26","2","2","2","2","true","","","","","","","","","","","","","","","","",""
"image-keyboard-response","157","343384","0.0-4.0-6.0-1.0-1.26","60ff4fc94dbc53a93c790a0b","63690f60c96a0a9a64b48fbd","6369332ed22300905f35d889","null","","null","","","","","","","","./tasks/HMM-beads/Images/WhiteBeadChoice.png","","","","","","","","","","","","","","","","","","","","","","","",""
"image-keyboard-response","158","343886","0.0-4.0-6.0-1.0-2.26","60ff4fc94dbc53a93c790a0b","63690f60c96a0a9a64b48fbd","6369332ed22300905f35d889","null","","null","","","","","","","","./tasks/HMM-beads/Images/WhiteBeadChoiceCorrect.png","","","","","","","","","","","","","","","","","","","","","","","",""
"image-keyboard-response","159","344291","0.0-4.0-6.0-1.0-0.27","60ff4fc94dbc53a93c790a0b","63690f60c96a0a9a64b48fbd","6369332ed22300905f35d889","404","","j","","","","","","","","./tasks/HMM-beads/Images/NewTrialWC.png","lowH","27","2","2","2","2","true","","","","","","","","","","","","","","","","",""
"image-keyboard-response","160","344592","0.0-4.0-6.0-1.0-1.27","60ff4fc94dbc53a93c790a0b","63690f60c96a0a9a64b48fbd","6369332ed22300905f35d889","null","","null","","","","","","","","./tasks/HMM-beads/Images/WhiteBeadChoice.png","","","","","","","","","","","","","","","","","","","","","","","",""
"image-keyboard-response","161","345093","0.0-4.0-6.0-1.0-2.27","60ff4fc94dbc53a93c790a0b","63690f60c96a0a9a64b48fbd","6369332ed22300905f35d889","null","","null","","","","","","","","./tasks/HMM-beads/Images/WhiteBeadChoiceCorrect.png","","","","","","","","","","","","","","","","","","","","","","","",""
"image-keyboard-response","162","345530","0.0-4.0-6.0-1.0-0.28","60ff4fc94dbc53a93c790a0b","63690f60c96a0a9a64b48fbd","6369332ed22300905f35d889","436","","j","","","","","","","","./tasks/HMM-beads/Images/NewTrialWC.png","lowH","28","2","2","2","2","true","","","","","","","","","","","","","","","","",""
"image-keyboard-response","163","345832","0.0-4.0-6.0-1.0-1.28","60ff4fc94dbc53a93c790a0b","63690f60c96a0a9a64b48fbd","6369332ed22300905f35d889","null","","null","","","","","","","","./tasks/HMM-beads/Images/WhiteBeadChoice.png","","","","","","","","","","","","","","","","","","","","","","","",""
"image-keyboard-response","164","346336","0.0-4.0-6.0-1.0-2.28","60ff4fc94dbc53a93c790a0b","63690f60c96a0a9a64b48fbd","6369332ed22300905f35d889","null","","null","","","","","","","","./tasks/HMM-beads/Images/WhiteBeadChoiceCorrect.png","","","","","","","","","","","","","","","","","","","","","","","",""
"image-keyboard-response","165","346748","0.0-4.0-6.0-1.0-0.29","60ff4fc94dbc53a93c790a0b","63690f60c96a0a9a64b48fbd","6369332ed22300905f35d889","410","","j","","","","","","","","./tasks/HMM-beads/Images/NewTrialWC.png","lowH","29","2","1","2","2","false","","","","","","","","","","","","","","","","",""
"image-keyboard-response","166","347050","0.0-4.0-6.0-1.0-1.29","60ff4fc94dbc53a93c790a0b","63690f60c96a0a9a64b48fbd","6369332ed22300905f35d889","null","","null","","","","","","","","./tasks/HMM-beads/Images/WhiteBeadChoice.png","","","","","","","","","","","","","","","","","","","","","","","",""
"image-keyboard-response","167","347555","0.0-4.0-6.0-1.0-2.29","60ff4fc94dbc53a93c790a0b","63690f60c96a0a9a64b48fbd","6369332ed22300905f35d889","null","","null","","","","","","","","./tasks/HMM-beads/Images/WhiteBeadChoiceWrong.png","","","","","","","","","","","","","","","","","","","","","","","",""
"image-keyboard-response","168","348845","0.0-4.0-6.0-1.0-0.30","60ff4fc94dbc53a93c790a0b","63690f60c96a0a9a64b48fbd","6369332ed22300905f35d889","1289","","j","","","","","","","","./tasks/HMM-beads/Images/NewTrialBC.png","lowH","30","2","2","1","2","true","","","","","","","","","","","","","","","","",""
"image-keyboard-response","169","349158","0.0-4.0-6.0-1.0-1.30","60ff4fc94dbc53a93c790a0b","63690f60c96a0a9a64b48fbd","6369332ed22300905f35d889","null","","null","","","","","","","","./tasks/HMM-beads/Images/WhiteBeadChoice.png","","","","","","","","","","","","","","","","","","","","","","","",""
"image-keyboard-response","170","349659","0.0-4.0-6.0-1.0-2.30","60ff4fc94dbc53a93c790a0b","63690f60c96a0a9a64b48fbd","6369332ed22300905f35d889","null","","null","","","","","","","","./tasks/HMM-beads/Images/WhiteBeadChoiceCorrect.png","","","","","","","","","","","","","","","","","","","","","","","",""
"image-keyboard-response","171","350092","0.0-4.0-6.0-1.0-0.31","60ff4fc94dbc53a93c790a0b","63690f60c96a0a9a64b48fbd","6369332ed22300905f35d889","432","","j","","","","","","","","./tasks/HMM-beads/Images/NewTrialWC.png","lowH","31","2","1","2","2","false","","","","","","","","","","","","","","","","",""
"image-keyboard-response","172","350395","0.0-4.0-6.0-1.0-1.31","60ff4fc94dbc53a93c790a0b","63690f60c96a0a9a64b48fbd","6369332ed22300905f35d889","null","","null","","","","","","","","./tasks/HMM-beads/Images/WhiteBeadChoice.png","","","","","","","","","","","","","","","","","","","","","","","",""
"image-keyboard-response","173","350902","0.0-4.0-6.0-1.0-2.31","60ff4fc94dbc53a93c790a0b","63690f60c96a0a9a64b48fbd","6369332ed22300905f35d889","null","","null","","","","","","","","./tasks/HMM-beads/Images/WhiteBeadChoiceWrong.png","","","","","","","","","","","","","","","","","","","","","","","",""
"image-keyboard-response","174","351298","0.0-4.0-6.0-1.0-0.32","60ff4fc94dbc53a93c790a0b","63690f60c96a0a9a64b48fbd","6369332ed22300905f35d889","395","","f","","","","","","","","./tasks/HMM-beads/Images/NewTrialBC.png","lowH","32","2","2","1","1","false","","","","","","","","","","","","","","","","",""
"image-keyboard-response","175","351601","0.0-4.0-6.0-1.0-1.32","60ff4fc94dbc53a93c790a0b","63690f60c96a0a9a64b48fbd","6369332ed22300905f35d889","null","","null","","","","","","","","./tasks/HMM-beads/Images/BlackBeadChoice.png","","","","","","","","","","","","","","","","","","","","","","","",""
"image-keyboard-response","176","352103","0.0-4.0-6.0-1.0-2.32","60ff4fc94dbc53a93c790a0b","63690f60c96a0a9a64b48fbd","6369332ed22300905f35d889","null","","null","","","","","","","","./tasks/HMM-beads/Images/BlackBeadChoiceWrong.png","","","","","","","","","","","","","","","","","","","","","","","",""
"image-keyboard-response","177","352330","0.0-4.0-6.0-1.0-0.33","60ff4fc94dbc53a93c790a0b","63690f60c96a0a9a64b48fbd","6369332ed22300905f35d889","225","","j","","","","","","","","./tasks/HMM-beads/Images/NewTrialWC.png","lowH","33","2","2","2","2","true","","","","","","","","","","","","","","","","",""
"image-keyboard-response","178","352636","0.0-4.0-6.0-1.0-1.33","60ff4fc94dbc53a93c790a0b","63690f60c96a0a9a64b48fbd","6369332ed22300905f35d889","null","","null","","","","","","","","./tasks/HMM-beads/Images/WhiteBeadChoice.png","","","","","","","","","","","","","","","","","","","","","","","",""
"image-keyboard-response","179","353149","0.0-4.0-6.0-1.0-2.33","60ff4fc94dbc53a93c790a0b","63690f60c96a0a9a64b48fbd","6369332ed22300905f35d889","null","","null","","","","","","","","./tasks/HMM-beads/Images/WhiteBeadChoiceCorrect.png","","","","","","","","","","","","","","","","","","","","","","","",""
"image-keyboard-response","180","353523","0.0-4.0-6.0-1.0-0.34","60ff4fc94dbc53a93c790a0b","63690f60c96a0a9a64b48fbd","6369332ed22300905f35d889","373","","j","","","","","","","","./tasks/HMM-beads/Images/NewTrialWC.png","lowH","34","2","2","2","2","true","","","","","","","","","","","","","","","","",""
"image-keyboard-response","181","353826","0.0-4.0-6.0-1.0-1.34","60ff4fc94dbc53a93c790a0b","63690f60c96a0a9a64b48fbd","6369332ed22300905f35d889","null","","null","","","","","","","","./tasks/HMM-beads/Images/WhiteBeadChoice.png","","","","","","","","","","","","","","","","","","","","","","","",""
"image-keyboard-response","182","354332","0.0-4.0-6.0-1.0-2.34","60ff4fc94dbc53a93c790a0b","63690f60c96a0a9a64b48fbd","6369332ed22300905f35d889","null","","null","","","","","","","","./tasks/HMM-beads/Images/WhiteBeadChoiceCorrect.png","","","","","","","","","","","","","","","","","","","","","","","",""
"image-keyboard-response","183","354417","0.0-4.0-6.0-1.0-0.35","60ff4fc94dbc53a93c790a0b","63690f60c96a0a9a64b48fbd","6369332ed22300905f35d889","85","","j","","","","","","","","./tasks/HMM-beads/Images/NewTrialWC.png","lowH","35","2","2","2","2","true","","","","","","","","","","","","","","","","",""
"image-keyboard-response","184","354719","0.0-4.0-6.0-1.0-1.35","60ff4fc94dbc53a93c790a0b","63690f60c96a0a9a64b48fbd","6369332ed22300905f35d889","null","","null","","","","","","","","./tasks/HMM-beads/Images/WhiteBeadChoice.png","","","","","","","","","","","","","","","","","","","","","","","",""
"image-keyboard-response","185","355222","0.0-4.0-6.0-1.0-2.35","60ff4fc94dbc53a93c790a0b","63690f60c96a0a9a64b48fbd","6369332ed22300905f35d889","null","","null","","","","","","","","./tasks/HMM-beads/Images/WhiteBeadChoiceCorrect.png","","","","","","","","","","","","","","","","","","","","","","","",""
"image-keyboard-response","186","355563","0.0-4.0-6.0-1.0-0.36","60ff4fc94dbc53a93c790a0b","63690f60c96a0a9a64b48fbd","6369332ed22300905f35d889","340","","j","","","","","","","","./tasks/HMM-beads/Images/NewTrialWC.png","lowH","36","2","2","2","2","true","","","","","","","","","","","","","","","","",""
"image-keyboard-response","187","355864","0.0-4.0-6.0-1.0-1.36","60ff4fc94dbc53a93c790a0b","63690f60c96a0a9a64b48fbd","6369332ed22300905f35d889","null","","null","","","","","","","","./tasks/HMM-beads/Images/WhiteBeadChoice.png","","","","","","","","","","","","","","","","","","","","","","","",""
"image-keyboard-response","188","356367","0.0-4.0-6.0-1.0-2.36","60ff4fc94dbc53a93c790a0b","63690f60c96a0a9a64b48fbd","6369332ed22300905f35d889","null","","null","","","","","","","","./tasks/HMM-beads/Images/WhiteBeadChoiceCorrect.png","","","","","","","","","","","","","","","","","","","","","","","",""
"image-keyboard-response","189","372312","0.0-4.0-6.0-1.0-0.37","60ff4fc94dbc53a93c790a0b","63690f60c96a0a9a64b48fbd","6369332ed22300905f35d889","15943","","j","","","","","","","","./tasks/HMM-beads/Images/NewTrialWC.png","lowH","37","2","2","2","2","true","","","","","","","","","","","","","","","","",""
"image-keyboard-response","190","372613","0.0-4.0-6.0-1.0-1.37","60ff4fc94dbc53a93c790a0b","63690f60c96a0a9a64b48fbd","6369332ed22300905f35d889","null","","null","","","","","","","","./tasks/HMM-beads/Images/WhiteBeadChoice.png","","","","","","","","","","","","","","","","","","","","","","","",""
"image-keyboard-response","191","373115","0.0-4.0-6.0-1.0-2.37","60ff4fc94dbc53a93c790a0b","63690f60c96a0a9a64b48fbd","6369332ed22300905f35d889","null","","null","","","","","","","","./tasks/HMM-beads/Images/WhiteBeadChoiceCorrect.png","","","","","","","","","","","","","","","","","","","","","","","",""
"image-keyboard-response","192","373661","0.0-4.0-6.0-1.0-0.38","60ff4fc94dbc53a93c790a0b","63690f60c96a0a9a64b48fbd","6369332ed22300905f35d889","545","","j","","","","","","","","./tasks/HMM-beads/Images/NewTrialWC.png","lowH","38","2","2","2","2","true","","","","","","","","","","","","","","","","",""
"image-keyboard-response","193","373967","0.0-4.0-6.0-1.0-1.38","60ff4fc94dbc53a93c790a0b","63690f60c96a0a9a64b48fbd","6369332ed22300905f35d889","null","","null","","","","","","","","./tasks/HMM-beads/Images/WhiteBeadChoice.png","","","","","","","","","","","","","","","","","","","","","","","",""
"image-keyboard-response","194","374473","0.0-4.0-6.0-1.0-2.38","60ff4fc94dbc53a93c790a0b","63690f60c96a0a9a64b48fbd","6369332ed22300905f35d889","null","","null","","","","","","","","./tasks/HMM-beads/Images/WhiteBeadChoiceCorrect.png","","","","","","","","","","","","","","","","","","","","","","","",""
"image-keyboard-response","195","374976","0.0-4.0-6.0-1.0-0.39","60ff4fc94dbc53a93c790a0b","63690f60c96a0a9a64b48fbd","6369332ed22300905f35d889","502","","j","","","","","","","","./tasks/HMM-beads/Images/NewTrialWC.png","lowH","39","2","1","2","2","false","","","","","","","","","","","","","","","","",""
"image-keyboard-response","196","375281","0.0-4.0-6.0-1.0-1.39","60ff4fc94dbc53a93c790a0b","63690f60c96a0a9a64b48fbd","6369332ed22300905f35d889","null","","null","","","","","","","","./tasks/HMM-beads/Images/WhiteBeadChoice.png","","","","","","","","","","","","","","","","","","","","","","","",""
"image-keyboard-response","197","375787","0.0-4.0-6.0-1.0-2.39","60ff4fc94dbc53a93c790a0b","63690f60c96a0a9a64b48fbd","6369332ed22300905f35d889","null","","null","","","","","","","","./tasks/HMM-beads/Images/WhiteBeadChoiceWrong.png","","","","","","","","","","","","","","","","","","","","","","","",""
"image-keyboard-response","198","376244","0.0-4.0-6.0-1.0-0.40","60ff4fc94dbc53a93c790a0b","63690f60c96a0a9a64b48fbd","6369332ed22300905f35d889","456","","f","","","","","","","","./tasks/HMM-beads/Images/NewTrialBC.png","lowH","40","2","2","1","1","false","","","","","","","","","","","","","","","","",""
"image-keyboard-response","199","376550","0.0-4.0-6.0-1.0-1.40","60ff4fc94dbc53a93c790a0b","63690f60c96a0a9a64b48fbd","6369332ed22300905f35d889","null","","null","","","","","","","","./tasks/HMM-beads/Images/BlackBeadChoice.png","","","","","","","","","","","","","","","","","","","","","","","",""
"image-keyboard-response","200","377057","0.0-4.0-6.0-1.0-2.40","60ff4fc94dbc53a93c790a0b","63690f60c96a0a9a64b48fbd","6369332ed22300905f35d889","null","","null","","","","","","","","./tasks/HMM-beads/Images/BlackBeadChoiceWrong.png","","","","","","","","","","","","","","","","","","","","","","","",""
"image-keyboard-response","201","378114","0.0-4.0-6.0-1.0-0.41","60ff4fc94dbc53a93c790a0b","63690f60c96a0a9a64b48fbd","6369332ed22300905f35d889","1056","","j","","","","","","","","./tasks/HMM-beads/Images/NewTrialWC.png","lowH","41","2","1","2","2","false","","","","","","","","","","","","","","","","",""
"image-keyboard-response","202","378431","0.0-4.0-6.0-1.0-1.41","60ff4fc94dbc53a93c790a0b","63690f60c96a0a9a64b48fbd","6369332ed22300905f35d889","null","","null","","","","","","","","./tasks/HMM-beads/Images/WhiteBeadChoice.png","","","","","","","","","","","","","","","","","","","","","","","",""
"image-keyboard-response","203","378935","0.0-4.0-6.0-1.0-2.41","60ff4fc94dbc53a93c790a0b","63690f60c96a0a9a64b48fbd","6369332ed22300905f35d889","null","","null","","","","","","","","./tasks/HMM-beads/Images/WhiteBeadChoiceWrong.png","","","","","","","","","","","","","","","","","","","","","","","",""
"image-keyboard-response","204","379372","0.0-4.0-6.0-1.0-0.42","60ff4fc94dbc53a93c790a0b","63690f60c96a0a9a64b48fbd","6369332ed22300905f35d889","436","","f","","","","","","","","./tasks/HMM-beads/Images/NewTrialBC.png","lowH","42","2","1","1","1","true","","","","","","","","","","","","","","","","",""
"image-keyboard-response","205","379678","0.0-4.0-6.0-1.0-1.42","60ff4fc94dbc53a93c790a0b","63690f60c96a0a9a64b48fbd","6369332ed22300905f35d889","null","","null","","","","","","","","./tasks/HMM-beads/Images/BlackBeadChoice.png","","","","","","","","","","","","","","","","","","","","","","","",""
"image-keyboard-response","206","380183","0.0-4.0-6.0-1.0-2.42","60ff4fc94dbc53a93c790a0b","63690f60c96a0a9a64b48fbd","6369332ed22300905f35d889","null","","null","","","","","","","","./tasks/HMM-beads/Images/BlackBeadChoiceCorrect.png","","","","","","","","","","","","","","","","","","","","","","","",""
"image-keyboard-response","207","381049","0.0-4.0-6.0-1.0-0.43","60ff4fc94dbc53a93c790a0b","63690f60c96a0a9a64b48fbd","6369332ed22300905f35d889","865","","j","","","","","","","","./tasks/HMM-beads/Images/NewTrialBC.png","lowH","43","2","2","1","2","true","","","","","","","","","","","","","","","","",""
"image-keyboard-response","208","381352","0.0-4.0-6.0-1.0-1.43","60ff4fc94dbc53a93c790a0b","63690f60c96a0a9a64b48fbd","6369332ed22300905f35d889","null","","null","","","","","","","","./tasks/HMM-beads/Images/WhiteBeadChoice.png","","","","","","","","","","","","","","","","","","","","","","","",""
"image-keyboard-response","209","381858","0.0-4.0-6.0-1.0-2.43","60ff4fc94dbc53a93c790a0b","63690f60c96a0a9a64b48fbd","6369332ed22300905f35d889","null","","null","","","","","","","","./tasks/HMM-beads/Images/WhiteBeadChoiceCorrect.png","","","","","","","","","","","","","","","","","","","","","","","",""
"image-keyboard-response","210","382173","0.0-4.0-6.0-1.0-0.44","60ff4fc94dbc53a93c790a0b","63690f60c96a0a9a64b48fbd","6369332ed22300905f35d889","313","","f","","","","","","","","./tasks/HMM-beads/Images/NewTrialWC.png","lowH","44","2","2","2","1","false","","","","","","","","","","","","","","","","",""
"image-keyboard-response","211","382479","0.0-4.0-6.0-1.0-1.44","60ff4fc94dbc53a93c790a0b","63690f60c96a0a9a64b48fbd","6369332ed22300905f35d889","null","","null","","","","","","","","./tasks/HMM-beads/Images/BlackBeadChoice.png","","","","","","","","","","","","","","","","","","","","","","","",""
"image-keyboard-response","212","382981","0.0-4.0-6.0-1.0-2.44","60ff4fc94dbc53a93c790a0b","63690f60c96a0a9a64b48fbd","6369332ed22300905f35d889","null","","null","","","","","","","","./tasks/HMM-beads/Images/BlackBeadChoiceWrong.png","","","","","","","","","","","","","","","","","","","","","","","",""
"image-keyboard-response","213","384125","0.0-4.0-6.0-1.0-0.45","60ff4fc94dbc53a93c790a0b","63690f60c96a0a9a64b48fbd","6369332ed22300905f35d889","1143","","j","","","","","","","","./tasks/HMM-beads/Images/NewTrialWC.png","lowH","45","2","1","2","2","false","","","","","","","","","","","","","","","","",""
"image-keyboard-response","214","384430","0.0-4.0-6.0-1.0-1.45","60ff4fc94dbc53a93c790a0b","63690f60c96a0a9a64b48fbd","6369332ed22300905f35d889","null","","null","","","","","","","","./tasks/HMM-beads/Images/WhiteBeadChoice.png","","","","","","","","","","","","","","","","","","","","","","","",""
"image-keyboard-response","215","384932","0.0-4.0-6.0-1.0-2.45","60ff4fc94dbc53a93c790a0b","63690f60c96a0a9a64b48fbd","6369332ed22300905f35d889","null","","null","","","","","","","","./tasks/HMM-beads/Images/WhiteBeadChoiceWrong.png","","","","","","","","","","","","","","","","","","","","","","","",""
"image-keyboard-response","216","385163","0.0-4.0-6.0-1.0-0.46","60ff4fc94dbc53a93c790a0b","63690f60c96a0a9a64b48fbd","6369332ed22300905f35d889","230","","f","","","","","","","","./tasks/HMM-beads/Images/NewTrialBC.png","lowH","46","2","2","1","1","false","","","","","","","","","","","","","","","","",""
"image-keyboard-response","217","385465","0.0-4.0-6.0-1.0-1.46","60ff4fc94dbc53a93c790a0b","63690f60c96a0a9a64b48fbd","6369332ed22300905f35d889","null","","null","","","","","","","","./tasks/HMM-beads/Images/BlackBeadChoice.png","","","","","","","","","","","","","","","","","","","","","","","",""
"image-keyboard-response","218","385968","0.0-4.0-6.0-1.0-2.46","60ff4fc94dbc53a93c790a0b","63690f60c96a0a9a64b48fbd","6369332ed22300905f35d889","null","","null","","","","","","","","./tasks/HMM-beads/Images/BlackBeadChoiceWrong.png","","","","","","","","","","","","","","","","","","","","","","","",""
"image-keyboard-response","219","386127","0.0-4.0-6.0-1.0-0.47","60ff4fc94dbc53a93c790a0b","63690f60c96a0a9a64b48fbd","6369332ed22300905f35d889","157","","j","","","","","","","","./tasks/HMM-beads/Images/NewTrialWC.png","lowH","47","2","2","2","2","true","","","","","","","","","","","","","","","","",""
"image-keyboard-response","220","386433","0.0-4.0-6.0-1.0-1.47","60ff4fc94dbc53a93c790a0b","63690f60c96a0a9a64b48fbd","6369332ed22300905f35d889","null","","null","","","","","","","","./tasks/HMM-beads/Images/WhiteBeadChoice.png","","","","","","","","","","","","","","","","","","","","","","","",""
"image-keyboard-response","221","386935","0.0-4.0-6.0-1.0-2.47","60ff4fc94dbc53a93c790a0b","63690f60c96a0a9a64b48fbd","6369332ed22300905f35d889","null","","null","","","","","","","","./tasks/HMM-beads/Images/WhiteBeadChoiceCorrect.png","","","","","","","","","","","","","","","","","","","","","","","",""
"image-keyboard-response","222","387551","0.0-4.0-6.0-1.0-0.48","60ff4fc94dbc53a93c790a0b","63690f60c96a0a9a64b48fbd","6369332ed22300905f35d889","615","","j","","","","","","","","./tasks/HMM-beads/Images/NewTrialWC.png","lowH","48","2","2","2","2","true","","","","","","","","","","","","","","","","",""
"image-keyboard-response","223","387857","0.0-4.0-6.0-1.0-1.48","60ff4fc94dbc53a93c790a0b","63690f60c96a0a9a64b48fbd","6369332ed22300905f35d889","null","","null","","","","","","","","./tasks/HMM-beads/Images/WhiteBeadChoice.png","","","","","","","","","","","","","","","","","","","","","","","",""
"image-keyboard-response","224","388359","0.0-4.0-6.0-1.0-2.48","60ff4fc94dbc53a93c790a0b","63690f60c96a0a9a64b48fbd","6369332ed22300905f35d889","null","","null","","","","","","","","./tasks/HMM-beads/Images/WhiteBeadChoiceCorrect.png","","","","","","","","","","","","","","","","","","","","","","","",""
"image-keyboard-response","225","388811","0.0-4.0-6.0-1.0-0.49","60ff4fc94dbc53a93c790a0b","63690f60c96a0a9a64b48fbd","6369332ed22300905f35d889","451","","j","","","","","","","","./tasks/HMM-beads/Images/NewTrialWC.png","lowH","49","2","2","2","2","true","","","","","","","","","","","","","","","","",""
"image-keyboard-response","226","389117","0.0-4.0-6.0-1.0-1.49","60ff4fc94dbc53a93c790a0b","63690f60c96a0a9a64b48fbd","6369332ed22300905f35d889","null","","null","","","","","","","","./tasks/HMM-beads/Images/WhiteBeadChoice.png","","","","","","","","","","","","","","","","","","","","","","","",""
"image-keyboard-response","227","389623","0.0-4.0-6.0-1.0-2.49","60ff4fc94dbc53a93c790a0b","63690f60c96a0a9a64b48fbd","6369332ed22300905f35d889","null","","null","","","","","","","","./tasks/HMM-beads/Images/WhiteBeadChoiceCorrect.png","","","","","","","","","","","","","","","","","","","","","","","",""
"image-keyboard-response","228","389632","0.0-4.0-6.0-1.0-0.50","60ff4fc94dbc53a93c790a0b","63690f60c96a0a9a64b48fbd","6369332ed22300905f35d889","8","","j","","","","","","","","./tasks/HMM-beads/Images/NewTrialWC.png","lowH","50","2","1","2","2","false","","","","","","","","","","","","","","","","",""
"image-keyboard-response","229","389935","0.0-4.0-6.0-1.0-1.50","60ff4fc94dbc53a93c790a0b","63690f60c96a0a9a64b48fbd","6369332ed22300905f35d889","null","","null","","","","","","","","./tasks/HMM-beads/Images/WhiteBeadChoice.png","","","","","","","","","","","","","","","","","","","","","","","",""
"image-keyboard-response","230","390440","0.0-4.0-6.0-1.0-2.50","60ff4fc94dbc53a93c790a0b","63690f60c96a0a9a64b48fbd","6369332ed22300905f35d889","null","","null","","","","","","","","./tasks/HMM-beads/Images/WhiteBeadChoiceWrong.png","","","","","","","","","","","","","","","","","","","","","","","",""
"image-keyboard-response","231","390694","0.0-4.0-6.0-1.0-0.51","60ff4fc94dbc53a93c790a0b","63690f60c96a0a9a64b48fbd","6369332ed22300905f35d889","252","","f","","","","","","","","./tasks/HMM-beads/Images/NewTrialBC.png","lowH","51","2","1","1","1","true","","","","","","","","","","","","","","","","",""
"image-keyboard-response","232","390999","0.0-4.0-6.0-1.0-1.51","60ff4fc94dbc53a93c790a0b","63690f60c96a0a9a64b48fbd","6369332ed22300905f35d889","null","","null","","","","","","","","./tasks/HMM-beads/Images/BlackBeadChoice.png","","","","","","","","","","","","","","","","","","","","","","","",""
"image-keyboard-response","233","391504","0.0-4.0-6.0-1.0-2.51","60ff4fc94dbc53a93c790a0b","63690f60c96a0a9a64b48fbd","6369332ed22300905f35d889","null","","null","","","","","","","","./tasks/HMM-beads/Images/BlackBeadChoiceCorrect.png","","","","","","","","","","","","","","","","","","","","","","","",""
"image-keyboard-response","234","391658","0.0-4.0-6.0-1.0-0.52","60ff4fc94dbc53a93c790a0b","63690f60c96a0a9a64b48fbd","6369332ed22300905f35d889","152","","j","","","","","","","","./tasks/HMM-beads/Images/NewTrialBC.png","lowH","52","2","2","1","2","true","","","","","","","","","","","","","","","","",""
"image-keyboard-response","235","391962","0.0-4.0-6.0-1.0-1.52","60ff4fc94dbc53a93c790a0b","63690f60c96a0a9a64b48fbd","6369332ed22300905f35d889","null","","null","","","","","","","","./tasks/HMM-beads/Images/WhiteBeadChoice.png","","","","","","","","","","","","","","","","","","","","","","","",""
"image-keyboard-response","236","392466","0.0-4.0-6.0-1.0-2.52","60ff4fc94dbc53a93c790a0b","63690f60c96a0a9a64b48fbd","6369332ed22300905f35d889","null","","null","","","","","","","","./tasks/HMM-beads/Images/WhiteBeadChoiceCorrect.png","","","","","","","","","","","","","","","","","","","","","","","",""
"image-keyboard-response","237","392813","0.0-4.0-6.0-1.0-0.53","60ff4fc94dbc53a93c790a0b","63690f60c96a0a9a64b48fbd","6369332ed22300905f35d889","345","","j","","","","","","","","./tasks/HMM-beads/Images/NewTrialWC.png","lowH","53","2","2","2","2","true","","","","","","","","","","","","","","","","",""
"image-keyboard-response","238","393115","0.0-4.0-6.0-1.0-1.53","60ff4fc94dbc53a93c790a0b","63690f60c96a0a9a64b48fbd","6369332ed22300905f35d889","null","","null","","","","","","","","./tasks/HMM-beads/Images/WhiteBeadChoice.png","","","","","","","","","","","","","","","","","","","","","","","",""
"image-keyboard-response","239","393619","0.0-4.0-6.0-1.0-2.53","60ff4fc94dbc53a93c790a0b","63690f60c96a0a9a64b48fbd","6369332ed22300905f35d889","null","","null","","","","","","","","./tasks/HMM-beads/Images/WhiteBeadChoiceCorrect.png","","","","","","","","","","","","","","","","","","","","","","","",""
"image-keyboard-response","240","394013","0.0-4.0-6.0-1.0-0.54","60ff4fc94dbc53a93c790a0b","63690f60c96a0a9a64b48fbd","6369332ed22300905f35d889","393","","j","","","","","","","","./tasks/HMM-beads/Images/NewTrialWC.png","lowH","54","2","2","2","2","true","","","","","","","","","","","","","","","","",""
"image-keyboard-response","241","394318","0.0-4.0-6.0-1.0-1.54","60ff4fc94dbc53a93c790a0b","63690f60c96a0a9a64b48fbd","6369332ed22300905f35d889","null","","null","","","","","","","","./tasks/HMM-beads/Images/WhiteBeadChoice.png","","","","","","","","","","","","","","","","","","","","","","","",""
"image-keyboard-response","242","394820","0.0-4.0-6.0-1.0-2.54","60ff4fc94dbc53a93c790a0b","63690f60c96a0a9a64b48fbd","6369332ed22300905f35d889","null","","null","","","","","","","","./tasks/HMM-beads/Images/WhiteBeadChoiceCorrect.png","","","","","","","","","","","","","","","","","","","","","","","",""
"image-keyboard-response","243","395090","0.0-4.0-6.0-1.0-0.55","60ff4fc94dbc53a93c790a0b","63690f60c96a0a9a64b48fbd","6369332ed22300905f35d889","268","","j","","","","","","","","./tasks/HMM-beads/Images/NewTrialWC.png","lowH","55","2","2","2","2","true","","","","","","","","","","","","","","","","",""
"image-keyboard-response","244","395391","0.0-4.0-6.0-1.0-1.55","60ff4fc94dbc53a93c790a0b","63690f60c96a0a9a64b48fbd","6369332ed22300905f35d889","null","","null","","","","","","","","./tasks/HMM-beads/Images/WhiteBeadChoice.png","","","","","","","","","","","","","","","","","","","","","","","",""
"image-keyboard-response","245","395909","0.0-4.0-6.0-1.0-2.55","60ff4fc94dbc53a93c790a0b","63690f60c96a0a9a64b48fbd","6369332ed22300905f35d889","null","","null","","","","","","","","./tasks/HMM-beads/Images/WhiteBeadChoiceCorrect.png","","","","","","","","","","","","","","","","","","","","","","","",""
"image-keyboard-response","246","396328","0.0-4.0-6.0-1.0-0.56","60ff4fc94dbc53a93c790a0b","63690f60c96a0a9a64b48fbd","6369332ed22300905f35d889","418","","j","","","","","","","","./tasks/HMM-beads/Images/NewTrialWC.png","lowH","56","2","1","2","2","false","","","","","","","","","","","","","","","","",""
"image-keyboard-response","247","396634","0.0-4.0-6.0-1.0-1.56","60ff4fc94dbc53a93c790a0b","63690f60c96a0a9a64b48fbd","6369332ed22300905f35d889","null","","null","","","","","","","","./tasks/HMM-beads/Images/WhiteBeadChoice.png","","","","","","","","","","","","","","","","","","","","","","","",""
"image-keyboard-response","248","397140","0.0-4.0-6.0-1.0-2.56","60ff4fc94dbc53a93c790a0b","63690f60c96a0a9a64b48fbd","6369332ed22300905f35d889","null","","null","","","","","","","","./tasks/HMM-beads/Images/WhiteBeadChoiceWrong.png","","","","","","","","","","","","","","","","","","","","","","","",""
"image-keyboard-response","249","397752","0.0-4.0-6.0-1.0-0.57","60ff4fc94dbc53a93c790a0b","63690f60c96a0a9a64b48fbd","6369332ed22300905f35d889","611","","f","","","","","","","","./tasks/HMM-beads/Images/NewTrialBC.png","lowH","57","2","2","1","1","false","","","","","","","","","","","","","","","","",""
"image-keyboard-response","250","398055","0.0-4.0-6.0-1.0-1.57","60ff4fc94dbc53a93c790a0b","63690f60c96a0a9a64b48fbd","6369332ed22300905f35d889","null","","null","","","","","","","","./tasks/HMM-beads/Images/BlackBeadChoice.png","","","","","","","","","","","","","","","","","","","","","","","",""
"image-keyboard-response","251","398562","0.0-4.0-6.0-1.0-2.57","60ff4fc94dbc53a93c790a0b","63690f60c96a0a9a64b48fbd","6369332ed22300905f35d889","null","","null","","","","","","","","./tasks/HMM-beads/Images/BlackBeadChoiceWrong.png","","","","","","","","","","","","","","","","","","","","","","","",""
"image-keyboard-response","252","398663","0.0-4.0-6.0-1.0-0.58","60ff4fc94dbc53a93c790a0b","63690f60c96a0a9a64b48fbd","6369332ed22300905f35d889","101","","j","","","","","","","","./tasks/HMM-beads/Images/NewTrialWC.png","lowH","58","2","1","2","2","false","","","","","","","","","","","","","","","","",""
"image-keyboard-response","253","398968","0.0-4.0-6.0-1.0-1.58","60ff4fc94dbc53a93c790a0b","63690f60c96a0a9a64b48fbd","6369332ed22300905f35d889","null","","null","","","","","","","","./tasks/HMM-beads/Images/WhiteBeadChoice.png","","","","","","","","","","","","","","","","","","","","","","","",""
"image-keyboard-response","254","399474","0.0-4.0-6.0-1.0-2.58","60ff4fc94dbc53a93c790a0b","63690f60c96a0a9a64b48fbd","6369332ed22300905f35d889","null","","null","","","","","","","","./tasks/HMM-beads/Images/WhiteBeadChoiceWrong.png","","","","","","","","","","","","","","","","","","","","","","","",""
"image-keyboard-response","255","399883","0.0-4.0-6.0-1.0-0.59","60ff4fc94dbc53a93c790a0b","63690f60c96a0a9a64b48fbd","6369332ed22300905f35d889","397","","j","","","","","","","","./tasks/HMM-beads/Images/NewTrialBC.png","lowH","59","2","1","1","2","false","","","","","","","","","","","","","","","","",""
"image-keyboard-response","256","400188","0.0-4.0-6.0-1.0-1.59","60ff4fc94dbc53a93c790a0b","63690f60c96a0a9a64b48fbd","6369332ed22300905f35d889","null","","null","","","","","","","","./tasks/HMM-beads/Images/WhiteBeadChoice.png","","","","","","","","","","","","","","","","","","","","","","","",""
"image-keyboard-response","257","400690","0.0-4.0-6.0-1.0-2.59","60ff4fc94dbc53a93c790a0b","63690f60c96a0a9a64b48fbd","6369332ed22300905f35d889","null","","null","","","","","","","","./tasks/HMM-beads/Images/WhiteBeadChoiceWrong.png","","","","","","","","","","","","","","","","","","","","","","","",""
"image-keyboard-response","258","401123","0.0-4.0-6.0-1.0-0.60","60ff4fc94dbc53a93c790a0b","63690f60c96a0a9a64b48fbd","6369332ed22300905f35d889","431","","j","","","","","","","","./tasks/HMM-beads/Images/NewTrialBC.png","lowH","60","2","2","1","2","true","","","","","","","","","","","","","","","","",""
"image-keyboard-response","259","401427","0.0-4.0-6.0-1.0-1.60","60ff4fc94dbc53a93c790a0b","63690f60c96a0a9a64b48fbd","6369332ed22300905f35d889","null","","null","","","","","","","","./tasks/HMM-beads/Images/WhiteBeadChoice.png","","","","","","","","","","","","","","","","","","","","","","","",""
"image-keyboard-response","260","401933","0.0-4.0-6.0-1.0-2.60","60ff4fc94dbc53a93c790a0b","63690f60c96a0a9a64b48fbd","6369332ed22300905f35d889","null","","null","","","","","","","","./tasks/HMM-beads/Images/WhiteBeadChoiceCorrect.png","","","","","","","","","","","","","","","","","","","","","","","",""
"image-keyboard-response","261","402409","0.0-4.0-6.0-1.0-0.61","60ff4fc94dbc53a93c790a0b","63690f60c96a0a9a64b48fbd","6369332ed22300905f35d889","475","","j","","","","","","","","./tasks/HMM-beads/Images/NewTrialWC.png","lowH","61","2","2","2","2","true","","","","","","","","","","","","","","","","",""
"image-keyboard-response","262","402715","0.0-4.0-6.0-1.0-1.61","60ff4fc94dbc53a93c790a0b","63690f60c96a0a9a64b48fbd","6369332ed22300905f35d889","null","","null","","","","","","","","./tasks/HMM-beads/Images/WhiteBeadChoice.png","","","","","","","","","","","","","","","","","","","","","","","",""
"image-keyboard-response","263","403218","0.0-4.0-6.0-1.0-2.61","60ff4fc94dbc53a93c790a0b","63690f60c96a0a9a64b48fbd","6369332ed22300905f35d889","null","","null","","","","","","","","./tasks/HMM-beads/Images/WhiteBeadChoiceCorrect.png","","","","","","","","","","","","","","","","","","","","","","","",""
"image-keyboard-response","264","403603","0.0-4.0-6.0-1.0-0.62","60ff4fc94dbc53a93c790a0b","63690f60c96a0a9a64b48fbd","6369332ed22300905f35d889","384","","j","","","","","","","","./tasks/HMM-beads/Images/NewTrialWC.png","lowH","62","2","2","2","2","true","","","","","","","","","","","","","","","","",""
"image-keyboard-response","265","403905","0.0-4.0-6.0-1.0-1.62","60ff4fc94dbc53a93c790a0b","63690f60c96a0a9a64b48fbd","6369332ed22300905f35d889","null","","null","","","","","","","","./tasks/HMM-beads/Images/WhiteBeadChoice.png","","","","","","","","","","","","","","","","","","","","","","","",""
"image-keyboard-response","266","404408","0.0-4.0-6.0-1.0-2.62","60ff4fc94dbc53a93c790a0b","63690f60c96a0a9a64b48fbd","6369332ed22300905f35d889","null","","null","","","","","","","","./tasks/HMM-beads/Images/WhiteBeadChoiceCorrect.png","","","","","","","","","","","","","","","","","","","","","","","",""
"image-keyboard-response","267","404571","0.0-4.0-6.0-1.0-0.63","60ff4fc94dbc53a93c790a0b","63690f60c96a0a9a64b48fbd","6369332ed22300905f35d889","162","","j","","","","","","","","./tasks/HMM-beads/Images/NewTrialWC.png","lowH","63","2","1","2","2","false","","","","","","","","","","","","","","","","",""
"image-keyboard-response","268","404877","0.0-4.0-6.0-1.0-1.63","60ff4fc94dbc53a93c790a0b","63690f60c96a0a9a64b48fbd","6369332ed22300905f35d889","null","","null","","","","","","","","./tasks/HMM-beads/Images/WhiteBeadChoice.png","","","","","","","","","","","","","","","","","","","","","","","",""
"image-keyboard-response","269","405383","0.0-4.0-6.0-1.0-2.63","60ff4fc94dbc53a93c790a0b","63690f60c96a0a9a64b48fbd","6369332ed22300905f35d889","null","","null","","","","","","","","./tasks/HMM-beads/Images/WhiteBeadChoiceWrong.png","","","","","","","","","","","","","","","","","","","","","","","",""
"image-keyboard-response","270","405615","0.0-4.0-6.0-1.0-0.64","60ff4fc94dbc53a93c790a0b","63690f60c96a0a9a64b48fbd","6369332ed22300905f35d889","231","","j","","","","","","","","./tasks/HMM-beads/Images/NewTrialBC.png","lowH","64","2","2","1","2","true","","","","","","","","","","","","","","","","",""
"image-keyboard-response","271","405922","0.0-4.0-6.0-1.0-1.64","60ff4fc94dbc53a93c790a0b","63690f60c96a0a9a64b48fbd","6369332ed22300905f35d889","null","","null","","","","","","","","./tasks/HMM-beads/Images/WhiteBeadChoice.png","","","","","","","","","","","","","","","","","","","","","","","",""
"image-keyboard-response","272","406423","0.0-4.0-6.0-1.0-2.64","60ff4fc94dbc53a93c790a0b","63690f60c96a0a9a64b48fbd","6369332ed22300905f35d889","null","","null","","","","","","","","./tasks/HMM-beads/Images/WhiteBeadChoiceCorrect.png","","","","","","","","","","","","","","","","","","","","","","","",""
"image-keyboard-response","273","406504","0.0-4.0-6.0-1.0-0.65","60ff4fc94dbc53a93c790a0b","63690f60c96a0a9a64b48fbd","6369332ed22300905f35d889","80","","j","","","","","","","","./tasks/HMM-beads/Images/NewTrialWC.png","lowH","65","2","2","2","2","true","","","","","","","","","","","","","","","","",""
"image-keyboard-response","274","406805","0.0-4.0-6.0-1.0-1.65","60ff4fc94dbc53a93c790a0b","63690f60c96a0a9a64b48fbd","6369332ed22300905f35d889","null","","null","","","","","","","","./tasks/HMM-beads/Images/WhiteBeadChoice.png","","","","","","","","","","","","","","","","","","","","","","","",""
"image-keyboard-response","275","407311","0.0-4.0-6.0-1.0-2.65","60ff4fc94dbc53a93c790a0b","63690f60c96a0a9a64b48fbd","6369332ed22300905f35d889","null","","null","","","","","","","","./tasks/HMM-beads/Images/WhiteBeadChoiceCorrect.png","","","","","","","","","","","","","","","","","","","","","","","",""
"image-keyboard-response","276","407781","0.0-4.0-6.0-1.0-0.66","60ff4fc94dbc53a93c790a0b","63690f60c96a0a9a64b48fbd","6369332ed22300905f35d889","469","","j","","","","","","","","./tasks/HMM-beads/Images/NewTrialWC.png","lowH","66","2","1","2","2","false","","","","","","","","","","","","","","","","",""
"image-keyboard-response","277","408084","0.0-4.0-6.0-1.0-1.66","60ff4fc94dbc53a93c790a0b","63690f60c96a0a9a64b48fbd","6369332ed22300905f35d889","null","","null","","","","","","","","./tasks/HMM-beads/Images/WhiteBeadChoice.png","","","","","","","","","","","","","","","","","","","","","","","",""
"image-keyboard-response","278","408591","0.0-4.0-6.0-1.0-2.66","60ff4fc94dbc53a93c790a0b","63690f60c96a0a9a64b48fbd","6369332ed22300905f35d889","null","","null","","","","","","","","./tasks/HMM-beads/Images/WhiteBeadChoiceWrong.png","","","","","","","","","","","","","","","","","","","","","","","",""
"image-keyboard-response","279","409815","0.0-4.0-6.0-1.0-0.67","60ff4fc94dbc53a93c790a0b","63690f60c96a0a9a64b48fbd","6369332ed22300905f35d889","1223","","j","","","","","","","","./tasks/HMM-beads/Images/NewTrialBC.png","lowH","67","2","2","1","2","true","","","","","","","","","","","","","","","","",""
"image-keyboard-response","280","410119","0.0-4.0-6.0-1.0-1.67","60ff4fc94dbc53a93c790a0b","63690f60c96a0a9a64b48fbd","6369332ed22300905f35d889","null","","null","","","","","","","","./tasks/HMM-beads/Images/WhiteBeadChoice.png","","","","","","","","","","","","","","","","","","","","","","","",""
"image-keyboard-response","281","410623","0.0-4.0-6.0-1.0-2.67","60ff4fc94dbc53a93c790a0b","63690f60c96a0a9a64b48fbd","6369332ed22300905f35d889","null","","null","","","","","","","","./tasks/HMM-beads/Images/WhiteBeadChoiceCorrect.png","","","","","","","","","","","","","","","","","","","","","","","",""
"image-keyboard-response","282","410761","0.0-4.0-6.0-1.0-0.68","60ff4fc94dbc53a93c790a0b","63690f60c96a0a9a64b48fbd","6369332ed22300905f35d889","137","","j","","","","","","","","./tasks/HMM-beads/Images/NewTrialWC.png","lowH","68","2","2","2","2","true","","","","","","","","","","","","","","","","",""
"image-keyboard-response","283","411067","0.0-4.0-6.0-1.0-1.68","60ff4fc94dbc53a93c790a0b","63690f60c96a0a9a64b48fbd","6369332ed22300905f35d889","null","","null","","","","","","","","./tasks/HMM-beads/Images/WhiteBeadChoice.png","","","","","","","","","","","","","","","","","","","","","","","",""
"image-keyboard-response","284","411574","0.0-4.0-6.0-1.0-2.68","60ff4fc94dbc53a93c790a0b","63690f60c96a0a9a64b48fbd","6369332ed22300905f35d889","null","","null","","","","","","","","./tasks/HMM-beads/Images/WhiteBeadChoiceCorrect.png","","","","","","","","","","","","","","","","","","","","","","","",""
"image-keyboard-response","285","411661","0.0-4.0-6.0-1.0-0.69","60ff4fc94dbc53a93c790a0b","63690f60c96a0a9a64b48fbd","6369332ed22300905f35d889","86","","j","","","","","","","","./tasks/HMM-beads/Images/NewTrialWC.png","lowH","69","2","2","2","2","true","","","","","","","","","","","","","","","","",""
"image-keyboard-response","286","411965","0.0-4.0-6.0-1.0-1.69","60ff4fc94dbc53a93c790a0b","63690f60c96a0a9a64b48fbd","6369332ed22300905f35d889","null","","null","","","","","","","","./tasks/HMM-beads/Images/WhiteBeadChoice.png","","","","","","","","","","","","","","","","","","","","","","","",""
"image-keyboard-response","287","412467","0.0-4.0-6.0-1.0-2.69","60ff4fc94dbc53a93c790a0b","63690f60c96a0a9a64b48fbd","6369332ed22300905f35d889","null","","null","","","","","","","","./tasks/HMM-beads/Images/WhiteBeadChoiceCorrect.png","","","","","","","","","","","","","","","","","","","","","","","",""
"image-keyboard-response","288","412556","0.0-4.0-6.0-1.0-0.70","60ff4fc94dbc53a93c790a0b","63690f60c96a0a9a64b48fbd","6369332ed22300905f35d889","88","","j","","","","","","","","./tasks/HMM-beads/Images/NewTrialWC.png","lowH","70","2","2","2","2","true","","","","","","","","","","","","","","","","",""
"image-keyboard-response","289","412862","0.0-4.0-6.0-1.0-1.70","60ff4fc94dbc53a93c790a0b","63690f60c96a0a9a64b48fbd","6369332ed22300905f35d889","null","","null","","","","","","","","./tasks/HMM-beads/Images/WhiteBeadChoice.png","","","","","","","","","","","","","","","","","","","","","","","",""
"image-keyboard-response","290","413364","0.0-4.0-6.0-1.0-2.70","60ff4fc94dbc53a93c790a0b","63690f60c96a0a9a64b48fbd","6369332ed22300905f35d889","null","","null","","","","","","","","./tasks/HMM-beads/Images/WhiteBeadChoiceCorrect.png","","","","","","","","","","","","","","","","","","","","","","","",""
"image-keyboard-response","291","413465","0.0-4.0-6.0-1.0-0.71","60ff4fc94dbc53a93c790a0b","63690f60c96a0a9a64b48fbd","6369332ed22300905f35d889","100","","j","","","","","","","","./tasks/HMM-beads/Images/NewTrialWC.png","lowH","71","2","2","2","2","true","","","","","","","","","","","","","","","","",""
"image-keyboard-response","292","413771","0.0-4.0-6.0-1.0-1.71","60ff4fc94dbc53a93c790a0b","63690f60c96a0a9a64b48fbd","6369332ed22300905f35d889","null","","null","","","","","","","","./tasks/HMM-beads/Images/WhiteBeadChoice.png","","","","","","","","","","","","","","","","","","","","","","","",""
"image-keyboard-response","293","414276","0.0-4.0-6.0-1.0-2.71","60ff4fc94dbc53a93c790a0b","63690f60c96a0a9a64b48fbd","6369332ed22300905f35d889","null","","null","","","","","","","","./tasks/HMM-beads/Images/WhiteBeadChoiceCorrect.png","","","","","","","","","","","","","","","","","","","","","","","",""
"image-keyboard-response","294","414353","0.0-4.0-6.0-1.0-0.72","60ff4fc94dbc53a93c790a0b","63690f60c96a0a9a64b48fbd","6369332ed22300905f35d889","76","","j","","","","","","","","./tasks/HMM-beads/Images/NewTrialWC.png","lowH","72","2","1","2","2","false","","","","","","","","","","","","","","","","",""
"image-keyboard-response","295","414659","0.0-4.0-6.0-1.0-1.72","60ff4fc94dbc53a93c790a0b","63690f60c96a0a9a64b48fbd","6369332ed22300905f35d889","null","","null","","","","","","","","./tasks/HMM-beads/Images/WhiteBeadChoice.png","","","","","","","","","","","","","","","","","","","","","","","",""
"image-keyboard-response","296","415165","0.0-4.0-6.0-1.0-2.72","60ff4fc94dbc53a93c790a0b","63690f60c96a0a9a64b48fbd","6369332ed22300905f35d889","null","","null","","","","","","","","./tasks/HMM-beads/Images/WhiteBeadChoiceWrong.png","","","","","","","","","","","","","","","","","","","","","","","",""
"image-keyboard-response","297","415675","0.0-4.0-6.0-1.0-0.73","60ff4fc94dbc53a93c790a0b","63690f60c96a0a9a64b48fbd","6369332ed22300905f35d889","509","","j","","","","","","","","./tasks/HMM-beads/Images/NewTrialBC.png","lowH","73","2","2","1","2","true","","","","","","","","","","","","","","","","",""
"image-keyboard-response","298","415981","0.0-4.0-6.0-1.0-1.73","60ff4fc94dbc53a93c790a0b","63690f60c96a0a9a64b48fbd","6369332ed22300905f35d889","null","","null","","","","","","","","./tasks/HMM-beads/Images/WhiteBeadChoice.png","","","","","","","","","","","","","","","","","","","","","","","",""
"image-keyboard-response","299","416488","0.0-4.0-6.0-1.0-2.73","60ff4fc94dbc53a93c790a0b","63690f60c96a0a9a64b48fbd","6369332ed22300905f35d889","null","","null","","","","","","","","./tasks/HMM-beads/Images/WhiteBeadChoiceCorrect.png","","","","","","","","","","","","","","","","","","","","","","","",""
"image-keyboard-response","300","416567","0.0-4.0-6.0-1.0-0.74","60ff4fc94dbc53a93c790a0b","63690f60c96a0a9a64b48fbd","6369332ed22300905f35d889","78","","j","","","","","","","","./tasks/HMM-beads/Images/NewTrialWC.png","lowH","74","2","1","2","2","false","","","","","","","","","","","","","","","","",""
"image-keyboard-response","301","416872","0.0-4.0-6.0-1.0-1.74","60ff4fc94dbc53a93c790a0b","63690f60c96a0a9a64b48fbd","6369332ed22300905f35d889","null","","null","","","","","","","","./tasks/HMM-beads/Images/WhiteBeadChoice.png","","","","","","","","","","","","","","","","","","","","","","","",""
"image-keyboard-response","302","417374","0.0-4.0-6.0-1.0-2.74","60ff4fc94dbc53a93c790a0b","63690f60c96a0a9a64b48fbd","6369332ed22300905f35d889","null","","null","","","","","","","","./tasks/HMM-beads/Images/WhiteBeadChoiceWrong.png","","","","","","","","","","","","","","","","","","","","","","","",""
"image-keyboard-response","303","417383","0.0-4.0-6.0-1.0-0.75","60ff4fc94dbc53a93c790a0b","63690f60c96a0a9a64b48fbd","6369332ed22300905f35d889","8","","j","","","","","","","","./tasks/HMM-beads/Images/NewTrialBC.png","lowH","75","2","2","1","2","true","","","","","","","","","","","","","","","","",""
"image-keyboard-response","304","417685","0.0-4.0-6.0-1.0-1.75","60ff4fc94dbc53a93c790a0b","63690f60c96a0a9a64b48fbd","6369332ed22300905f35d889","null","","null","","","","","","","","./tasks/HMM-beads/Images/WhiteBeadChoice.png","","","","","","","","","","","","","","","","","","","","","","","",""
"image-keyboard-response","305","418189","0.0-4.0-6.0-1.0-2.75","60ff4fc94dbc53a93c790a0b","63690f60c96a0a9a64b48fbd","6369332ed22300905f35d889","null","","null","","","","","","","","./tasks/HMM-beads/Images/WhiteBeadChoiceCorrect.png","","","","","","","","","","","","","","","","","","","","","","","",""
"image-keyboard-response","306","418252","0.0-4.0-6.0-1.0-0.76","60ff4fc94dbc53a93c790a0b","63690f60c96a0a9a64b48fbd","6369332ed22300905f35d889","63","","j","","","","","","","","./tasks/HMM-beads/Images/NewTrialWC.png","lowH","76","2","1","2","2","false","","","","","","","","","","","","","","","","",""
"image-keyboard-response","307","418569","0.0-4.0-6.0-1.0-1.76","60ff4fc94dbc53a93c790a0b","63690f60c96a0a9a64b48fbd","6369332ed22300905f35d889","null","","null","","","","","","","","./tasks/HMM-beads/Images/WhiteBeadChoice.png","","","","","","","","","","","","","","","","","","","","","","","",""
"image-keyboard-response","308","419073","0.0-4.0-6.0-1.0-2.76","60ff4fc94dbc53a93c790a0b","63690f60c96a0a9a64b48fbd","6369332ed22300905f35d889","null","","null","","","","","","","","./tasks/HMM-beads/Images/WhiteBeadChoiceWrong.png","","","","","","","","","","","","","","","","","","","","","","","",""
"image-keyboard-response","309","419127","0.0-4.0-6.0-1.0-0.77","60ff4fc94dbc53a93c790a0b","63690f60c96a0a9a64b48fbd","6369332ed22300905f35d889","53","","j","","","","","","","","./tasks/HMM-beads/Images/NewTrialBC.png","lowH","77","2","2","1","2","true","","","","","","","","","","","","","","","","",""
"image-keyboard-response","310","419434","0.0-4.0-6.0-1.0-1.77","60ff4fc94dbc53a93c790a0b","63690f60c96a0a9a64b48fbd","6369332ed22300905f35d889","null","","null","","","","","","","","./tasks/HMM-beads/Images/WhiteBeadChoice.png","","","","","","","","","","","","","","","","","","","","","","","",""
"image-keyboard-response","311","419938","0.0-4.0-6.0-1.0-2.77","60ff4fc94dbc53a93c790a0b","63690f60c96a0a9a64b48fbd","6369332ed22300905f35d889","null","","null","","","","","","","","./tasks/HMM-beads/Images/WhiteBeadChoiceCorrect.png","","","","","","","","","","","","","","","","","","","","","","","",""
"image-keyboard-response","312","420048","0.0-4.0-6.0-1.0-0.78","60ff4fc94dbc53a93c790a0b","63690f60c96a0a9a64b48fbd","6369332ed22300905f35d889","109","","j","","","","","","","","./tasks/HMM-beads/Images/NewTrialWC.png","lowH","78","2","2","2","2","true","","","","","","","","","","","","","","","","",""
"image-keyboard-response","313","420349","0.0-4.0-6.0-1.0-1.78","60ff4fc94dbc53a93c790a0b","63690f60c96a0a9a64b48fbd","6369332ed22300905f35d889","null","","null","","","","","","","","./tasks/HMM-beads/Images/WhiteBeadChoice.png","","","","","","","","","","","","","","","","","","","","","","","",""
"image-keyboard-response","314","420852","0.0-4.0-6.0-1.0-2.78","60ff4fc94dbc53a93c790a0b","63690f60c96a0a9a64b48fbd","6369332ed22300905f35d889","null","","null","","","","","","","","./tasks/HMM-beads/Images/WhiteBeadChoiceCorrect.png","","","","","","","","","","","","","","","","","","","","","","","",""
"image-keyboard-response","315","435372","0.0-4.0-6.0-1.0-0.79","60ff4fc94dbc53a93c790a0b","63690f60c96a0a9a64b48fbd","6369332ed22300905f35d889","14518","","j","","","","","","","","./tasks/HMM-beads/Images/NewTrialWC.png","lowH","79","2","2","2","2","true","","","","","","","","","","","","","","","","",""
"image-keyboard-response","316","435675","0.0-4.0-6.0-1.0-1.79","60ff4fc94dbc53a93c790a0b","63690f60c96a0a9a64b48fbd","6369332ed22300905f35d889","null","","null","","","","","","","","./tasks/HMM-beads/Images/WhiteBeadChoice.png","","","","","","","","","","","","","","","","","","","","","","","",""
"image-keyboard-response","317","436177","0.0-4.0-6.0-1.0-2.79","60ff4fc94dbc53a93c790a0b","63690f60c96a0a9a64b48fbd","6369332ed22300905f35d889","null","","null","","","","","","","","./tasks/HMM-beads/Images/WhiteBeadChoiceCorrect.png","","","","","","","","","","","","","","","","","","","","","","","",""
"image-keyboard-response","318","436287","0.0-4.0-6.0-1.0-0.80","60ff4fc94dbc53a93c790a0b","63690f60c96a0a9a64b48fbd","6369332ed22300905f35d889","96","","j","","","","","","","","./tasks/HMM-beads/Images/NewTrialWC.png","lowH","80","2","2","2","2","true","","","","","","","","","","","","","","","","",""
"image-keyboard-response","319","436588","0.0-4.0-6.0-1.0-1.80","60ff4fc94dbc53a93c790a0b","63690f60c96a0a9a64b48fbd","6369332ed22300905f35d889","null","","null","","","","","","","","./tasks/HMM-beads/Images/WhiteBeadChoice.png","","","","","","","","","","","","","","","","","","","","","","","",""
"image-keyboard-response","320","437091","0.0-4.0-6.0-1.0-2.80","60ff4fc94dbc53a93c790a0b","63690f60c96a0a9a64b48fbd","6369332ed22300905f35d889","null","","null","","","","","","","","./tasks/HMM-beads/Images/WhiteBeadChoiceCorrect.png","","","","","","","","","","","","","","","","","","","","","","","",""
