"trial_type","trial_index","time_elapsed","internal_node_id","subject_id","study_id","session_id","rt","url","response","question_order","view_history","success","timeout","failed_images","failed_audio","failed_video","stimulus","block","trial_number","jar","bead","previous_bead","choice","correct","highH_score","lowH_score","state","rewarded","state1_action","state2_visited","state1_key","state2_key","state1_rt","state2_rt","block_num","seq_file","trial_seq_info","two_arm_score_block1","two_arm_score_block2","two_arm_score_total","total_bonus"
"pavlovia","0","1409","0.0-0.0","589ce4d65e63bf00013b3175","63690f60c96a0a9a64b48fbd","636920b2a169c7877b98c590","","","","","","","","","","","","","","","","","","","","","","","","","","","","","","","","","","",""
"external-html","1","5109","0.0-1.0-0.0","589ce4d65e63bf00013b3175","63690f60c96a0a9a64b48fbd","636920b2a169c7877b98c590","3525","new_consent.html","","","","","","","","","","","","","","","","","","","","","","","","","","","","","","","","",""
"survey-multi-choice","2","8358","0.0-1.0-1.0","589ce4d65e63bf00013b3175","63690f60c96a0a9a64b48fbd","636920b2a169c7877b98c590","3248","","{""Q0"":""Female"",""Q1"":""White""}","[0,1]","","","","","","","","","","","","","","","","","","","","","","","","","","","","","","",""
"survey-text","3","10765","0.0-1.0-2.0","589ce4d65e63bf00013b3175","63690f60c96a0a9a64b48fbd","636920b2a169c7877b98c590","2405","","{""Q0"":""27""}","","","","","","","","","","","","","","","","","","","","","","","","","","","","","","","",""
"instructions","4","16757","0.0-2.0","589ce4d65e63bf00013b3175","63690f60c96a0a9a64b48fbd","636920b2a169c7877b98c590","5885","","","","[{""page_index"":0,""viewing_time"":4957},{""page_index"":1,""viewing_time"":928}]","","","","","","","","","","","","","","","","","","","","","","","","","","","","","",""
"instructions","5","17397","0.0-3.0","589ce4d65e63bf00013b3175","63690f60c96a0a9a64b48fbd","636920b2a169c7877b98c590","640","","","","[{""page_index"":0,""viewing_time"":640}]","","","","","","","","","","","","","","","","","","","","","","","","","","","","","",""
"preload","6","18505","0.0-4.0-0.0","589ce4d65e63bf00013b3175","63690f60c96a0a9a64b48fbd","636920b2a169c7877b98c590","","","","","","true","false","[]","[]","[]","","","","","","","","","","","","","","","","","","","","","","","","",""
"instructions","7","60644","0.0-4.0-1.0","589ce4d65e63bf00013b3175","63690f60c96a0a9a64b48fbd","636920b2a169c7877b98c590","42138","","","","[{""page_index"":0,""viewing_time"":5171},{""page_index"":1,""viewing_time"":3720},{""page_index"":2,""viewing_time"":2104},{""page_index"":3,""viewing_time"":768},{""page_index"":4,""viewing_time"":2623},{""page_index"":5,""viewing_time"":9377},{""page_index"":6,""viewing_time"":1896},{""page_index"":7,""viewing_time"":4240},{""page_index"":8,""viewing_time"":3056},{""page_index"":9,""viewing_time"":3264},{""page_index"":10,""viewing_time"":4671},{""page_index"":11,""viewing_time"":1248}]","","","","","","","","","","","","","","","","","","","","","","","","","","","","","",""
"html-button-response","8","63092","0.0-4.0-2.0-0.0-0.0","589ce4d65e63bf00013b3175","63690f60c96a0a9a64b48fbd","636920b2a169c7877b98c590","2447","","1","","","","","","","","<div align=center>Your goal is to predict…?<br><br></div>","","","","","","","","","","","","","","","","","","","","","","","",""
"html-button-response","9","67685","0.0-4.0-2.0-1.0-0.0","589ce4d65e63bf00013b3175","63690f60c96a0a9a64b48fbd","636920b2a169c7877b98c590","3363","","2","","","","","","","","<div align=center>In the jar with mostly white beads, there are ___% white beads and ___% black beads?<br><br></div>","","","","","","","","","","","","","","","","","","","","","","","",""
"html-button-response","10","72028","0.0-4.0-2.0-2.0-0.0","589ce4d65e63bf00013b3175","63690f60c96a0a9a64b48fbd","636920b2a169c7877b98c590","3515","","0","","","","","","","","<div align=center>When there is a 1% probability that the jars will switch, the next bead will most likely be drawn from the…<br><br></div>","","","","","","","","","","","","","","","","","","","","","","","",""
"html-button-response","11","74780","0.0-4.0-2.0-3.0-0.0","589ce4d65e63bf00013b3175","63690f60c96a0a9a64b48fbd","636920b2a169c7877b98c590","1811","","1","","","","","","","","<div align=center>When there is a 99% probability that the jars will switch, the next bead will most likely be drawn from the…<br><br></div>","","","","","","","","","","","","","","","","","","","","","","","",""
"instructions","12","80364","0.0-4.0-3.0","589ce4d65e63bf00013b3175","63690f60c96a0a9a64b48fbd","636920b2a169c7877b98c590","4451","","","","[{""page_index"":0,""viewing_time"":4451}]","","","","","","","","","","","","","","","","","","","","","","","","","","","","","",""
"html-keyboard-response","13","84284","0.0-4.0-4.0-0.0","589ce4d65e63bf00013b3175","63690f60c96a0a9a64b48fbd","636920b2a169c7877b98c590","3918",""," ","","","","","","","","<div align=center>In this practice block, there will be a <b>10% chance</b> that the jar on the next trial will be different from the jar on the current trial.<br><br></div>","","","","","","","","","","","","","","","","","","","","","","","",""
"image-keyboard-response","14","93944","0.0-4.0-4.0-1.0-0.0","589ce4d65e63bf00013b3175","63690f60c96a0a9a64b48fbd","636920b2a169c7877b98c590","9632","","j","","","","","","","","./tasks/HMM-beads/Images/NoChoice.png","practice","0","1","1","0","2","false","","","","","","","","","","","","","","","","",""
"image-keyboard-response","15","94275","0.0-4.0-4.0-1.0-1.0","589ce4d65e63bf00013b3175","63690f60c96a0a9a64b48fbd","636920b2a169c7877b98c590","null","","null","","","","","","","","./tasks/HMM-beads/Images/WhiteBeadChoice.png","","","","","","","","","","","","","","","","","","","","","","","",""
"image-keyboard-response","16","94805","0.0-4.0-4.0-1.0-2.0","589ce4d65e63bf00013b3175","63690f60c96a0a9a64b48fbd","636920b2a169c7877b98c590","null","","null","","","","","","","","./tasks/HMM-beads/Images/WhiteBeadChoiceWrong.png","","","","","","","","","","","","","","","","","","","","","","","",""
"image-keyboard-response","17","97425","0.0-4.0-4.0-1.0-0.1","589ce4d65e63bf00013b3175","63690f60c96a0a9a64b48fbd","636920b2a169c7877b98c590","2594","","f","","","","","","","","./tasks/HMM-beads/Images/NewTrialBC.png","practice","1","1","1","1","1","true","","","","","","","","","","","","","","","","",""
"image-keyboard-response","18","97758","0.0-4.0-4.0-1.0-1.1","589ce4d65e63bf00013b3175","63690f60c96a0a9a64b48fbd","636920b2a169c7877b98c590","null","","null","","","","","","","","./tasks/HMM-beads/Images/BlackBeadChoice.png","","","","","","","","","","","","","","","","","","","","","","","",""
"image-keyboard-response","19","98287","0.0-4.0-4.0-1.0-2.1","589ce4d65e63bf00013b3175","63690f60c96a0a9a64b48fbd","636920b2a169c7877b98c590","null","","null","","","","","","","","./tasks/HMM-beads/Images/BlackBeadChoiceCorrect.png","","","","","","","","","","","","","","","","","","","","","","","",""
"image-keyboard-response","20","98841","0.0-4.0-4.0-1.0-0.2","589ce4d65e63bf00013b3175","63690f60c96a0a9a64b48fbd","636920b2a169c7877b98c590","553","","f","","","","","","","","./tasks/HMM-beads/Images/NewTrialBC.png","practice","2","1","2","1","1","false","","","","","","","","","","","","","","","","",""
"image-keyboard-response","21","99159","0.0-4.0-4.0-1.0-1.2","589ce4d65e63bf00013b3175","63690f60c96a0a9a64b48fbd","636920b2a169c7877b98c590","null","","null","","","","","","","","./tasks/HMM-beads/Images/BlackBeadChoice.png","","","","","","","","","","","","","","","","","","","","","","","",""
"image-keyboard-response","22","99686","0.0-4.0-4.0-1.0-2.2","589ce4d65e63bf00013b3175","63690f60c96a0a9a64b48fbd","636920b2a169c7877b98c590","null","","null","","","","","","","","./tasks/HMM-beads/Images/BlackBeadChoiceWrong.png","","","","","","","","","","","","","","","","","","","","","","","",""
"image-keyboard-response","23","100359","0.0-4.0-4.0-1.0-0.3","589ce4d65e63bf00013b3175","63690f60c96a0a9a64b48fbd","636920b2a169c7877b98c590","648","","j","","","","","","","","./tasks/HMM-beads/Images/NewTrialWC.png","practice","3","1","1","2","2","false","","","","","","","","","","","","","","","","",""
"image-keyboard-response","24","100665","0.0-4.0-4.0-1.0-1.3","589ce4d65e63bf00013b3175","63690f60c96a0a9a64b48fbd","636920b2a169c7877b98c590","null","","null","","","","","","","","./tasks/HMM-beads/Images/WhiteBeadChoice.png","","","","","","","","","","","","","","","","","","","","","","","",""
"image-keyboard-response","25","101176","0.0-4.0-4.0-1.0-2.3","589ce4d65e63bf00013b3175","63690f60c96a0a9a64b48fbd","636920b2a169c7877b98c590","null","","null","","","","","","","","./tasks/HMM-beads/Images/WhiteBeadChoiceWrong.png","","","","","","","","","","","","","","","","","","","","","","","",""
"image-keyboard-response","26","103288","0.0-4.0-4.0-1.0-0.4","589ce4d65e63bf00013b3175","63690f60c96a0a9a64b48fbd","636920b2a169c7877b98c590","2111","","f","","","","","","","","./tasks/HMM-beads/Images/NewTrialBC.png","practice","4","1","2","1","1","false","","","","","","","","","","","","","","","","",""
"image-keyboard-response","27","103595","0.0-4.0-4.0-1.0-1.4","589ce4d65e63bf00013b3175","63690f60c96a0a9a64b48fbd","636920b2a169c7877b98c590","null","","null","","","","","","","","./tasks/HMM-beads/Images/BlackBeadChoice.png","","","","","","","","","","","","","","","","","","","","","","","",""
"image-keyboard-response","28","104110","0.0-4.0-4.0-1.0-2.4","589ce4d65e63bf00013b3175","63690f60c96a0a9a64b48fbd","636920b2a169c7877b98c590","null","","null","","","","","","","","./tasks/HMM-beads/Images/BlackBeadChoiceWrong.png","","","","","","","","","","","","","","","","","","","","","","","",""
"image-keyboard-response","29","104623","0.0-4.0-4.0-1.0-0.5","589ce4d65e63bf00013b3175","63690f60c96a0a9a64b48fbd","636920b2a169c7877b98c590","511","","j","","","","","","","","./tasks/HMM-beads/Images/NewTrialWC.png","practice","5","1","1","2","2","false","","","","","","","","","","","","","","","","",""
"image-keyboard-response","30","104932","0.0-4.0-4.0-1.0-1.5","589ce4d65e63bf00013b3175","63690f60c96a0a9a64b48fbd","636920b2a169c7877b98c590","null","","null","","","","","","","","./tasks/HMM-beads/Images/WhiteBeadChoice.png","","","","","","","","","","","","","","","","","","","","","","","",""
"image-keyboard-response","31","105446","0.0-4.0-4.0-1.0-2.5","589ce4d65e63bf00013b3175","63690f60c96a0a9a64b48fbd","636920b2a169c7877b98c590","null","","null","","","","","","","","./tasks/HMM-beads/Images/WhiteBeadChoiceWrong.png","","","","","","","","","","","","","","","","","","","","","","","",""
"image-keyboard-response","32","105740","0.0-4.0-4.0-1.0-0.6","589ce4d65e63bf00013b3175","63690f60c96a0a9a64b48fbd","636920b2a169c7877b98c590","292","","f","","","","","","","","./tasks/HMM-beads/Images/NewTrialBC.png","practice","6","1","2","1","1","false","","","","","","","","","","","","","","","","",""
"image-keyboard-response","33","106054","0.0-4.0-4.0-1.0-1.6","589ce4d65e63bf00013b3175","63690f60c96a0a9a64b48fbd","636920b2a169c7877b98c590","null","","null","","","","","","","","./tasks/HMM-beads/Images/BlackBeadChoice.png","","","","","","","","","","","","","","","","","","","","","","","",""
"image-keyboard-response","34","106569","0.0-4.0-4.0-1.0-2.6","589ce4d65e63bf00013b3175","63690f60c96a0a9a64b48fbd","636920b2a169c7877b98c590","null","","null","","","","","","","","./tasks/HMM-beads/Images/BlackBeadChoiceWrong.png","","","","","","","","","","","","","","","","","","","","","","","",""
"image-keyboard-response","35","106870","0.0-4.0-4.0-1.0-0.7","589ce4d65e63bf00013b3175","63690f60c96a0a9a64b48fbd","636920b2a169c7877b98c590","300","","j","","","","","","","","./tasks/HMM-beads/Images/NewTrialWC.png","practice","7","1","1","2","2","false","","","","","","","","","","","","","","","","",""
"image-keyboard-response","36","107174","0.0-4.0-4.0-1.0-1.7","589ce4d65e63bf00013b3175","63690f60c96a0a9a64b48fbd","636920b2a169c7877b98c590","null","","null","","","","","","","","./tasks/HMM-beads/Images/WhiteBeadChoice.png","","","","","","","","","","","","","","","","","","","","","","","",""
"image-keyboard-response","37","107685","0.0-4.0-4.0-1.0-2.7","589ce4d65e63bf00013b3175","63690f60c96a0a9a64b48fbd","636920b2a169c7877b98c590","null","","null","","","","","","","","./tasks/HMM-beads/Images/WhiteBeadChoiceWrong.png","","","","","","","","","","","","","","","","","","","","","","","",""
"image-keyboard-response","38","108094","0.0-4.0-4.0-1.0-0.8","589ce4d65e63bf00013b3175","63690f60c96a0a9a64b48fbd","636920b2a169c7877b98c590","408","","f","","","","","","","","./tasks/HMM-beads/Images/NewTrialBC.png","practice","8","1","1","1","1","true","","","","","","","","","","","","","","","","",""
"image-keyboard-response","39","108400","0.0-4.0-4.0-1.0-1.8","589ce4d65e63bf00013b3175","63690f60c96a0a9a64b48fbd","636920b2a169c7877b98c590","null","","null","","","","","","","","./tasks/HMM-beads/Images/BlackBeadChoice.png","","","","","","","","","","","","","","","","","","","","","","","",""
"image-keyboard-response","40","108912","0.0-4.0-4.0-1.0-2.8","589ce4d65e63bf00013b3175","63690f60c96a0a9a64b48fbd","636920b2a169c7877b98c590","null","","null","","","","","","","","./tasks/HMM-beads/Images/BlackBeadChoiceCorrect.png","","","","","","","","","","","","","","","","","","","","","","","",""
"image-keyboard-response","41","109210","0.0-4.0-4.0-1.0-0.9","589ce4d65e63bf00013b3175","63690f60c96a0a9a64b48fbd","636920b2a169c7877b98c590","297","","f","","","","","","","","./tasks/HMM-beads/Images/NewTrialBC.png","practice","9","2","2","1","1","false","","","","","","","","","","","","","","","","",""
"image-keyboard-response","42","109518","0.0-4.0-4.0-1.0-1.9","589ce4d65e63bf00013b3175","63690f60c96a0a9a64b48fbd","636920b2a169c7877b98c590","null","","null","","","","","","","","./tasks/HMM-beads/Images/BlackBeadChoice.png","","","","","","","","","","","","","","","","","","","","","","","",""
"image-keyboard-response","43","110030","0.0-4.0-4.0-1.0-2.9","589ce4d65e63bf00013b3175","63690f60c96a0a9a64b48fbd","636920b2a169c7877b98c590","null","","null","","","","","","","","./tasks/HMM-beads/Images/BlackBeadChoiceWrong.png","","","","","","","","","","","","","","","","","","","","","","","",""
"image-keyboard-response","44","110689","0.0-4.0-4.0-1.0-0.10","589ce4d65e63bf00013b3175","63690f60c96a0a9a64b48fbd","636920b2a169c7877b98c590","657","","j","","","","","","","","./tasks/HMM-beads/Images/NewTrialWC.png","practice","10","2","1","2","2","false","","","","","","","","","","","","","","","","",""
"image-keyboard-response","45","111002","0.0-4.0-4.0-1.0-1.10","589ce4d65e63bf00013b3175","63690f60c96a0a9a64b48fbd","636920b2a169c7877b98c590","null","","null","","","","","","","","./tasks/HMM-beads/Images/WhiteBeadChoice.png","","","","","","","","","","","","","","","","","","","","","","","",""
"image-keyboard-response","46","111517","0.0-4.0-4.0-1.0-2.10","589ce4d65e63bf00013b3175","63690f60c96a0a9a64b48fbd","636920b2a169c7877b98c590","null","","null","","","","","","","","./tasks/HMM-beads/Images/WhiteBeadChoiceWrong.png","","","","","","","","","","","","","","","","","","","","","","","",""
"image-keyboard-response","47","111932","0.0-4.0-4.0-1.0-0.11","589ce4d65e63bf00013b3175","63690f60c96a0a9a64b48fbd","636920b2a169c7877b98c590","412","","f","","","","","","","","./tasks/HMM-beads/Images/NewTrialBC.png","practice","11","2","2","1","1","false","","","","","","","","","","","","","","","","",""
"image-keyboard-response","48","112246","0.0-4.0-4.0-1.0-1.11","589ce4d65e63bf00013b3175","63690f60c96a0a9a64b48fbd","636920b2a169c7877b98c590","null","","null","","","","","","","","./tasks/HMM-beads/Images/BlackBeadChoice.png","","","","","","","","","","","","","","","","","","","","","","","",""
"image-keyboard-response","49","112755","0.0-4.0-4.0-1.0-2.11","589ce4d65e63bf00013b3175","63690f60c96a0a9a64b48fbd","636920b2a169c7877b98c590","null","","null","","","","","","","","./tasks/HMM-beads/Images/BlackBeadChoiceWrong.png","","","","","","","","","","","","","","","","","","","","","","","",""
"image-keyboard-response","50","113158","0.0-4.0-4.0-1.0-0.12","589ce4d65e63bf00013b3175","63690f60c96a0a9a64b48fbd","636920b2a169c7877b98c590","400","","j","","","","","","","","./tasks/HMM-beads/Images/NewTrialWC.png","practice","12","2","2","2","2","true","","","","","","","","","","","","","","","","",""
"image-keyboard-response","51","113469","0.0-4.0-4.0-1.0-1.12","589ce4d65e63bf00013b3175","63690f60c96a0a9a64b48fbd","636920b2a169c7877b98c590","null","","null","","","","","","","","./tasks/HMM-beads/Images/WhiteBeadChoice.png","","","","","","","","","","","","","","","","","","","","","","","",""
"image-keyboard-response","52","113996","0.0-4.0-4.0-1.0-2.12","589ce4d65e63bf00013b3175","63690f60c96a0a9a64b48fbd","636920b2a169c7877b98c590","null","","null","","","","","","","","./tasks/HMM-beads/Images/WhiteBeadChoiceCorrect.png","","","","","","","","","","","","","","","","","","","","","","","",""
"image-keyboard-response","53","114237","0.0-4.0-4.0-1.0-0.13","589ce4d65e63bf00013b3175","63690f60c96a0a9a64b48fbd","636920b2a169c7877b98c590","240","","j","","","","","","","","./tasks/HMM-beads/Images/NewTrialWC.png","practice","13","2","2","2","2","true","","","","","","","","","","","","","","","","",""
"image-keyboard-response","54","114541","0.0-4.0-4.0-1.0-1.13","589ce4d65e63bf00013b3175","63690f60c96a0a9a64b48fbd","636920b2a169c7877b98c590","null","","null","","","","","","","","./tasks/HMM-beads/Images/WhiteBeadChoice.png","","","","","","","","","","","","","","","","","","","","","","","",""
"image-keyboard-response","55","115056","0.0-4.0-4.0-1.0-2.13","589ce4d65e63bf00013b3175","63690f60c96a0a9a64b48fbd","636920b2a169c7877b98c590","null","","null","","","","","","","","./tasks/HMM-beads/Images/WhiteBeadChoiceCorrect.png","","","","","","","","","","","","","","","","","","","","","","","",""
"image-keyboard-response","56","115292","0.0-4.0-4.0-1.0-0.14","589ce4d65e63bf00013b3175","63690f60c96a0a9a64b48fbd","636920b2a169c7877b98c590","233","","j","","","","","","","","./tasks/HMM-beads/Images/NewTrialWC.png","practice","14","2","2","2","2","true","","","","","","","","","","","","","","","","",""
"image-keyboard-response","57","115600","0.0-4.0-4.0-1.0-1.14","589ce4d65e63bf00013b3175","63690f60c96a0a9a64b48fbd","636920b2a169c7877b98c590","null","","null","","","","","","","","./tasks/HMM-beads/Images/WhiteBeadChoice.png","","","","","","","","","","","","","","","","","","","","","","","",""
"image-keyboard-response","58","116112","0.0-4.0-4.0-1.0-2.14","589ce4d65e63bf00013b3175","63690f60c96a0a9a64b48fbd","636920b2a169c7877b98c590","null","","null","","","","","","","","./tasks/HMM-beads/Images/WhiteBeadChoiceCorrect.png","","","","","","","","","","","","","","","","","","","","","","","",""
"image-keyboard-response","59","116289","0.0-4.0-4.0-1.0-0.15","589ce4d65e63bf00013b3175","63690f60c96a0a9a64b48fbd","636920b2a169c7877b98c590","173","","j","","","","","","","","./tasks/HMM-beads/Images/NewTrialWC.png","practice","15","1","1","2","2","false","","","","","","","","","","","","","","","","",""
"image-keyboard-response","60","116594","0.0-4.0-4.0-1.0-1.15","589ce4d65e63bf00013b3175","63690f60c96a0a9a64b48fbd","636920b2a169c7877b98c590","null","","null","","","","","","","","./tasks/HMM-beads/Images/WhiteBeadChoice.png","","","","","","","","","","","","","","","","","","","","","","","",""
"image-keyboard-response","61","117108","0.0-4.0-4.0-1.0-2.15","589ce4d65e63bf00013b3175","63690f60c96a0a9a64b48fbd","636920b2a169c7877b98c590","null","","null","","","","","","","","./tasks/HMM-beads/Images/WhiteBeadChoiceWrong.png","","","","","","","","","","","","","","","","","","","","","","","",""
"image-keyboard-response","62","117218","0.0-4.0-4.0-1.0-0.16","589ce4d65e63bf00013b3175","63690f60c96a0a9a64b48fbd","636920b2a169c7877b98c590","109","","f","","","","","","","","./tasks/HMM-beads/Images/NewTrialBC.png","practice","16","1","2","1","1","false","","","","","","","","","","","","","","","","",""
"image-keyboard-response","63","117525","0.0-4.0-4.0-1.0-1.16","589ce4d65e63bf00013b3175","63690f60c96a0a9a64b48fbd","636920b2a169c7877b98c590","null","","null","","","","","","","","./tasks/HMM-beads/Images/BlackBeadChoice.png","","","","","","","","","","","","","","","","","","","","","","","",""
"image-keyboard-response","64","118038","0.0-4.0-4.0-1.0-2.16","589ce4d65e63bf00013b3175","63690f60c96a0a9a64b48fbd","636920b2a169c7877b98c590","null","","null","","","","","","","","./tasks/HMM-beads/Images/BlackBeadChoiceWrong.png","","","","","","","","","","","","","","","","","","","","","","","",""
"image-keyboard-response","65","118171","0.0-4.0-4.0-1.0-0.17","589ce4d65e63bf00013b3175","63690f60c96a0a9a64b48fbd","636920b2a169c7877b98c590","131","","j","","","","","","","","./tasks/HMM-beads/Images/NewTrialWC.png","practice","17","1","1","2","2","false","","","","","","","","","","","","","","","","",""
"image-keyboard-response","66","118472","0.0-4.0-4.0-1.0-1.17","589ce4d65e63bf00013b3175","63690f60c96a0a9a64b48fbd","636920b2a169c7877b98c590","null","","null","","","","","","","","./tasks/HMM-beads/Images/WhiteBeadChoice.png","","","","","","","","","","","","","","","","","","","","","","","",""
"image-keyboard-response","67","118983","0.0-4.0-4.0-1.0-2.17","589ce4d65e63bf00013b3175","63690f60c96a0a9a64b48fbd","636920b2a169c7877b98c590","null","","null","","","","","","","","./tasks/HMM-beads/Images/WhiteBeadChoiceWrong.png","","","","","","","","","","","","","","","","","","","","","","","",""
"image-keyboard-response","68","119309","0.0-4.0-4.0-1.0-0.18","589ce4d65e63bf00013b3175","63690f60c96a0a9a64b48fbd","636920b2a169c7877b98c590","326","","f","","","","","","","","./tasks/HMM-beads/Images/NewTrialBC.png","practice","18","1","1","1","1","true","","","","","","","","","","","","","","","","",""
"image-keyboard-response","69","119621","0.0-4.0-4.0-1.0-1.18","589ce4d65e63bf00013b3175","63690f60c96a0a9a64b48fbd","636920b2a169c7877b98c590","null","","null","","","","","","","","./tasks/HMM-beads/Images/BlackBeadChoice.png","","","","","","","","","","","","","","","","","","","","","","","",""
"image-keyboard-response","70","120132","0.0-4.0-4.0-1.0-2.18","589ce4d65e63bf00013b3175","63690f60c96a0a9a64b48fbd","636920b2a169c7877b98c590","null","","null","","","","","","","","./tasks/HMM-beads/Images/BlackBeadChoiceCorrect.png","","","","","","","","","","","","","","","","","","","","","","","",""
"image-keyboard-response","71","120694","0.0-4.0-4.0-1.0-0.19","589ce4d65e63bf00013b3175","63690f60c96a0a9a64b48fbd","636920b2a169c7877b98c590","560","","f","","","","","","","","./tasks/HMM-beads/Images/NewTrialBC.png","practice","19","1","1","1","1","true","","","","","","","","","","","","","","","","",""
"image-keyboard-response","72","121004","0.0-4.0-4.0-1.0-1.19","589ce4d65e63bf00013b3175","63690f60c96a0a9a64b48fbd","636920b2a169c7877b98c590","null","","null","","","","","","","","./tasks/HMM-beads/Images/BlackBeadChoice.png","","","","","","","","","","","","","","","","","","","","","","","",""
"image-keyboard-response","73","121516","0.0-4.0-4.0-1.0-2.19","589ce4d65e63bf00013b3175","63690f60c96a0a9a64b48fbd","636920b2a169c7877b98c590","null","","null","","","","","","","","./tasks/HMM-beads/Images/BlackBeadChoiceCorrect.png","","","","","","","","","","","","","","","","","","","","","","","",""
"html-keyboard-response","74","123206","0.0-4.0-4.0-2.0","589ce4d65e63bf00013b3175","63690f60c96a0a9a64b48fbd","636920b2a169c7877b98c590","1688",""," ","","","","","","","","","","","","","","","","","","","","","","","","","","","","","","","",""
"instructions","75","139620","0.0-4.0-5.0","589ce4d65e63bf00013b3175","63690f60c96a0a9a64b48fbd","636920b2a169c7877b98c590","16413","","","","[{""page_index"":0,""viewing_time"":13788},{""page_index"":1,""viewing_time"":2624}]","","","","","","","","","","","","","","","","","","","","","","","","","","","","","",""
"html-keyboard-response","76","144035","0.0-4.0-6.0-0.0","589ce4d65e63bf00013b3175","63690f60c96a0a9a64b48fbd","636920b2a169c7877b98c590","4413",""," ","","","","","","","","<div align=center>In this block, there will be a <b>99%</b> chance that the jar on the next trial will be different from the jar on the current trial.<br><br></div>","","","","","","","","","","","","","","","","","","","","","","","",""
"image-keyboard-response","77","147016","0.0-4.0-6.0-1.0-0.0","589ce4d65e63bf00013b3175","63690f60c96a0a9a64b48fbd","636920b2a169c7877b98c590","2977","","f","","","","","","","","./tasks/HMM-beads/Images/NoChoice.png","highH","0","1","1","0","1","true","","","","","","","","","","","","","","","","",""
"image-keyboard-response","78","147332","0.0-4.0-6.0-1.0-1.0","589ce4d65e63bf00013b3175","63690f60c96a0a9a64b48fbd","636920b2a169c7877b98c590","null","","null","","","","","","","","./tasks/HMM-beads/Images/BlackBeadChoice.png","","","","","","","","","","","","","","","","","","","","","","","",""
"image-keyboard-response","79","147844","0.0-4.0-6.0-1.0-2.0","589ce4d65e63bf00013b3175","63690f60c96a0a9a64b48fbd","636920b2a169c7877b98c590","null","","null","","","","","","","","./tasks/HMM-beads/Images/BlackBeadChoiceCorrect.png","","","","","","","","","","","","","","","","","","","","","","","",""
"image-keyboard-response","80","149358","0.0-4.0-6.0-1.0-0.1","589ce4d65e63bf00013b3175","63690f60c96a0a9a64b48fbd","636920b2a169c7877b98c590","1511","","j","","","","","","","","./tasks/HMM-beads/Images/NewTrialBC.png","highH","1","2","2","1","2","true","","","","","","","","","","","","","","","","",""
"image-keyboard-response","81","149674","0.0-4.0-6.0-1.0-1.1","589ce4d65e63bf00013b3175","63690f60c96a0a9a64b48fbd","636920b2a169c7877b98c590","null","","null","","","","","","","","./tasks/HMM-beads/Images/WhiteBeadChoice.png","","","","","","","","","","","","","","","","","","","","","","","",""
"image-keyboard-response","82","150187","0.0-4.0-6.0-1.0-2.1","589ce4d65e63bf00013b3175","63690f60c96a0a9a64b48fbd","636920b2a169c7877b98c590","null","","null","","","","","","","","./tasks/HMM-beads/Images/WhiteBeadChoiceCorrect.png","","","","","","","","","","","","","","","","","","","","","","","",""
"image-keyboard-response","83","150551","0.0-4.0-6.0-1.0-0.2","589ce4d65e63bf00013b3175","63690f60c96a0a9a64b48fbd","636920b2a169c7877b98c590","360","","f","","","","","","","","./tasks/HMM-beads/Images/NewTrialWC.png","highH","2","1","1","2","1","true","","","","","","","","","","","","","","","","",""
"image-keyboard-response","84","150857","0.0-4.0-6.0-1.0-1.2","589ce4d65e63bf00013b3175","63690f60c96a0a9a64b48fbd","636920b2a169c7877b98c590","null","","null","","","","","","","","./tasks/HMM-beads/Images/BlackBeadChoice.png","","","","","","","","","","","","","","","","","","","","","","","",""
"image-keyboard-response","85","151369","0.0-4.0-6.0-1.0-2.2","589ce4d65e63bf00013b3175","63690f60c96a0a9a64b48fbd","636920b2a169c7877b98c590","null","","null","","","","","","","","./tasks/HMM-beads/Images/BlackBeadChoiceCorrect.png","","","","","","","","","","","","","","","","","","","","","","","",""
"image-keyboard-response","86","152287","0.0-4.0-6.0-1.0-0.3","589ce4d65e63bf00013b3175","63690f60c96a0a9a64b48fbd","636920b2a169c7877b98c590","916","","j","","","","","","","","./tasks/HMM-beads/Images/NewTrialBC.png","highH","3","2","2","1","2","true","","","","","","","","","","","","","","","","",""
"image-keyboard-response","87","152595","0.0-4.0-6.0-1.0-1.3","589ce4d65e63bf00013b3175","63690f60c96a0a9a64b48fbd","636920b2a169c7877b98c590","null","","null","","","","","","","","./tasks/HMM-beads/Images/WhiteBeadChoice.png","","","","","","","","","","","","","","","","","","","","","","","",""
"image-keyboard-response","88","153108","0.0-4.0-6.0-1.0-2.3","589ce4d65e63bf00013b3175","63690f60c96a0a9a64b48fbd","636920b2a169c7877b98c590","null","","null","","","","","","","","./tasks/HMM-beads/Images/WhiteBeadChoiceCorrect.png","","","","","","","","","","","","","","","","","","","","","","","",""
"image-keyboard-response","89","153493","0.0-4.0-6.0-1.0-0.4","589ce4d65e63bf00013b3175","63690f60c96a0a9a64b48fbd","636920b2a169c7877b98c590","383","","f","","","","","","","","./tasks/HMM-beads/Images/NewTrialWC.png","highH","4","1","1","2","1","true","","","","","","","","","","","","","","","","",""
"image-keyboard-response","90","153804","0.0-4.0-6.0-1.0-1.4","589ce4d65e63bf00013b3175","63690f60c96a0a9a64b48fbd","636920b2a169c7877b98c590","null","","null","","","","","","","","./tasks/HMM-beads/Images/BlackBeadChoice.png","","","","","","","","","","","","","","","","","","","","","","","",""
"image-keyboard-response","91","154317","0.0-4.0-6.0-1.0-2.4","589ce4d65e63bf00013b3175","63690f60c96a0a9a64b48fbd","636920b2a169c7877b98c590","null","","null","","","","","","","","./tasks/HMM-beads/Images/BlackBeadChoiceCorrect.png","","","","","","","","","","","","","","","","","","","","","","","",""
"image-keyboard-response","92","154807","0.0-4.0-6.0-1.0-0.5","589ce4d65e63bf00013b3175","63690f60c96a0a9a64b48fbd","636920b2a169c7877b98c590","489","","j","","","","","","","","./tasks/HMM-beads/Images/NewTrialBC.png","highH","5","2","2","1","2","true","","","","","","","","","","","","","","","","",""
"image-keyboard-response","93","155119","0.0-4.0-6.0-1.0-1.5","589ce4d65e63bf00013b3175","63690f60c96a0a9a64b48fbd","636920b2a169c7877b98c590","null","","null","","","","","","","","./tasks/HMM-beads/Images/WhiteBeadChoice.png","","","","","","","","","","","","","","","","","","","","","","","",""
"image-keyboard-response","94","155631","0.0-4.0-6.0-1.0-2.5","589ce4d65e63bf00013b3175","63690f60c96a0a9a64b48fbd","636920b2a169c7877b98c590","null","","null","","","","","","","","./tasks/HMM-beads/Images/WhiteBeadChoiceCorrect.png","","","","","","","","","","","","","","","","","","","","","","","",""
"image-keyboard-response","95","155904","0.0-4.0-6.0-1.0-0.6","589ce4d65e63bf00013b3175","63690f60c96a0a9a64b48fbd","636920b2a169c7877b98c590","273","","f","","","","","","","","./tasks/HMM-beads/Images/NewTrialWC.png","highH","6","1","1","2","1","true","","","","","","","","","","","","","","","","",""
"image-keyboard-response","96","156206","0.0-4.0-6.0-1.0-1.6","589ce4d65e63bf00013b3175","63690f60c96a0a9a64b48fbd","636920b2a169c7877b98c590","null","","null","","","","","","","","./tasks/HMM-beads/Images/BlackBeadChoice.png","","","","","","","","","","","","","","","","","","","","","","","",""
"image-keyboard-response","97","156716","0.0-4.0-6.0-1.0-2.6","589ce4d65e63bf00013b3175","63690f60c96a0a9a64b48fbd","636920b2a169c7877b98c590","null","","null","","","","","","","","./tasks/HMM-beads/Images/BlackBeadChoiceCorrect.png","","","","","","","","","","","","","","","","","","","","","","","",""
"image-keyboard-response","98","157211","0.0-4.0-6.0-1.0-0.7","589ce4d65e63bf00013b3175","63690f60c96a0a9a64b48fbd","636920b2a169c7877b98c590","494","","j","","","","","","","","./tasks/HMM-beads/Images/NewTrialBC.png","highH","7","2","1","1","2","false","","","","","","","","","","","","","","","","",""
"image-keyboard-response","99","157523","0.0-4.0-6.0-1.0-1.7","589ce4d65e63bf00013b3175","63690f60c96a0a9a64b48fbd","636920b2a169c7877b98c590","null","","null","","","","","","","","./tasks/HMM-beads/Images/WhiteBeadChoice.png","","","","","","","","","","","","","","","","","","","","","","","",""
"image-keyboard-response","100","158037","0.0-4.0-6.0-1.0-2.7","589ce4d65e63bf00013b3175","63690f60c96a0a9a64b48fbd","636920b2a169c7877b98c590","null","","null","","","","","","","","./tasks/HMM-beads/Images/WhiteBeadChoiceWrong.png","","","","","","","","","","","","","","","","","","","","","","","",""
"image-keyboard-response","101","159055","0.0-4.0-6.0-1.0-0.8","589ce4d65e63bf00013b3175","63690f60c96a0a9a64b48fbd","636920b2a169c7877b98c590","1016","","j","","","","","","","","./tasks/HMM-beads/Images/NewTrialBC.png","highH","8","1","1","1","2","false","","","","","","","","","","","","","","","","",""
"image-keyboard-response","102","159368","0.0-4.0-6.0-1.0-1.8","589ce4d65e63bf00013b3175","63690f60c96a0a9a64b48fbd","636920b2a169c7877b98c590","null","","null","","","","","","","","./tasks/HMM-beads/Images/WhiteBeadChoice.png","","","","","","","","","","","","","","","","","","","","","","","",""
"image-keyboard-response","103","159879","0.0-4.0-6.0-1.0-2.8","589ce4d65e63bf00013b3175","63690f60c96a0a9a64b48fbd","636920b2a169c7877b98c590","null","","null","","","","","","","","./tasks/HMM-beads/Images/WhiteBeadChoiceWrong.png","","","","","","","","","","","","","","","","","","","","","","","",""
"image-keyboard-response","104","160173","0.0-4.0-6.0-1.0-0.9","589ce4d65e63bf00013b3175","63690f60c96a0a9a64b48fbd","636920b2a169c7877b98c590","293","","j","","","","","","","","./tasks/HMM-beads/Images/NewTrialBC.png","highH","9","2","2","1","2","true","","","","","","","","","","","","","","","","",""
"image-keyboard-response","105","160486","0.0-4.0-6.0-1.0-1.9","589ce4d65e63bf00013b3175","63690f60c96a0a9a64b48fbd","636920b2a169c7877b98c590","null","","null","","","","","","","","./tasks/HMM-beads/Images/WhiteBeadChoice.png","","","","","","","","","","","","","","","","","","","","","","","",""
"image-keyboard-response","106","160999","0.0-4.0-6.0-1.0-2.9","589ce4d65e63bf00013b3175","63690f60c96a0a9a64b48fbd","636920b2a169c7877b98c590","null","","null","","","","","","","","./tasks/HMM-beads/Images/WhiteBeadChoiceCorrect.png","","","","","","","","","","","","","","","","","","","","","","","",""
"image-keyboard-response","107","161545","0.0-4.0-6.0-1.0-0.10","589ce4d65e63bf00013b3175","63690f60c96a0a9a64b48fbd","636920b2a169c7877b98c590","544","","f","","","","","","","","./tasks/HMM-beads/Images/NewTrialWC.png","highH","10","1","1","2","1","true","","","","","","","","","","","","","","","","",""
"image-keyboard-response","108","161854","0.0-4.0-6.0-1.0-1.10","589ce4d65e63bf00013b3175","63690f60c96a0a9a64b48fbd","636920b2a169c7877b98c590","null","","null","","","","","","","","./tasks/HMM-beads/Images/BlackBeadChoice.png","","","","","","","","","","","","","","","","","","","","","","","",""
"image-keyboard-response","109","162364","0.0-4.0-6.0-1.0-2.10","589ce4d65e63bf00013b3175","63690f60c96a0a9a64b48fbd","636920b2a169c7877b98c590","null","","null","","","","","","","","./tasks/HMM-beads/Images/BlackBeadChoiceCorrect.png","","","","","","","","","","","","","","","","","","","","","","","",""
"image-keyboard-response","110","162788","0.0-4.0-6.0-1.0-0.11","589ce4d65e63bf00013b3175","63690f60c96a0a9a64b48fbd","636920b2a169c7877b98c590","419","","j","","","","","","","","./tasks/HMM-beads/Images/NewTrialBC.png","highH","11","2","2","1","2","true","","","","","","","","","","","","","","","","",""
"image-keyboard-response","111","163094","0.0-4.0-6.0-1.0-1.11","589ce4d65e63bf00013b3175","63690f60c96a0a9a64b48fbd","636920b2a169c7877b98c590","null","","null","","","","","","","","./tasks/HMM-beads/Images/WhiteBeadChoice.png","","","","","","","","","","","","","","","","","","","","","","","",""
"image-keyboard-response","112","163598","0.0-4.0-6.0-1.0-2.11","589ce4d65e63bf00013b3175","63690f60c96a0a9a64b48fbd","636920b2a169c7877b98c590","null","","null","","","","","","","","./tasks/HMM-beads/Images/WhiteBeadChoiceCorrect.png","","","","","","","","","","","","","","","","","","","","","","","",""
"image-keyboard-response","113","163987","0.0-4.0-6.0-1.0-0.12","589ce4d65e63bf00013b3175","63690f60c96a0a9a64b48fbd","636920b2a169c7877b98c590","386","","f","","","","","","","","./tasks/HMM-beads/Images/NewTrialWC.png","highH","12","1","1","2","1","true","","","","","","","","","","","","","","","","",""
"image-keyboard-response","114","164302","0.0-4.0-6.0-1.0-1.12","589ce4d65e63bf00013b3175","63690f60c96a0a9a64b48fbd","636920b2a169c7877b98c590","null","","null","","","","","","","","./tasks/HMM-beads/Images/BlackBeadChoice.png","","","","","","","","","","","","","","","","","","","","","","","",""
"image-keyboard-response","115","164812","0.0-4.0-6.0-1.0-2.12","589ce4d65e63bf00013b3175","63690f60c96a0a9a64b48fbd","636920b2a169c7877b98c590","null","","null","","","","","","","","./tasks/HMM-beads/Images/BlackBeadChoiceCorrect.png","","","","","","","","","","","","","","","","","","","","","","","",""
"image-keyboard-response","116","165340","0.0-4.0-6.0-1.0-0.13","589ce4d65e63bf00013b3175","63690f60c96a0a9a64b48fbd","636920b2a169c7877b98c590","525","","j","","","","","","","","./tasks/HMM-beads/Images/NewTrialBC.png","highH","13","2","1","1","2","false","","","","","","","","","","","","","","","","",""
"image-keyboard-response","117","165649","0.0-4.0-6.0-1.0-1.13","589ce4d65e63bf00013b3175","63690f60c96a0a9a64b48fbd","636920b2a169c7877b98c590","null","","null","","","","","","","","./tasks/HMM-beads/Images/WhiteBeadChoice.png","","","","","","","","","","","","","","","","","","","","","","","",""
"image-keyboard-response","118","166161","0.0-4.0-6.0-1.0-2.13","589ce4d65e63bf00013b3175","63690f60c96a0a9a64b48fbd","636920b2a169c7877b98c590","null","","null","","","","","","","","./tasks/HMM-beads/Images/WhiteBeadChoiceWrong.png","","","","","","","","","","","","","","","","","","","","","","","",""
"image-keyboard-response","119","166684","0.0-4.0-6.0-1.0-0.14","589ce4d65e63bf00013b3175","63690f60c96a0a9a64b48fbd","636920b2a169c7877b98c590","520","","j","","","","","","","","./tasks/HMM-beads/Images/NewTrialBC.png","highH","14","1","2","1","2","true","","","","","","","","","","","","","","","","",""
"image-keyboard-response","120","167002","0.0-4.0-6.0-1.0-1.14","589ce4d65e63bf00013b3175","63690f60c96a0a9a64b48fbd","636920b2a169c7877b98c590","null","","null","","","","","","","","./tasks/HMM-beads/Images/WhiteBeadChoice.png","","","","","","","","","","","","","","","","","","","","","","","",""
"image-keyboard-response","121","167513","0.0-4.0-6.0-1.0-2.14","589ce4d65e63bf00013b3175","63690f60c96a0a9a64b48fbd","636920b2a169c7877b98c590","null","","null","","","","","","","","./tasks/HMM-beads/Images/WhiteBeadChoiceCorrect.png","","","","","","","","","","","","","","","","","","","","","","","",""
"image-keyboard-response","122","167928","0.0-4.0-6.0-1.0-0.15","589ce4d65e63bf00013b3175","63690f60c96a0a9a64b48fbd","636920b2a169c7877b98c590","413","","f","","","","","","","","./tasks/HMM-beads/Images/NewTrialWC.png","highH","15","2","2","2","1","false","","","","","","","","","","","","","","","","",""
"image-keyboard-response","123","168242","0.0-4.0-6.0-1.0-1.15","589ce4d65e63bf00013b3175","63690f60c96a0a9a64b48fbd","636920b2a169c7877b98c590","null","","null","","","","","","","","./tasks/HMM-beads/Images/BlackBeadChoice.png","","","","","","","","","","","","","","","","","","","","","","","",""
"image-keyboard-response","124","168755","0.0-4.0-6.0-1.0-2.15","589ce4d65e63bf00013b3175","63690f60c96a0a9a64b48fbd","636920b2a169c7877b98c590","null","","null","","","","","","","","./tasks/HMM-beads/Images/BlackBeadChoiceWrong.png","","","","","","","","","","","","","","","","","","","","","","","",""
"image-keyboard-response","125","169053","0.0-4.0-6.0-1.0-0.16","589ce4d65e63bf00013b3175","63690f60c96a0a9a64b48fbd","636920b2a169c7877b98c590","297","","f","","","","","","","","./tasks/HMM-beads/Images/NewTrialWC.png","highH","16","1","1","2","1","true","","","","","","","","","","","","","","","","",""
"image-keyboard-response","126","169360","0.0-4.0-6.0-1.0-1.16","589ce4d65e63bf00013b3175","63690f60c96a0a9a64b48fbd","636920b2a169c7877b98c590","null","","null","","","","","","","","./tasks/HMM-beads/Images/BlackBeadChoice.png","","","","","","","","","","","","","","","","","","","","","","","",""
"image-keyboard-response","127","169874","0.0-4.0-6.0-1.0-2.16","589ce4d65e63bf00013b3175","63690f60c96a0a9a64b48fbd","636920b2a169c7877b98c590","null","","null","","","","","","","","./tasks/HMM-beads/Images/BlackBeadChoiceCorrect.png","","","","","","","","","","","","","","","","","","","","","","","",""
"image-keyboard-response","128","170142","0.0-4.0-6.0-1.0-0.17","589ce4d65e63bf00013b3175","63690f60c96a0a9a64b48fbd","636920b2a169c7877b98c590","267","","j","","","","","","","","./tasks/HMM-beads/Images/NewTrialBC.png","highH","17","2","2","1","2","true","","","","","","","","","","","","","","","","",""
"image-keyboard-response","129","170445","0.0-4.0-6.0-1.0-1.17","589ce4d65e63bf00013b3175","63690f60c96a0a9a64b48fbd","636920b2a169c7877b98c590","null","","null","","","","","","","","./tasks/HMM-beads/Images/WhiteBeadChoice.png","","","","","","","","","","","","","","","","","","","","","","","",""
"image-keyboard-response","130","170959","0.0-4.0-6.0-1.0-2.17","589ce4d65e63bf00013b3175","63690f60c96a0a9a64b48fbd","636920b2a169c7877b98c590","null","","null","","","","","","","","./tasks/HMM-beads/Images/WhiteBeadChoiceCorrect.png","","","","","","","","","","","","","","","","","","","","","","","",""
"image-keyboard-response","131","171463","0.0-4.0-6.0-1.0-0.18","589ce4d65e63bf00013b3175","63690f60c96a0a9a64b48fbd","636920b2a169c7877b98c590","502","","f","","","","","","","","./tasks/HMM-beads/Images/NewTrialWC.png","highH","18","1","2","2","1","false","","","","","","","","","","","","","","","","",""
"image-keyboard-response","132","171782","0.0-4.0-6.0-1.0-1.18","589ce4d65e63bf00013b3175","63690f60c96a0a9a64b48fbd","636920b2a169c7877b98c590","null","","null","","","","","","","","./tasks/HMM-beads/Images/BlackBeadChoice.png","","","","","","","","","","","","","","","","","","","","","","","",""
"image-keyboard-response","133","172294","0.0-4.0-6.0-1.0-2.18","589ce4d65e63bf00013b3175","63690f60c96a0a9a64b48fbd","636920b2a169c7877b98c590","null","","null","","","","","","","","./tasks/HMM-beads/Images/BlackBeadChoiceWrong.png","","","","","","","","","","","","","","","","","","","","","","","",""
"image-keyboard-response","134","173183","0.0-4.0-6.0-1.0-0.19","589ce4d65e63bf00013b3175","63690f60c96a0a9a64b48fbd","636920b2a169c7877b98c590","886","","f","","","","","","","","./tasks/HMM-beads/Images/NewTrialWC.png","highH","19","2","2","2","1","false","","","","","","","","","","","","","","","","",""
"image-keyboard-response","135","173488","0.0-4.0-6.0-1.0-1.19","589ce4d65e63bf00013b3175","63690f60c96a0a9a64b48fbd","636920b2a169c7877b98c590","null","","null","","","","","","","","./tasks/HMM-beads/Images/BlackBeadChoice.png","","","","","","","","","","","","","","","","","","","","","","","",""
"image-keyboard-response","136","174001","0.0-4.0-6.0-1.0-2.19","589ce4d65e63bf00013b3175","63690f60c96a0a9a64b48fbd","636920b2a169c7877b98c590","null","","null","","","","","","","","./tasks/HMM-beads/Images/BlackBeadChoiceWrong.png","","","","","","","","","","","","","","","","","","","","","","","",""
"image-keyboard-response","137","174913","0.0-4.0-6.0-1.0-0.20","589ce4d65e63bf00013b3175","63690f60c96a0a9a64b48fbd","636920b2a169c7877b98c590","910","","f","","","","","","","","./tasks/HMM-beads/Images/NewTrialWC.png","highH","20","1","1","2","1","true","","","","","","","","","","","","","","","","",""
"image-keyboard-response","138","175225","0.0-4.0-6.0-1.0-1.20","589ce4d65e63bf00013b3175","63690f60c96a0a9a64b48fbd","636920b2a169c7877b98c590","null","","null","","","","","","","","./tasks/HMM-beads/Images/BlackBeadChoice.png","","","","","","","","","","","","","","","","","","","","","","","",""
"image-keyboard-response","139","175742","0.0-4.0-6.0-1.0-2.20","589ce4d65e63bf00013b3175","63690f60c96a0a9a64b48fbd","636920b2a169c7877b98c590","null","","null","","","","","","","","./tasks/HMM-beads/Images/BlackBeadChoiceCorrect.png","","","","","","","","","","","","","","","","","","","","","","","",""
"image-keyboard-response","140","176253","0.0-4.0-6.0-1.0-0.21","589ce4d65e63bf00013b3175","63690f60c96a0a9a64b48fbd","636920b2a169c7877b98c590","507","","j","","","","","","","","./tasks/HMM-beads/Images/NewTrialBC.png","highH","21","2","1","1","2","false","","","","","","","","","","","","","","","","",""
"image-keyboard-response","141","176567","0.0-4.0-6.0-1.0-1.21","589ce4d65e63bf00013b3175","63690f60c96a0a9a64b48fbd","636920b2a169c7877b98c590","null","","null","","","","","","","","./tasks/HMM-beads/Images/WhiteBeadChoice.png","","","","","","","","","","","","","","","","","","","","","","","",""
"image-keyboard-response","142","177080","0.0-4.0-6.0-1.0-2.21","589ce4d65e63bf00013b3175","63690f60c96a0a9a64b48fbd","636920b2a169c7877b98c590","null","","null","","","","","","","","./tasks/HMM-beads/Images/WhiteBeadChoiceWrong.png","","","","","","","","","","","","","","","","","","","","","","","",""
"image-keyboard-response","143","177458","0.0-4.0-6.0-1.0-0.22","589ce4d65e63bf00013b3175","63690f60c96a0a9a64b48fbd","636920b2a169c7877b98c590","376","","j","","","","","","","","./tasks/HMM-beads/Images/NewTrialBC.png","highH","22","1","1","1","2","false","","","","","","","","","","","","","","","","",""
"image-keyboard-response","144","177766","0.0-4.0-6.0-1.0-1.22","589ce4d65e63bf00013b3175","63690f60c96a0a9a64b48fbd","636920b2a169c7877b98c590","null","","null","","","","","","","","./tasks/HMM-beads/Images/WhiteBeadChoice.png","","","","","","","","","","","","","","","","","","","","","","","",""
"image-keyboard-response","145","178278","0.0-4.0-6.0-1.0-2.22","589ce4d65e63bf00013b3175","63690f60c96a0a9a64b48fbd","636920b2a169c7877b98c590","null","","null","","","","","","","","./tasks/HMM-beads/Images/WhiteBeadChoiceWrong.png","","","","","","","","","","","","","","","","","","","","","","","",""
"image-keyboard-response","146","178560","0.0-4.0-6.0-1.0-0.23","589ce4d65e63bf00013b3175","63690f60c96a0a9a64b48fbd","636920b2a169c7877b98c590","280","","j","","","","","","","","./tasks/HMM-beads/Images/NewTrialBC.png","highH","23","2","2","1","2","true","","","","","","","","","","","","","","","","",""
"image-keyboard-response","147","178868","0.0-4.0-6.0-1.0-1.23","589ce4d65e63bf00013b3175","63690f60c96a0a9a64b48fbd","636920b2a169c7877b98c590","null","","null","","","","","","","","./tasks/HMM-beads/Images/WhiteBeadChoice.png","","","","","","","","","","","","","","","","","","","","","","","",""
"image-keyboard-response","148","179378","0.0-4.0-6.0-1.0-2.23","589ce4d65e63bf00013b3175","63690f60c96a0a9a64b48fbd","636920b2a169c7877b98c590","null","","null","","","","","","","","./tasks/HMM-beads/Images/WhiteBeadChoiceCorrect.png","","","","","","","","","","","","","","","","","","","","","","","",""
"image-keyboard-response","149","179713","0.0-4.0-6.0-1.0-0.24","589ce4d65e63bf00013b3175","63690f60c96a0a9a64b48fbd","636920b2a169c7877b98c590","334","","f","","","","","","","","./tasks/HMM-beads/Images/NewTrialWC.png","highH","24","1","1","2","1","true","","","","","","","","","","","","","","","","",""
"image-keyboard-response","150","180030","0.0-4.0-6.0-1.0-1.24","589ce4d65e63bf00013b3175","63690f60c96a0a9a64b48fbd","636920b2a169c7877b98c590","null","","null","","","","","","","","./tasks/HMM-beads/Images/BlackBeadChoice.png","","","","","","","","","","","","","","","","","","","","","","","",""
"image-keyboard-response","151","180543","0.0-4.0-6.0-1.0-2.24","589ce4d65e63bf00013b3175","63690f60c96a0a9a64b48fbd","636920b2a169c7877b98c590","null","","null","","","","","","","","./tasks/HMM-beads/Images/BlackBeadChoiceCorrect.png","","","","","","","","","","","","","","","","","","","","","","","",""
"image-keyboard-response","152","180883","0.0-4.0-6.0-1.0-0.25","589ce4d65e63bf00013b3175","63690f60c96a0a9a64b48fbd","636920b2a169c7877b98c590","338","","j","","","","","","","","./tasks/HMM-beads/Images/NewTrialBC.png","highH","25","2","1","1","2","false","","","","","","","","","","","","","","","","",""
"image-keyboard-response","153","181194","0.0-4.0-6.0-1.0-1.25","589ce4d65e63bf00013b3175","63690f60c96a0a9a64b48fbd","636920b2a169c7877b98c590","null","","null","","","","","","","","./tasks/HMM-beads/Images/WhiteBeadChoice.png","","","","","","","","","","","","","","","","","","","","","","","",""
"image-keyboard-response","154","181708","0.0-4.0-6.0-1.0-2.25","589ce4d65e63bf00013b3175","63690f60c96a0a9a64b48fbd","636920b2a169c7877b98c590","null","","null","","","","","","","","./tasks/HMM-beads/Images/WhiteBeadChoiceWrong.png","","","","","","","","","","","","","","","","","","","","","","","",""
"image-keyboard-response","155","182040","0.0-4.0-6.0-1.0-0.26","589ce4d65e63bf00013b3175","63690f60c96a0a9a64b48fbd","636920b2a169c7877b98c590","332","","j","","","","","","","","./tasks/HMM-beads/Images/NewTrialBC.png","highH","26","1","1","1","2","false","","","","","","","","","","","","","","","","",""
"image-keyboard-response","156","182343","0.0-4.0-6.0-1.0-1.26","589ce4d65e63bf00013b3175","63690f60c96a0a9a64b48fbd","636920b2a169c7877b98c590","null","","null","","","","","","","","./tasks/HMM-beads/Images/WhiteBeadChoice.png","","","","","","","","","","","","","","","","","","","","","","","",""
"image-keyboard-response","157","182856","0.0-4.0-6.0-1.0-2.26","589ce4d65e63bf00013b3175","63690f60c96a0a9a64b48fbd","636920b2a169c7877b98c590","null","","null","","","","","","","","./tasks/HMM-beads/Images/WhiteBeadChoiceWrong.png","","","","","","","","","","","","","","","","","","","","","","","",""
"image-keyboard-response","158","183176","0.0-4.0-6.0-1.0-0.27","589ce4d65e63bf00013b3175","63690f60c96a0a9a64b48fbd","636920b2a169c7877b98c590","317","","j","","","","","","","","./tasks/HMM-beads/Images/NewTrialBC.png","highH","27","2","2","1","2","true","","","","","","","","","","","","","","","","",""
"image-keyboard-response","159","183479","0.0-4.0-6.0-1.0-1.27","589ce4d65e63bf00013b3175","63690f60c96a0a9a64b48fbd","636920b2a169c7877b98c590","null","","null","","","","","","","","./tasks/HMM-beads/Images/WhiteBeadChoice.png","","","","","","","","","","","","","","","","","","","","","","","",""
"image-keyboard-response","160","183990","0.0-4.0-6.0-1.0-2.27","589ce4d65e63bf00013b3175","63690f60c96a0a9a64b48fbd","636920b2a169c7877b98c590","null","","null","","","","","","","","./tasks/HMM-beads/Images/WhiteBeadChoiceCorrect.png","","","","","","","","","","","","","","","","","","","","","","","",""
"image-keyboard-response","161","184363","0.0-4.0-6.0-1.0-0.28","589ce4d65e63bf00013b3175","63690f60c96a0a9a64b48fbd","636920b2a169c7877b98c590","372","","f","","","","","","","","./tasks/HMM-beads/Images/NewTrialWC.png","highH","28","2","1","2","1","true","","","","","","","","","","","","","","","","",""
"image-keyboard-response","162","184674","0.0-4.0-6.0-1.0-1.28","589ce4d65e63bf00013b3175","63690f60c96a0a9a64b48fbd","636920b2a169c7877b98c590","null","","null","","","","","","","","./tasks/HMM-beads/Images/BlackBeadChoice.png","","","","","","","","","","","","","","","","","","","","","","","",""
"image-keyboard-response","163","185188","0.0-4.0-6.0-1.0-2.28","589ce4d65e63bf00013b3175","63690f60c96a0a9a64b48fbd","636920b2a169c7877b98c590","null","","null","","","","","","","","./tasks/HMM-beads/Images/BlackBeadChoiceCorrect.png","","","","","","","","","","","","","","","","","","","","","","","",""
"image-keyboard-response","164","185507","0.0-4.0-6.0-1.0-0.29","589ce4d65e63bf00013b3175","63690f60c96a0a9a64b48fbd","636920b2a169c7877b98c590","314","","j","","","","","","","","./tasks/HMM-beads/Images/NewTrialBC.png","highH","29","1","1","1","2","false","","","","","","","","","","","","","","","","",""
"image-keyboard-response","165","185825","0.0-4.0-6.0-1.0-1.29","589ce4d65e63bf00013b3175","63690f60c96a0a9a64b48fbd","636920b2a169c7877b98c590","null","","null","","","","","","","","./tasks/HMM-beads/Images/WhiteBeadChoice.png","","","","","","","","","","","","","","","","","","","","","","","",""
"image-keyboard-response","166","186336","0.0-4.0-6.0-1.0-2.29","589ce4d65e63bf00013b3175","63690f60c96a0a9a64b48fbd","636920b2a169c7877b98c590","null","","null","","","","","","","","./tasks/HMM-beads/Images/WhiteBeadChoiceWrong.png","","","","","","","","","","","","","","","","","","","","","","","",""
"image-keyboard-response","167","186636","0.0-4.0-6.0-1.0-0.30","589ce4d65e63bf00013b3175","63690f60c96a0a9a64b48fbd","636920b2a169c7877b98c590","299","","j","","","","","","","","./tasks/HMM-beads/Images/NewTrialBC.png","highH","30","2","1","1","2","false","","","","","","","","","","","","","","","","",""
"image-keyboard-response","168","186942","0.0-4.0-6.0-1.0-1.30","589ce4d65e63bf00013b3175","63690f60c96a0a9a64b48fbd","636920b2a169c7877b98c590","null","","null","","","","","","","","./tasks/HMM-beads/Images/WhiteBeadChoice.png","","","","","","","","","","","","","","","","","","","","","","","",""
"image-keyboard-response","169","187456","0.0-4.0-6.0-1.0-2.30","589ce4d65e63bf00013b3175","63690f60c96a0a9a64b48fbd","636920b2a169c7877b98c590","null","","null","","","","","","","","./tasks/HMM-beads/Images/WhiteBeadChoiceWrong.png","","","","","","","","","","","","","","","","","","","","","","","",""
"image-keyboard-response","170","187643","0.0-4.0-6.0-1.0-0.31","589ce4d65e63bf00013b3175","63690f60c96a0a9a64b48fbd","636920b2a169c7877b98c590","187","","j","","","","","","","","./tasks/HMM-beads/Images/NewTrialBC.png","highH","31","1","1","1","2","false","","","","","","","","","","","","","","","","",""
"image-keyboard-response","171","187952","0.0-4.0-6.0-1.0-1.31","589ce4d65e63bf00013b3175","63690f60c96a0a9a64b48fbd","636920b2a169c7877b98c590","null","","null","","","","","","","","./tasks/HMM-beads/Images/WhiteBeadChoice.png","","","","","","","","","","","","","","","","","","","","","","","",""
"image-keyboard-response","172","188464","0.0-4.0-6.0-1.0-2.31","589ce4d65e63bf00013b3175","63690f60c96a0a9a64b48fbd","636920b2a169c7877b98c590","null","","null","","","","","","","","./tasks/HMM-beads/Images/WhiteBeadChoiceWrong.png","","","","","","","","","","","","","","","","","","","","","","","",""
"image-keyboard-response","173","188626","0.0-4.0-6.0-1.0-0.32","589ce4d65e63bf00013b3175","63690f60c96a0a9a64b48fbd","636920b2a169c7877b98c590","158","","j","","","","","","","","./tasks/HMM-beads/Images/NewTrialBC.png","highH","32","2","2","1","2","true","","","","","","","","","","","","","","","","",""
"image-keyboard-response","174","188931","0.0-4.0-6.0-1.0-1.32","589ce4d65e63bf00013b3175","63690f60c96a0a9a64b48fbd","636920b2a169c7877b98c590","null","","null","","","","","","","","./tasks/HMM-beads/Images/WhiteBeadChoice.png","","","","","","","","","","","","","","","","","","","","","","","",""
"image-keyboard-response","175","189444","0.0-4.0-6.0-1.0-2.32","589ce4d65e63bf00013b3175","63690f60c96a0a9a64b48fbd","636920b2a169c7877b98c590","null","","null","","","","","","","","./tasks/HMM-beads/Images/WhiteBeadChoiceCorrect.png","","","","","","","","","","","","","","","","","","","","","","","",""
"image-keyboard-response","176","189848","0.0-4.0-6.0-1.0-0.33","589ce4d65e63bf00013b3175","63690f60c96a0a9a64b48fbd","636920b2a169c7877b98c590","399","","f","","","","","","","","./tasks/HMM-beads/Images/NewTrialWC.png","highH","33","1","1","2","1","true","","","","","","","","","","","","","","","","",""
"image-keyboard-response","177","190158","0.0-4.0-6.0-1.0-1.33","589ce4d65e63bf00013b3175","63690f60c96a0a9a64b48fbd","636920b2a169c7877b98c590","null","","null","","","","","","","","./tasks/HMM-beads/Images/BlackBeadChoice.png","","","","","","","","","","","","","","","","","","","","","","","",""
"image-keyboard-response","178","190671","0.0-4.0-6.0-1.0-2.33","589ce4d65e63bf00013b3175","63690f60c96a0a9a64b48fbd","636920b2a169c7877b98c590","null","","null","","","","","","","","./tasks/HMM-beads/Images/BlackBeadChoiceCorrect.png","","","","","","","","","","","","","","","","","","","","","","","",""
"image-keyboard-response","179","191192","0.0-4.0-6.0-1.0-0.34","589ce4d65e63bf00013b3175","63690f60c96a0a9a64b48fbd","636920b2a169c7877b98c590","519","","j","","","","","","","","./tasks/HMM-beads/Images/NewTrialBC.png","highH","34","2","2","1","2","true","","","","","","","","","","","","","","","","",""
"image-keyboard-response","180","191507","0.0-4.0-6.0-1.0-1.34","589ce4d65e63bf00013b3175","63690f60c96a0a9a64b48fbd","636920b2a169c7877b98c590","null","","null","","","","","","","","./tasks/HMM-beads/Images/WhiteBeadChoice.png","","","","","","","","","","","","","","","","","","","","","","","",""
"image-keyboard-response","181","192019","0.0-4.0-6.0-1.0-2.34","589ce4d65e63bf00013b3175","63690f60c96a0a9a64b48fbd","636920b2a169c7877b98c590","null","","null","","","","","","","","./tasks/HMM-beads/Images/WhiteBeadChoiceCorrect.png","","","","","","","","","","","","","","","","","","","","","","","",""
"image-keyboard-response","182","192366","0.0-4.0-6.0-1.0-0.35","589ce4d65e63bf00013b3175","63690f60c96a0a9a64b48fbd","636920b2a169c7877b98c590","345","","f","","","","","","","","./tasks/HMM-beads/Images/NewTrialWC.png","highH","35","1","1","2","1","true","","","","","","","","","","","","","","","","",""
"image-keyboard-response","183","192684","0.0-4.0-6.0-1.0-1.35","589ce4d65e63bf00013b3175","63690f60c96a0a9a64b48fbd","636920b2a169c7877b98c590","null","","null","","","","","","","","./tasks/HMM-beads/Images/BlackBeadChoice.png","","","","","","","","","","","","","","","","","","","","","","","",""
"image-keyboard-response","184","193197","0.0-4.0-6.0-1.0-2.35","589ce4d65e63bf00013b3175","63690f60c96a0a9a64b48fbd","636920b2a169c7877b98c590","null","","null","","","","","","","","./tasks/HMM-beads/Images/BlackBeadChoiceCorrect.png","","","","","","","","","","","","","","","","","","","","","","","",""
"image-keyboard-response","185","193494","0.0-4.0-6.0-1.0-0.36","589ce4d65e63bf00013b3175","63690f60c96a0a9a64b48fbd","636920b2a169c7877b98c590","293","","j","","","","","","","","./tasks/HMM-beads/Images/NewTrialBC.png","highH","36","2","1","1","2","false","","","","","","","","","","","","","","","","",""
"image-keyboard-response","186","193801","0.0-4.0-6.0-1.0-1.36","589ce4d65e63bf00013b3175","63690f60c96a0a9a64b48fbd","636920b2a169c7877b98c590","null","","null","","","","","","","","./tasks/HMM-beads/Images/WhiteBeadChoice.png","","","","","","","","","","","","","","","","","","","","","","","",""
"image-keyboard-response","187","194315","0.0-4.0-6.0-1.0-2.36","589ce4d65e63bf00013b3175","63690f60c96a0a9a64b48fbd","636920b2a169c7877b98c590","null","","null","","","","","","","","./tasks/HMM-beads/Images/WhiteBeadChoiceWrong.png","","","","","","","","","","","","","","","","","","","","","","","",""
"image-keyboard-response","188","194430","0.0-4.0-6.0-1.0-0.37","589ce4d65e63bf00013b3175","63690f60c96a0a9a64b48fbd","636920b2a169c7877b98c590","112","","j","","","","","","","","./tasks/HMM-beads/Images/NewTrialBC.png","highH","37","1","1","1","2","false","","","","","","","","","","","","","","","","",""
"image-keyboard-response","189","194735","0.0-4.0-6.0-1.0-1.37","589ce4d65e63bf00013b3175","63690f60c96a0a9a64b48fbd","636920b2a169c7877b98c590","null","","null","","","","","","","","./tasks/HMM-beads/Images/WhiteBeadChoice.png","","","","","","","","","","","","","","","","","","","","","","","",""
"image-keyboard-response","190","195245","0.0-4.0-6.0-1.0-2.37","589ce4d65e63bf00013b3175","63690f60c96a0a9a64b48fbd","636920b2a169c7877b98c590","null","","null","","","","","","","","./tasks/HMM-beads/Images/WhiteBeadChoiceWrong.png","","","","","","","","","","","","","","","","","","","","","","","",""
"image-keyboard-response","191","195304","0.0-4.0-6.0-1.0-0.38","589ce4d65e63bf00013b3175","63690f60c96a0a9a64b48fbd","636920b2a169c7877b98c590","58","","j","","","","","","","","./tasks/HMM-beads/Images/NewTrialBC.png","highH","38","2","2","1","2","true","","","","","","","","","","","","","","","","",""
"image-keyboard-response","192","195617","0.0-4.0-6.0-1.0-1.38","589ce4d65e63bf00013b3175","63690f60c96a0a9a64b48fbd","636920b2a169c7877b98c590","null","","null","","","","","","","","./tasks/HMM-beads/Images/WhiteBeadChoice.png","","","","","","","","","","","","","","","","","","","","","","","",""
"image-keyboard-response","193","196128","0.0-4.0-6.0-1.0-2.38","589ce4d65e63bf00013b3175","63690f60c96a0a9a64b48fbd","636920b2a169c7877b98c590","null","","null","","","","","","","","./tasks/HMM-beads/Images/WhiteBeadChoiceCorrect.png","","","","","","","","","","","","","","","","","","","","","","","",""
"image-keyboard-response","194","196852","0.0-4.0-6.0-1.0-0.39","589ce4d65e63bf00013b3175","63690f60c96a0a9a64b48fbd","636920b2a169c7877b98c590","723","","f","","","","","","","","./tasks/HMM-beads/Images/NewTrialWC.png","highH","39","1","1","2","1","true","","","","","","","","","","","","","","","","",""
"image-keyboard-response","195","197168","0.0-4.0-6.0-1.0-1.39","589ce4d65e63bf00013b3175","63690f60c96a0a9a64b48fbd","636920b2a169c7877b98c590","null","","null","","","","","","","","./tasks/HMM-beads/Images/BlackBeadChoice.png","","","","","","","","","","","","","","","","","","","","","","","",""
"image-keyboard-response","196","197678","0.0-4.0-6.0-1.0-2.39","589ce4d65e63bf00013b3175","63690f60c96a0a9a64b48fbd","636920b2a169c7877b98c590","null","","null","","","","","","","","./tasks/HMM-beads/Images/BlackBeadChoiceCorrect.png","","","","","","","","","","","","","","","","","","","","","","","",""
"image-keyboard-response","197","198400","0.0-4.0-6.0-1.0-0.40","589ce4d65e63bf00013b3175","63690f60c96a0a9a64b48fbd","636920b2a169c7877b98c590","719","","j","","","","","","","","./tasks/HMM-beads/Images/NewTrialBC.png","highH","40","2","2","1","2","true","","","","","","","","","","","","","","","","",""
"image-keyboard-response","198","198716","0.0-4.0-6.0-1.0-1.40","589ce4d65e63bf00013b3175","63690f60c96a0a9a64b48fbd","636920b2a169c7877b98c590","null","","null","","","","","","","","./tasks/HMM-beads/Images/WhiteBeadChoice.png","","","","","","","","","","","","","","","","","","","","","","","",""
"image-keyboard-response","199","199230","0.0-4.0-6.0-1.0-2.40","589ce4d65e63bf00013b3175","63690f60c96a0a9a64b48fbd","636920b2a169c7877b98c590","null","","null","","","","","","","","./tasks/HMM-beads/Images/WhiteBeadChoiceCorrect.png","","","","","","","","","","","","","","","","","","","","","","","",""
"image-keyboard-response","200","200191","0.0-4.0-6.0-1.0-0.41","589ce4d65e63bf00013b3175","63690f60c96a0a9a64b48fbd","636920b2a169c7877b98c590","959","","f","","","","","","","","./tasks/HMM-beads/Images/NewTrialWC.png","highH","41","1","2","2","1","false","","","","","","","","","","","","","","","","",""
"image-keyboard-response","201","200503","0.0-4.0-6.0-1.0-1.41","589ce4d65e63bf00013b3175","63690f60c96a0a9a64b48fbd","636920b2a169c7877b98c590","null","","null","","","","","","","","./tasks/HMM-beads/Images/BlackBeadChoice.png","","","","","","","","","","","","","","","","","","","","","","","",""
"image-keyboard-response","202","201019","0.0-4.0-6.0-1.0-2.41","589ce4d65e63bf00013b3175","63690f60c96a0a9a64b48fbd","636920b2a169c7877b98c590","null","","null","","","","","","","","./tasks/HMM-beads/Images/BlackBeadChoiceWrong.png","","","","","","","","","","","","","","","","","","","","","","","",""
"image-keyboard-response","203","201469","0.0-4.0-6.0-1.0-0.42","589ce4d65e63bf00013b3175","63690f60c96a0a9a64b48fbd","636920b2a169c7877b98c590","449","","f","","","","","","","","./tasks/HMM-beads/Images/NewTrialWC.png","highH","42","2","2","2","1","false","","","","","","","","","","","","","","","","",""
"image-keyboard-response","204","201785","0.0-4.0-6.0-1.0-1.42","589ce4d65e63bf00013b3175","63690f60c96a0a9a64b48fbd","636920b2a169c7877b98c590","null","","null","","","","","","","","./tasks/HMM-beads/Images/BlackBeadChoice.png","","","","","","","","","","","","","","","","","","","","","","","",""
"image-keyboard-response","205","202298","0.0-4.0-6.0-1.0-2.42","589ce4d65e63bf00013b3175","63690f60c96a0a9a64b48fbd","636920b2a169c7877b98c590","null","","null","","","","","","","","./tasks/HMM-beads/Images/BlackBeadChoiceWrong.png","","","","","","","","","","","","","","","","","","","","","","","",""
"image-keyboard-response","206","202550","0.0-4.0-6.0-1.0-0.43","589ce4d65e63bf00013b3175","63690f60c96a0a9a64b48fbd","636920b2a169c7877b98c590","250","","f","","","","","","","","./tasks/HMM-beads/Images/NewTrialWC.png","highH","43","1","1","2","1","true","","","","","","","","","","","","","","","","",""
"image-keyboard-response","207","202857","0.0-4.0-6.0-1.0-1.43","589ce4d65e63bf00013b3175","63690f60c96a0a9a64b48fbd","636920b2a169c7877b98c590","null","","null","","","","","","","","./tasks/HMM-beads/Images/BlackBeadChoice.png","","","","","","","","","","","","","","","","","","","","","","","",""
"image-keyboard-response","208","203372","0.0-4.0-6.0-1.0-2.43","589ce4d65e63bf00013b3175","63690f60c96a0a9a64b48fbd","636920b2a169c7877b98c590","null","","null","","","","","","","","./tasks/HMM-beads/Images/BlackBeadChoiceCorrect.png","","","","","","","","","","","","","","","","","","","","","","","",""
"image-keyboard-response","209","205871","0.0-4.0-6.0-1.0-0.44","589ce4d65e63bf00013b3175","63690f60c96a0a9a64b48fbd","636920b2a169c7877b98c590","2497","","j","","","","","","","","./tasks/HMM-beads/Images/NewTrialBC.png","highH","44","2","1","1","2","false","","","","","","","","","","","","","","","","",""
"image-keyboard-response","210","206187","0.0-4.0-6.0-1.0-1.44","589ce4d65e63bf00013b3175","63690f60c96a0a9a64b48fbd","636920b2a169c7877b98c590","null","","null","","","","","","","","./tasks/HMM-beads/Images/WhiteBeadChoice.png","","","","","","","","","","","","","","","","","","","","","","","",""
"image-keyboard-response","211","206704","0.0-4.0-6.0-1.0-2.44","589ce4d65e63bf00013b3175","63690f60c96a0a9a64b48fbd","636920b2a169c7877b98c590","null","","null","","","","","","","","./tasks/HMM-beads/Images/WhiteBeadChoiceWrong.png","","","","","","","","","","","","","","","","","","","","","","","",""
"image-keyboard-response","212","206839","0.0-4.0-6.0-1.0-0.45","589ce4d65e63bf00013b3175","63690f60c96a0a9a64b48fbd","636920b2a169c7877b98c590","133","","j","","","","","","","","./tasks/HMM-beads/Images/NewTrialBC.png","highH","45","1","1","1","2","false","","","","","","","","","","","","","","","","",""
"image-keyboard-response","213","207142","0.0-4.0-6.0-1.0-1.45","589ce4d65e63bf00013b3175","63690f60c96a0a9a64b48fbd","636920b2a169c7877b98c590","null","","null","","","","","","","","./tasks/HMM-beads/Images/WhiteBeadChoice.png","","","","","","","","","","","","","","","","","","","","","","","",""
"image-keyboard-response","214","207658","0.0-4.0-6.0-1.0-2.45","589ce4d65e63bf00013b3175","63690f60c96a0a9a64b48fbd","636920b2a169c7877b98c590","null","","null","","","","","","","","./tasks/HMM-beads/Images/WhiteBeadChoiceWrong.png","","","","","","","","","","","","","","","","","","","","","","","",""
"image-keyboard-response","215","207715","0.0-4.0-6.0-1.0-0.46","589ce4d65e63bf00013b3175","63690f60c96a0a9a64b48fbd","636920b2a169c7877b98c590","55","","j","","","","","","","","./tasks/HMM-beads/Images/NewTrialBC.png","highH","46","2","2","1","2","true","","","","","","","","","","","","","","","","",""
"image-keyboard-response","216","208030","0.0-4.0-6.0-1.0-1.46","589ce4d65e63bf00013b3175","63690f60c96a0a9a64b48fbd","636920b2a169c7877b98c590","null","","null","","","","","","","","./tasks/HMM-beads/Images/WhiteBeadChoice.png","","","","","","","","","","","","","","","","","","","","","","","",""
"image-keyboard-response","217","208545","0.0-4.0-6.0-1.0-2.46","589ce4d65e63bf00013b3175","63690f60c96a0a9a64b48fbd","636920b2a169c7877b98c590","null","","null","","","","","","","","./tasks/HMM-beads/Images/WhiteBeadChoiceCorrect.png","","","","","","","","","","","","","","","","","","","","","","","",""
"image-keyboard-response","218","208999","0.0-4.0-6.0-1.0-0.47","589ce4d65e63bf00013b3175","63690f60c96a0a9a64b48fbd","636920b2a169c7877b98c590","453","","f","","","","","","","","./tasks/HMM-beads/Images/NewTrialWC.png","highH","47","1","1","2","1","true","","","","","","","","","","","","","","","","",""
"image-keyboard-response","219","209308","0.0-4.0-6.0-1.0-1.47","589ce4d65e63bf00013b3175","63690f60c96a0a9a64b48fbd","636920b2a169c7877b98c590","null","","null","","","","","","","","./tasks/HMM-beads/Images/BlackBeadChoice.png","","","","","","","","","","","","","","","","","","","","","","","",""
"image-keyboard-response","220","209821","0.0-4.0-6.0-1.0-2.47","589ce4d65e63bf00013b3175","63690f60c96a0a9a64b48fbd","636920b2a169c7877b98c590","null","","null","","","","","","","","./tasks/HMM-beads/Images/BlackBeadChoiceCorrect.png","","","","","","","","","","","","","","","","","","","","","","","",""
"image-keyboard-response","221","210573","0.0-4.0-6.0-1.0-0.48","589ce4d65e63bf00013b3175","63690f60c96a0a9a64b48fbd","636920b2a169c7877b98c590","750","","j","","","","","","","","./tasks/HMM-beads/Images/NewTrialBC.png","highH","48","2","2","1","2","true","","","","","","","","","","","","","","","","",""
"image-keyboard-response","222","210880","0.0-4.0-6.0-1.0-1.48","589ce4d65e63bf00013b3175","63690f60c96a0a9a64b48fbd","636920b2a169c7877b98c590","null","","null","","","","","","","","./tasks/HMM-beads/Images/WhiteBeadChoice.png","","","","","","","","","","","","","","","","","","","","","","","",""
"image-keyboard-response","223","211392","0.0-4.0-6.0-1.0-2.48","589ce4d65e63bf00013b3175","63690f60c96a0a9a64b48fbd","636920b2a169c7877b98c590","null","","null","","","","","","","","./tasks/HMM-beads/Images/WhiteBeadChoiceCorrect.png","","","","","","","","","","","","","","","","","","","","","","","",""
"image-keyboard-response","224","211888","0.0-4.0-6.0-1.0-0.49","589ce4d65e63bf00013b3175","63690f60c96a0a9a64b48fbd","636920b2a169c7877b98c590","496","","f","","","","","","","","./tasks/HMM-beads/Images/NewTrialWC.png","highH","49","1","1","2","1","true","","","","","","","","","","","","","","","","",""
"image-keyboard-response","225","212201","0.0-4.0-6.0-1.0-1.49","589ce4d65e63bf00013b3175","63690f60c96a0a9a64b48fbd","636920b2a169c7877b98c590","null","","null","","","","","","","","./tasks/HMM-beads/Images/BlackBeadChoice.png","","","","","","","","","","","","","","","","","","","","","","","",""
"image-keyboard-response","226","212702","0.0-4.0-6.0-1.0-2.49","589ce4d65e63bf00013b3175","63690f60c96a0a9a64b48fbd","636920b2a169c7877b98c590","null","","null","","","","","","","","./tasks/HMM-beads/Images/BlackBeadChoiceCorrect.png","","","","","","","","","","","","","","","","","","","","","","","",""
"image-keyboard-response","227","213028","0.0-4.0-6.0-1.0-0.50","589ce4d65e63bf00013b3175","63690f60c96a0a9a64b48fbd","636920b2a169c7877b98c590","324","","j","","","","","","","","./tasks/HMM-beads/Images/NewTrialBC.png","highH","50","2","1","1","2","false","","","","","","","","","","","","","","","","",""
"image-keyboard-response","228","213338","0.0-4.0-6.0-1.0-1.50","589ce4d65e63bf00013b3175","63690f60c96a0a9a64b48fbd","636920b2a169c7877b98c590","null","","null","","","","","","","","./tasks/HMM-beads/Images/WhiteBeadChoice.png","","","","","","","","","","","","","","","","","","","","","","","",""
"image-keyboard-response","229","213849","0.0-4.0-6.0-1.0-2.50","589ce4d65e63bf00013b3175","63690f60c96a0a9a64b48fbd","636920b2a169c7877b98c590","null","","null","","","","","","","","./tasks/HMM-beads/Images/WhiteBeadChoiceWrong.png","","","","","","","","","","","","","","","","","","","","","","","",""
"image-keyboard-response","230","214368","0.0-4.0-6.0-1.0-0.51","589ce4d65e63bf00013b3175","63690f60c96a0a9a64b48fbd","636920b2a169c7877b98c590","517","","j","","","","","","","","./tasks/HMM-beads/Images/NewTrialBC.png","highH","51","1","1","1","2","false","","","","","","","","","","","","","","","","",""
"image-keyboard-response","231","214671","0.0-4.0-6.0-1.0-1.51","589ce4d65e63bf00013b3175","63690f60c96a0a9a64b48fbd","636920b2a169c7877b98c590","null","","null","","","","","","","","./tasks/HMM-beads/Images/WhiteBeadChoice.png","","","","","","","","","","","","","","","","","","","","","","","",""
"image-keyboard-response","232","215182","0.0-4.0-6.0-1.0-2.51","589ce4d65e63bf00013b3175","63690f60c96a0a9a64b48fbd","636920b2a169c7877b98c590","null","","null","","","","","","","","./tasks/HMM-beads/Images/WhiteBeadChoiceWrong.png","","","","","","","","","","","","","","","","","","","","","","","",""
"image-keyboard-response","233","217984","0.0-4.0-6.0-1.0-0.52","589ce4d65e63bf00013b3175","63690f60c96a0a9a64b48fbd","636920b2a169c7877b98c590","2802","","j","","","","","","","","./tasks/HMM-beads/Images/NewTrialBC.png","highH","52","2","2","1","2","true","","","","","","","","","","","","","","","","",""
"image-keyboard-response","234","218287","0.0-4.0-6.0-1.0-1.52","589ce4d65e63bf00013b3175","63690f60c96a0a9a64b48fbd","636920b2a169c7877b98c590","null","","null","","","","","","","","./tasks/HMM-beads/Images/WhiteBeadChoice.png","","","","","","","","","","","","","","","","","","","","","","","",""
"image-keyboard-response","235","218800","0.0-4.0-6.0-1.0-2.52","589ce4d65e63bf00013b3175","63690f60c96a0a9a64b48fbd","636920b2a169c7877b98c590","null","","null","","","","","","","","./tasks/HMM-beads/Images/WhiteBeadChoiceCorrect.png","","","","","","","","","","","","","","","","","","","","","","","",""
"image-keyboard-response","236","218927","0.0-4.0-6.0-1.0-0.53","589ce4d65e63bf00013b3175","63690f60c96a0a9a64b48fbd","636920b2a169c7877b98c590","123","","f","","","","","","","","./tasks/HMM-beads/Images/NewTrialWC.png","highH","53","1","1","2","1","true","","","","","","","","","","","","","","","","",""
"image-keyboard-response","237","219235","0.0-4.0-6.0-1.0-1.53","589ce4d65e63bf00013b3175","63690f60c96a0a9a64b48fbd","636920b2a169c7877b98c590","null","","null","","","","","","","","./tasks/HMM-beads/Images/BlackBeadChoice.png","","","","","","","","","","","","","","","","","","","","","","","",""
"image-keyboard-response","238","219749","0.0-4.0-6.0-1.0-2.53","589ce4d65e63bf00013b3175","63690f60c96a0a9a64b48fbd","636920b2a169c7877b98c590","null","","null","","","","","","","","./tasks/HMM-beads/Images/BlackBeadChoiceCorrect.png","","","","","","","","","","","","","","","","","","","","","","","",""
"image-keyboard-response","239","219972","0.0-4.0-6.0-1.0-0.54","589ce4d65e63bf00013b3175","63690f60c96a0a9a64b48fbd","636920b2a169c7877b98c590","220","","j","","","","","","","","./tasks/HMM-beads/Images/NewTrialBC.png","highH","54","2","2","1","2","true","","","","","","","","","","","","","","","","",""
"image-keyboard-response","240","220276","0.0-4.0-6.0-1.0-1.54","589ce4d65e63bf00013b3175","63690f60c96a0a9a64b48fbd","636920b2a169c7877b98c590","null","","null","","","","","","","","./tasks/HMM-beads/Images/WhiteBeadChoice.png","","","","","","","","","","","","","","","","","","","","","","","",""
"image-keyboard-response","241","220790","0.0-4.0-6.0-1.0-2.54","589ce4d65e63bf00013b3175","63690f60c96a0a9a64b48fbd","636920b2a169c7877b98c590","null","","null","","","","","","","","./tasks/HMM-beads/Images/WhiteBeadChoiceCorrect.png","","","","","","","","","","","","","","","","","","","","","","","",""
"image-keyboard-response","242","220991","0.0-4.0-6.0-1.0-0.55","589ce4d65e63bf00013b3175","63690f60c96a0a9a64b48fbd","636920b2a169c7877b98c590","199","","f","","","","","","","","./tasks/HMM-beads/Images/NewTrialWC.png","highH","55","1","1","2","1","true","","","","","","","","","","","","","","","","",""
"image-keyboard-response","243","221305","0.0-4.0-6.0-1.0-1.55","589ce4d65e63bf00013b3175","63690f60c96a0a9a64b48fbd","636920b2a169c7877b98c590","null","","null","","","","","","","","./tasks/HMM-beads/Images/BlackBeadChoice.png","","","","","","","","","","","","","","","","","","","","","","","",""
"image-keyboard-response","244","221818","0.0-4.0-6.0-1.0-2.55","589ce4d65e63bf00013b3175","63690f60c96a0a9a64b48fbd","636920b2a169c7877b98c590","null","","null","","","","","","","","./tasks/HMM-beads/Images/BlackBeadChoiceCorrect.png","","","","","","","","","","","","","","","","","","","","","","","",""
"image-keyboard-response","245","221979","0.0-4.0-6.0-1.0-0.56","589ce4d65e63bf00013b3175","63690f60c96a0a9a64b48fbd","636920b2a169c7877b98c590","159","","j","","","","","","","","./tasks/HMM-beads/Images/NewTrialBC.png","highH","56","2","2","1","2","true","","","","","","","","","","","","","","","","",""
"image-keyboard-response","246","222284","0.0-4.0-6.0-1.0-1.56","589ce4d65e63bf00013b3175","63690f60c96a0a9a64b48fbd","636920b2a169c7877b98c590","null","","null","","","","","","","","./tasks/HMM-beads/Images/WhiteBeadChoice.png","","","","","","","","","","","","","","","","","","","","","","","",""
"image-keyboard-response","247","222801","0.0-4.0-6.0-1.0-2.56","589ce4d65e63bf00013b3175","63690f60c96a0a9a64b48fbd","636920b2a169c7877b98c590","null","","null","","","","","","","","./tasks/HMM-beads/Images/WhiteBeadChoiceCorrect.png","","","","","","","","","","","","","","","","","","","","","","","",""
"image-keyboard-response","248","223711","0.0-4.0-6.0-1.0-0.57","589ce4d65e63bf00013b3175","63690f60c96a0a9a64b48fbd","636920b2a169c7877b98c590","905","","f","","","","","","","","./tasks/HMM-beads/Images/NewTrialWC.png","highH","57","1","1","2","1","true","","","","","","","","","","","","","","","","",""
"image-keyboard-response","249","224028","0.0-4.0-6.0-1.0-1.57","589ce4d65e63bf00013b3175","63690f60c96a0a9a64b48fbd","636920b2a169c7877b98c590","null","","null","","","","","","","","./tasks/HMM-beads/Images/BlackBeadChoice.png","","","","","","","","","","","","","","","","","","","","","","","",""
"image-keyboard-response","250","224542","0.0-4.0-6.0-1.0-2.57","589ce4d65e63bf00013b3175","63690f60c96a0a9a64b48fbd","636920b2a169c7877b98c590","null","","null","","","","","","","","./tasks/HMM-beads/Images/BlackBeadChoiceCorrect.png","","","","","","","","","","","","","","","","","","","","","","","",""
"image-keyboard-response","251","224822","0.0-4.0-6.0-1.0-0.58","589ce4d65e63bf00013b3175","63690f60c96a0a9a64b48fbd","636920b2a169c7877b98c590","277","","j","","","","","","","","./tasks/HMM-beads/Images/NewTrialBC.png","highH","58","2","2","1","2","true","","","","","","","","","","","","","","","","",""
"image-keyboard-response","252","225130","0.0-4.0-6.0-1.0-1.58","589ce4d65e63bf00013b3175","63690f60c96a0a9a64b48fbd","636920b2a169c7877b98c590","null","","null","","","","","","","","./tasks/HMM-beads/Images/WhiteBeadChoice.png","","","","","","","","","","","","","","","","","","","","","","","",""
"image-keyboard-response","253","225640","0.0-4.0-6.0-1.0-2.58","589ce4d65e63bf00013b3175","63690f60c96a0a9a64b48fbd","636920b2a169c7877b98c590","null","","null","","","","","","","","./tasks/HMM-beads/Images/WhiteBeadChoiceCorrect.png","","","","","","","","","","","","","","","","","","","","","","","",""
"image-keyboard-response","254","226357","0.0-4.0-6.0-1.0-0.59","589ce4d65e63bf00013b3175","63690f60c96a0a9a64b48fbd","636920b2a169c7877b98c590","715","","f","","","","","","","","./tasks/HMM-beads/Images/NewTrialWC.png","highH","59","1","1","2","1","true","","","","","","","","","","","","","","","","",""
"image-keyboard-response","255","226666","0.0-4.0-6.0-1.0-1.59","589ce4d65e63bf00013b3175","63690f60c96a0a9a64b48fbd","636920b2a169c7877b98c590","null","","null","","","","","","","","./tasks/HMM-beads/Images/BlackBeadChoice.png","","","","","","","","","","","","","","","","","","","","","","","",""
"image-keyboard-response","256","227181","0.0-4.0-6.0-1.0-2.59","589ce4d65e63bf00013b3175","63690f60c96a0a9a64b48fbd","636920b2a169c7877b98c590","null","","null","","","","","","","","./tasks/HMM-beads/Images/BlackBeadChoiceCorrect.png","","","","","","","","","","","","","","","","","","","","","","","",""
"image-keyboard-response","257","227301","0.0-4.0-6.0-1.0-0.60","589ce4d65e63bf00013b3175","63690f60c96a0a9a64b48fbd","636920b2a169c7877b98c590","115","","j","","","","","","","","./tasks/HMM-beads/Images/NewTrialBC.png","highH","60","2","2","1","2","true","","","","","","","","","","","","","","","","",""
"image-keyboard-response","258","227614","0.0-4.0-6.0-1.0-1.60","589ce4d65e63bf00013b3175","63690f60c96a0a9a64b48fbd","636920b2a169c7877b98c590","null","","null","","","","","","","","./tasks/HMM-beads/Images/WhiteBeadChoice.png","","","","","","","","","","","","","","","","","","","","","","","",""
"image-keyboard-response","259","228128","0.0-4.0-6.0-1.0-2.60","589ce4d65e63bf00013b3175","63690f60c96a0a9a64b48fbd","636920b2a169c7877b98c590","null","","null","","","","","","","","./tasks/HMM-beads/Images/WhiteBeadChoiceCorrect.png","","","","","","","","","","","","","","","","","","","","","","","",""
"image-keyboard-response","260","228425","0.0-4.0-6.0-1.0-0.61","589ce4d65e63bf00013b3175","63690f60c96a0a9a64b48fbd","636920b2a169c7877b98c590","295","","f","","","","","","","","./tasks/HMM-beads/Images/NewTrialWC.png","highH","61","1","2","2","1","false","","","","","","","","","","","","","","","","",""
"image-keyboard-response","261","228733","0.0-4.0-6.0-1.0-1.61","589ce4d65e63bf00013b3175","63690f60c96a0a9a64b48fbd","636920b2a169c7877b98c590","null","","null","","","","","","","","./tasks/HMM-beads/Images/BlackBeadChoice.png","","","","","","","","","","","","","","","","","","","","","","","",""
"image-keyboard-response","262","229245","0.0-4.0-6.0-1.0-2.61","589ce4d65e63bf00013b3175","63690f60c96a0a9a64b48fbd","636920b2a169c7877b98c590","null","","null","","","","","","","","./tasks/HMM-beads/Images/BlackBeadChoiceWrong.png","","","","","","","","","","","","","","","","","","","","","","","",""
"image-keyboard-response","263","229517","0.0-4.0-6.0-1.0-0.62","589ce4d65e63bf00013b3175","63690f60c96a0a9a64b48fbd","636920b2a169c7877b98c590","270","","j","","","","","","","","./tasks/HMM-beads/Images/NewTrialWC.png","highH","62","2","2","2","2","true","","","","","","","","","","","","","","","","",""
"image-keyboard-response","264","229820","0.0-4.0-6.0-1.0-1.62","589ce4d65e63bf00013b3175","63690f60c96a0a9a64b48fbd","636920b2a169c7877b98c590","null","","null","","","","","","","","./tasks/HMM-beads/Images/WhiteBeadChoice.png","","","","","","","","","","","","","","","","","","","","","","","",""
"image-keyboard-response","265","230332","0.0-4.0-6.0-1.0-2.62","589ce4d65e63bf00013b3175","63690f60c96a0a9a64b48fbd","636920b2a169c7877b98c590","null","","null","","","","","","","","./tasks/HMM-beads/Images/WhiteBeadChoiceCorrect.png","","","","","","","","","","","","","","","","","","","","","","","",""
"image-keyboard-response","266","230670","0.0-4.0-6.0-1.0-0.63","589ce4d65e63bf00013b3175","63690f60c96a0a9a64b48fbd","636920b2a169c7877b98c590","337","","f","","","","","","","","./tasks/HMM-beads/Images/NewTrialWC.png","highH","63","1","1","2","1","true","","","","","","","","","","","","","","","","",""
"image-keyboard-response","267","230985","0.0-4.0-6.0-1.0-1.63","589ce4d65e63bf00013b3175","63690f60c96a0a9a64b48fbd","636920b2a169c7877b98c590","null","","null","","","","","","","","./tasks/HMM-beads/Images/BlackBeadChoice.png","","","","","","","","","","","","","","","","","","","","","","","",""
"image-keyboard-response","268","231498","0.0-4.0-6.0-1.0-2.63","589ce4d65e63bf00013b3175","63690f60c96a0a9a64b48fbd","636920b2a169c7877b98c590","null","","null","","","","","","","","./tasks/HMM-beads/Images/BlackBeadChoiceCorrect.png","","","","","","","","","","","","","","","","","","","","","","","",""
"image-keyboard-response","269","231722","0.0-4.0-6.0-1.0-0.64","589ce4d65e63bf00013b3175","63690f60c96a0a9a64b48fbd","636920b2a169c7877b98c590","221","","j","","","","","","","","./tasks/HMM-beads/Images/NewTrialBC.png","highH","64","2","2","1","2","true","","","","","","","","","","","","","","","","",""
"image-keyboard-response","270","232040","0.0-4.0-6.0-1.0-1.64","589ce4d65e63bf00013b3175","63690f60c96a0a9a64b48fbd","636920b2a169c7877b98c590","null","","null","","","","","","","","./tasks/HMM-beads/Images/WhiteBeadChoice.png","","","","","","","","","","","","","","","","","","","","","","","",""
"image-keyboard-response","271","232554","0.0-4.0-6.0-1.0-2.64","589ce4d65e63bf00013b3175","63690f60c96a0a9a64b48fbd","636920b2a169c7877b98c590","null","","null","","","","","","","","./tasks/HMM-beads/Images/WhiteBeadChoiceCorrect.png","","","","","","","","","","","","","","","","","","","","","","","",""
"image-keyboard-response","272","232798","0.0-4.0-6.0-1.0-0.65","589ce4d65e63bf00013b3175","63690f60c96a0a9a64b48fbd","636920b2a169c7877b98c590","241","","f","","","","","","","","./tasks/HMM-beads/Images/NewTrialWC.png","highH","65","1","1","2","1","true","","","","","","","","","","","","","","","","",""
"image-keyboard-response","273","233114","0.0-4.0-6.0-1.0-1.65","589ce4d65e63bf00013b3175","63690f60c96a0a9a64b48fbd","636920b2a169c7877b98c590","null","","null","","","","","","","","./tasks/HMM-beads/Images/BlackBeadChoice.png","","","","","","","","","","","","","","","","","","","","","","","",""
"image-keyboard-response","274","233627","0.0-4.0-6.0-1.0-2.65","589ce4d65e63bf00013b3175","63690f60c96a0a9a64b48fbd","636920b2a169c7877b98c590","null","","null","","","","","","","","./tasks/HMM-beads/Images/BlackBeadChoiceCorrect.png","","","","","","","","","","","","","","","","","","","","","","","",""
"image-keyboard-response","275","233905","0.0-4.0-6.0-1.0-0.66","589ce4d65e63bf00013b3175","63690f60c96a0a9a64b48fbd","636920b2a169c7877b98c590","276","","j","","","","","","","","./tasks/HMM-beads/Images/NewTrialBC.png","highH","66","2","2","1","2","true","","","","","","","","","","","","","","","","",""
"image-keyboard-response","276","234217","0.0-4.0-6.0-1.0-1.66","589ce4d65e63bf00013b3175","63690f60c96a0a9a64b48fbd","636920b2a169c7877b98c590","null","","null","","","","","","","","./tasks/HMM-beads/Images/WhiteBeadChoice.png","","","","","","","","","","","","","","","","","","","","","","","",""
"image-keyboard-response","277","234727","0.0-4.0-6.0-1.0-2.66","589ce4d65e63bf00013b3175","63690f60c96a0a9a64b48fbd","636920b2a169c7877b98c590","null","","null","","","","","","","","./tasks/HMM-beads/Images/WhiteBeadChoiceCorrect.png","","","","","","","","","","","","","","","","","","","","","","","",""
"image-keyboard-response","278","234975","0.0-4.0-6.0-1.0-0.67","589ce4d65e63bf00013b3175","63690f60c96a0a9a64b48fbd","636920b2a169c7877b98c590","244","","f","","","","","","","","./tasks/HMM-beads/Images/NewTrialWC.png","highH","67","1","1","2","1","true","","","","","","","","","","","","","","","","",""
"image-keyboard-response","279","235287","0.0-4.0-6.0-1.0-1.67","589ce4d65e63bf00013b3175","63690f60c96a0a9a64b48fbd","636920b2a169c7877b98c590","null","","null","","","","","","","","./tasks/HMM-beads/Images/BlackBeadChoice.png","","","","","","","","","","","","","","","","","","","","","","","",""
"image-keyboard-response","280","235801","0.0-4.0-6.0-1.0-2.67","589ce4d65e63bf00013b3175","63690f60c96a0a9a64b48fbd","636920b2a169c7877b98c590","null","","null","","","","","","","","./tasks/HMM-beads/Images/BlackBeadChoiceCorrect.png","","","","","","","","","","","","","","","","","","","","","","","",""
"image-keyboard-response","281","236100","0.0-4.0-6.0-1.0-0.68","589ce4d65e63bf00013b3175","63690f60c96a0a9a64b48fbd","636920b2a169c7877b98c590","295","","j","","","","","","","","./tasks/HMM-beads/Images/NewTrialBC.png","highH","68","2","2","1","2","true","","","","","","","","","","","","","","","","",""
"image-keyboard-response","282","236405","0.0-4.0-6.0-1.0-1.68","589ce4d65e63bf00013b3175","63690f60c96a0a9a64b48fbd","636920b2a169c7877b98c590","null","","null","","","","","","","","./tasks/HMM-beads/Images/WhiteBeadChoice.png","","","","","","","","","","","","","","","","","","","","","","","",""
"image-keyboard-response","283","236920","0.0-4.0-6.0-1.0-2.68","589ce4d65e63bf00013b3175","63690f60c96a0a9a64b48fbd","636920b2a169c7877b98c590","null","","null","","","","","","","","./tasks/HMM-beads/Images/WhiteBeadChoiceCorrect.png","","","","","","","","","","","","","","","","","","","","","","","",""
"image-keyboard-response","284","237202","0.0-4.0-6.0-1.0-0.69","589ce4d65e63bf00013b3175","63690f60c96a0a9a64b48fbd","636920b2a169c7877b98c590","279","","f","","","","","","","","./tasks/HMM-beads/Images/NewTrialWC.png","highH","69","1","2","2","1","false","","","","","","","","","","","","","","","","",""
"image-keyboard-response","285","237509","0.0-4.0-6.0-1.0-1.69","589ce4d65e63bf00013b3175","63690f60c96a0a9a64b48fbd","636920b2a169c7877b98c590","null","","null","","","","","","","","./tasks/HMM-beads/Images/BlackBeadChoice.png","","","","","","","","","","","","","","","","","","","","","","","",""
"image-keyboard-response","286","238021","0.0-4.0-6.0-1.0-2.69","589ce4d65e63bf00013b3175","63690f60c96a0a9a64b48fbd","636920b2a169c7877b98c590","null","","null","","","","","","","","./tasks/HMM-beads/Images/BlackBeadChoiceWrong.png","","","","","","","","","","","","","","","","","","","","","","","",""
"image-keyboard-response","287","238340","0.0-4.0-6.0-1.0-0.70","589ce4d65e63bf00013b3175","63690f60c96a0a9a64b48fbd","636920b2a169c7877b98c590","317","","f","","","","","","","","./tasks/HMM-beads/Images/NewTrialWC.png","highH","70","2","2","2","1","false","","","","","","","","","","","","","","","","",""
"image-keyboard-response","288","238644","0.0-4.0-6.0-1.0-1.70","589ce4d65e63bf00013b3175","63690f60c96a0a9a64b48fbd","636920b2a169c7877b98c590","null","","null","","","","","","","","./tasks/HMM-beads/Images/BlackBeadChoice.png","","","","","","","","","","","","","","","","","","","","","","","",""
"image-keyboard-response","289","239156","0.0-4.0-6.0-1.0-2.70","589ce4d65e63bf00013b3175","63690f60c96a0a9a64b48fbd","636920b2a169c7877b98c590","null","","null","","","","","","","","./tasks/HMM-beads/Images/BlackBeadChoiceWrong.png","","","","","","","","","","","","","","","","","","","","","","","",""
"image-keyboard-response","290","239347","0.0-4.0-6.0-1.0-0.71","589ce4d65e63bf00013b3175","63690f60c96a0a9a64b48fbd","636920b2a169c7877b98c590","189","","f","","","","","","","","./tasks/HMM-beads/Images/NewTrialWC.png","highH","71","1","2","2","1","false","","","","","","","","","","","","","","","","",""
"image-keyboard-response","291","239653","0.0-4.0-6.0-1.0-1.71","589ce4d65e63bf00013b3175","63690f60c96a0a9a64b48fbd","636920b2a169c7877b98c590","null","","null","","","","","","","","./tasks/HMM-beads/Images/BlackBeadChoice.png","","","","","","","","","","","","","","","","","","","","","","","",""
"image-keyboard-response","292","240165","0.0-4.0-6.0-1.0-2.71","589ce4d65e63bf00013b3175","63690f60c96a0a9a64b48fbd","636920b2a169c7877b98c590","null","","null","","","","","","","","./tasks/HMM-beads/Images/BlackBeadChoiceWrong.png","","","","","","","","","","","","","","","","","","","","","","","",""
"image-keyboard-response","293","240430","0.0-4.0-6.0-1.0-0.72","589ce4d65e63bf00013b3175","63690f60c96a0a9a64b48fbd","636920b2a169c7877b98c590","262","","f","","","","","","","","./tasks/HMM-beads/Images/NewTrialWC.png","highH","72","2","2","2","1","false","","","","","","","","","","","","","","","","",""
"image-keyboard-response","294","240739","0.0-4.0-6.0-1.0-1.72","589ce4d65e63bf00013b3175","63690f60c96a0a9a64b48fbd","636920b2a169c7877b98c590","null","","null","","","","","","","","./tasks/HMM-beads/Images/BlackBeadChoice.png","","","","","","","","","","","","","","","","","","","","","","","",""
"image-keyboard-response","295","241251","0.0-4.0-6.0-1.0-2.72","589ce4d65e63bf00013b3175","63690f60c96a0a9a64b48fbd","636920b2a169c7877b98c590","null","","null","","","","","","","","./tasks/HMM-beads/Images/BlackBeadChoiceWrong.png","","","","","","","","","","","","","","","","","","","","","","","",""
"image-keyboard-response","296","241491","0.0-4.0-6.0-1.0-0.73","589ce4d65e63bf00013b3175","63690f60c96a0a9a64b48fbd","636920b2a169c7877b98c590","237","","f","","","","","","","","./tasks/HMM-beads/Images/NewTrialWC.png","highH","73","1","1","2","1","true","","","","","","","","","","","","","","","","",""
"image-keyboard-response","297","241795","0.0-4.0-6.0-1.0-1.73","589ce4d65e63bf00013b3175","63690f60c96a0a9a64b48fbd","636920b2a169c7877b98c590","null","","null","","","","","","","","./tasks/HMM-beads/Images/BlackBeadChoice.png","","","","","","","","","","","","","","","","","","","","","","","",""
"image-keyboard-response","298","242308","0.0-4.0-6.0-1.0-2.73","589ce4d65e63bf00013b3175","63690f60c96a0a9a64b48fbd","636920b2a169c7877b98c590","null","","null","","","","","","","","./tasks/HMM-beads/Images/BlackBeadChoiceCorrect.png","","","","","","","","","","","","","","","","","","","","","","","",""
"image-keyboard-response","299","242608","0.0-4.0-6.0-1.0-0.74","589ce4d65e63bf00013b3175","63690f60c96a0a9a64b48fbd","636920b2a169c7877b98c590","297","","j","","","","","","","","./tasks/HMM-beads/Images/NewTrialBC.png","highH","74","2","2","1","2","true","","","","","","","","","","","","","","","","",""
"image-keyboard-response","300","242914","0.0-4.0-6.0-1.0-1.74","589ce4d65e63bf00013b3175","63690f60c96a0a9a64b48fbd","636920b2a169c7877b98c590","null","","null","","","","","","","","./tasks/HMM-beads/Images/WhiteBeadChoice.png","","","","","","","","","","","","","","","","","","","","","","","",""
"image-keyboard-response","301","243427","0.0-4.0-6.0-1.0-2.74","589ce4d65e63bf00013b3175","63690f60c96a0a9a64b48fbd","636920b2a169c7877b98c590","null","","null","","","","","","","","./tasks/HMM-beads/Images/WhiteBeadChoiceCorrect.png","","","","","","","","","","","","","","","","","","","","","","","",""
"image-keyboard-response","302","243691","0.0-4.0-6.0-1.0-0.75","589ce4d65e63bf00013b3175","63690f60c96a0a9a64b48fbd","636920b2a169c7877b98c590","263","","f","","","","","","","","./tasks/HMM-beads/Images/NewTrialWC.png","highH","75","1","1","2","1","true","","","","","","","","","","","","","","","","",""
"image-keyboard-response","303","244001","0.0-4.0-6.0-1.0-1.75","589ce4d65e63bf00013b3175","63690f60c96a0a9a64b48fbd","636920b2a169c7877b98c590","null","","null","","","","","","","","./tasks/HMM-beads/Images/BlackBeadChoice.png","","","","","","","","","","","","","","","","","","","","","","","",""
"image-keyboard-response","304","244514","0.0-4.0-6.0-1.0-2.75","589ce4d65e63bf00013b3175","63690f60c96a0a9a64b48fbd","636920b2a169c7877b98c590","null","","null","","","","","","","","./tasks/HMM-beads/Images/BlackBeadChoiceCorrect.png","","","","","","","","","","","","","","","","","","","","","","","",""
"image-keyboard-response","305","244889","0.0-4.0-6.0-1.0-0.76","589ce4d65e63bf00013b3175","63690f60c96a0a9a64b48fbd","636920b2a169c7877b98c590","372","","j","","","","","","","","./tasks/HMM-beads/Images/NewTrialBC.png","highH","76","2","2","1","2","true","","","","","","","","","","","","","","","","",""
"image-keyboard-response","306","245193","0.0-4.0-6.0-1.0-1.76","589ce4d65e63bf00013b3175","63690f60c96a0a9a64b48fbd","636920b2a169c7877b98c590","null","","null","","","","","","","","./tasks/HMM-beads/Images/WhiteBeadChoice.png","","","","","","","","","","","","","","","","","","","","","","","",""
"image-keyboard-response","307","245706","0.0-4.0-6.0-1.0-2.76","589ce4d65e63bf00013b3175","63690f60c96a0a9a64b48fbd","636920b2a169c7877b98c590","null","","null","","","","","","","","./tasks/HMM-beads/Images/WhiteBeadChoiceCorrect.png","","","","","","","","","","","","","","","","","","","","","","","",""
"image-keyboard-response","308","246615","0.0-4.0-6.0-1.0-0.77","589ce4d65e63bf00013b3175","63690f60c96a0a9a64b48fbd","636920b2a169c7877b98c590","907","","f","","","","","","","","./tasks/HMM-beads/Images/NewTrialWC.png","highH","77","1","1","2","1","true","","","","","","","","","","","","","","","","",""
"image-keyboard-response","309","246931","0.0-4.0-6.0-1.0-1.77","589ce4d65e63bf00013b3175","63690f60c96a0a9a64b48fbd","636920b2a169c7877b98c590","null","","null","","","","","","","","./tasks/HMM-beads/Images/BlackBeadChoice.png","","","","","","","","","","","","","","","","","","","","","","","",""
"image-keyboard-response","310","247441","0.0-4.0-6.0-1.0-2.77","589ce4d65e63bf00013b3175","63690f60c96a0a9a64b48fbd","636920b2a169c7877b98c590","null","","null","","","","","","","","./tasks/HMM-beads/Images/BlackBeadChoiceCorrect.png","","","","","","","","","","","","","","","","","","","","","","","",""
"image-keyboard-response","311","247704","0.0-4.0-6.0-1.0-0.78","589ce4d65e63bf00013b3175","63690f60c96a0a9a64b48fbd","636920b2a169c7877b98c590","261","","j","","","","","","","","./tasks/HMM-beads/Images/NewTrialBC.png","highH","78","2","2","1","2","true","","","","","","","","","","","","","","","","",""
"image-keyboard-response","312","248019","0.0-4.0-6.0-1.0-1.78","589ce4d65e63bf00013b3175","63690f60c96a0a9a64b48fbd","636920b2a169c7877b98c590","null","","null","","","","","","","","./tasks/HMM-beads/Images/WhiteBeadChoice.png","","","","","","","","","","","","","","","","","","","","","","","",""
"image-keyboard-response","313","248530","0.0-4.0-6.0-1.0-2.78","589ce4d65e63bf00013b3175","63690f60c96a0a9a64b48fbd","636920b2a169c7877b98c590","null","","null","","","","","","","","./tasks/HMM-beads/Images/WhiteBeadChoiceCorrect.png","","","","","","","","","","","","","","","","","","","","","","","",""
"image-keyboard-response","314","249056","0.0-4.0-6.0-1.0-0.79","589ce4d65e63bf00013b3175","63690f60c96a0a9a64b48fbd","636920b2a169c7877b98c590","522","","f","","","","","","","","./tasks/HMM-beads/Images/NewTrialWC.png","highH","79","1","1","2","1","true","","","","","","","","","","","","","","","","",""
"image-keyboard-response","315","249368","0.0-4.0-6.0-1.0-1.79","589ce4d65e63bf00013b3175","63690f60c96a0a9a64b48fbd","636920b2a169c7877b98c590","null","","null","","","","","","","","./tasks/HMM-beads/Images/BlackBeadChoice.png","","","","","","","","","","","","","","","","","","","","","","","",""
"image-keyboard-response","316","249881","0.0-4.0-6.0-1.0-2.79","589ce4d65e63bf00013b3175","63690f60c96a0a9a64b48fbd","636920b2a169c7877b98c590","null","","null","","","","","","","","./tasks/HMM-beads/Images/BlackBeadChoiceCorrect.png","","","","","","","","","","","","","","","","","","","","","","","",""
"image-keyboard-response","317","250154","0.0-4.0-6.0-1.0-0.80","589ce4d65e63bf00013b3175","63690f60c96a0a9a64b48fbd","636920b2a169c7877b98c590","272","","j","","","","","","","","./tasks/HMM-beads/Images/NewTrialBC.png","highH","80","2","1","1","2","false","","","","","","","","","","","","","","","","",""
"image-keyboard-response","318","250470","0.0-4.0-6.0-1.0-1.80","589ce4d65e63bf00013b3175","63690f60c96a0a9a64b48fbd","636920b2a169c7877b98c590","null","","null","","","","","","","","./tasks/HMM-beads/Images/WhiteBeadChoice.png","","","","","","","","","","","","","","","","","","","","","","","",""
"image-keyboard-response","319","250985","0.0-4.0-6.0-1.0-2.80","589ce4d65e63bf00013b3175","63690f60c96a0a9a64b48fbd","636920b2a169c7877b98c590","null","","null","","","","","","","","./tasks/HMM-beads/Images/WhiteBeadChoiceWrong.png","","","","","","","","","","","","","","","","","","","","","","","",""
"image-keyboard-response","320","251203","0.0-4.0-6.0-1.0-0.81","589ce4d65e63bf00013b3175","63690f60c96a0a9a64b48fbd","636920b2a169c7877b98c590","215","","j","","","","","","","","./tasks/HMM-beads/Images/NewTrialBC.png","highH","81","1","1","1","2","false","","","","","","","","","","","","","","","","",""
"image-keyboard-response","321","251512","0.0-4.0-6.0-1.0-1.81","589ce4d65e63bf00013b3175","63690f60c96a0a9a64b48fbd","636920b2a169c7877b98c590","null","","null","","","","","","","","./tasks/HMM-beads/Images/WhiteBeadChoice.png","","","","","","","","","","","","","","","","","","","","","","","",""
