"trial_type","trial_index","time_elapsed","internal_node_id","subject_id","study_id","session_id","rt","url","response","question_order","view_history","success","timeout","failed_images","failed_audio","failed_video","stimulus","block","trial_number","state","choice","rewarded","state1_action","state2_visited","state1_key","state2_key","state1_rt","state2_rt","block_num","seq_file","trial_seq_info","two_arm_score_block1","two_arm_score_block2","two_arm_score_total","jar","bead","previous_bead","correct","lowH_score","highH_score","total_bonus"
"pavlovia","0","4031","0.0-0.0","630f9d70f86ca1ee77a5b8dd","63690f60c96a0a9a64b48fbc","636919b525a0b7f0ad673031","","","","","","","","","","","","","","","","","","","","","","","","","","","","","","","","","","",""
"external-html","1","29066","0.0-1.0-0.0","630f9d70f86ca1ee77a5b8dd","63690f60c96a0a9a64b48fbc","636919b525a0b7f0ad673031","23330","new_consent.html","","","","","","","","","","","","","","","","","","","","","","","","","","","","","","","","",""
"survey-multi-choice","2","43663","0.0-1.0-1.0","630f9d70f86ca1ee77a5b8dd","63690f60c96a0a9a64b48fbc","636919b525a0b7f0ad673031","14591","","{""Q0"":""Male"",""Q1"":""Black or African American""}","[0,1]","","","","","","","","","","","","","","","","","","","","","","","","","","","","","","",""
"survey-text","3","49434","0.0-1.0-2.0","630f9d70f86ca1ee77a5b8dd","63690f60c96a0a9a64b48fbc","636919b525a0b7f0ad673031","5762","","{""Q0"":""29""}","","","","","","","","","","","","","","","","","","","","","","","","","","","","","","","",""
"instructions","4","109859","0.0-2.0","630f9d70f86ca1ee77a5b8dd","63690f60c96a0a9a64b48fbc","636919b525a0b7f0ad673031","60317","","","","[{""page_index"":0,""viewing_time"":55052},{""page_index"":1,""viewing_time"":5263}]","","","","","","","","","","","","","","","","","","","","","","","","","","","","","",""
"instructions","5","114000","0.0-3.0","630f9d70f86ca1ee77a5b8dd","63690f60c96a0a9a64b48fbc","636919b525a0b7f0ad673031","4140","","","","[{""page_index"":0,""viewing_time"":4139}]","","","","","","","","","","","","","","","","","","","","","","","","","","","","","",""
"preload","6","119030","0.0-4.0-0.0","630f9d70f86ca1ee77a5b8dd","63690f60c96a0a9a64b48fbc","636919b525a0b7f0ad673031","","","","","","true","false","[]","[]","[]","","","","","","","","","","","","","","","","","","","","","","","","",""
"instructions","7","477525","0.0-4.0-1.0","630f9d70f86ca1ee77a5b8dd","63690f60c96a0a9a64b48fbc","636919b525a0b7f0ad673031","358494","","","","[{""page_index"":0,""viewing_time"":29320},{""page_index"":1,""viewing_time"":22954},{""page_index"":2,""viewing_time"":37538},{""page_index"":3,""viewing_time"":218668},{""page_index"":4,""viewing_time"":50013}]","","","","","","","","","","","","","","","","","","","","","","","","","","","","","",""
"html-keyboard-response","8","484208","0.0-4.0-2.0-0.0","630f9d70f86ca1ee77a5b8dd","63690f60c96a0a9a64b48fbc","636919b525a0b7f0ad673031","6681","","f","","","","","","","","<div style=""background-image: url('./tasks/two-arm-new/img/green_planet.png')""><div id=""jspsych-space-daw-top-stim-left"" ></div><div id=""jspsych-space-daw-top-stim-middle"" ></div><div id=""jspsych-space-daw-top-stim-right"" ></div><div style=""clear:both""></div><div id=""jspsych-space-daw-bottom-stim-left"" style=""background-image: url('./tasks/two-arm-new/img/green_stim_1.png')""></div><div id=""jspsych-space-daw-bottom-stim-middle"" ></div><div id=""jspsych-space-daw-bottom-stim-right"" style=""background-image: url('./tasks/two-arm-new/img/green_stim_2_deact.png')""></div></div>","good_alien_practice","0","green","1","1","","","","","","","","","","","","","","","","","","",""
"html-keyboard-response","9","484726","0.0-4.0-2.0-1.0","630f9d70f86ca1ee77a5b8dd","63690f60c96a0a9a64b48fbc","636919b525a0b7f0ad673031","null","","null","","","","","","","","<div style=""background-image: url('./tasks/two-arm-new/img/green_planet.png')""><div id=""jspsych-space-daw-top-stim-left"" ></div><div id=""jspsych-space-daw-top-stim-middle"" ></div><div id=""jspsych-space-daw-top-stim-right"" ></div><div style=""clear:both""></div><div id=""jspsych-space-daw-bottom-stim-left"" class=""jspsych-space-daw-bottom-stim-border"" style=""background-image: url('./tasks/two-arm-new/img/green_stim_1.png')""></div><div id=""jspsych-space-daw-bottom-stim-middle"" ></div><div id=""jspsych-space-daw-bottom-stim-right"" style=""background-image: url('./tasks/two-arm-new/img/green_stim_2_deact.png')""></div></div>","","","","","","","","","","","","","","","","","","","","","","","",""
"html-keyboard-response","10","485752","0.0-4.0-2.0-2.0","630f9d70f86ca1ee77a5b8dd","63690f60c96a0a9a64b48fbc","636919b525a0b7f0ad673031","null","","null","","","","","","","","<div style=""background-image: url('./tasks/two-arm-new/img/green_planet.png')""><div id=""jspsych-space-daw-top-stim-left"" style=""background-image: url('./tasks/two-arm-new/img/treasure.png')""></div><div id=""jspsych-space-daw-top-stim-middle"" ></div><div id=""jspsych-space-daw-top-stim-right"" ></div><div style=""clear:both""></div><div id=""jspsych-space-daw-bottom-stim-left"" class=""jspsych-space-daw-bottom-stim-border"" style=""background-image: url('./tasks/two-arm-new/img/green_stim_1.png')""></div><div id=""jspsych-space-daw-bottom-stim-middle"" ></div><div id=""jspsych-space-daw-bottom-stim-right"" style=""background-image: url('./tasks/two-arm-new/img/green_stim_2_deact.png')""></div></div>","","","","","","","","","","","","","","","","","","","","","","","",""
"html-keyboard-response","11","488670","0.0-4.0-2.0-0.1","630f9d70f86ca1ee77a5b8dd","63690f60c96a0a9a64b48fbc","636919b525a0b7f0ad673031","2904","","f","","","","","","","","<div style=""background-image: url('./tasks/two-arm-new/img/green_planet.png')""><div id=""jspsych-space-daw-top-stim-left"" ></div><div id=""jspsych-space-daw-top-stim-middle"" ></div><div id=""jspsych-space-daw-top-stim-right"" ></div><div style=""clear:both""></div><div id=""jspsych-space-daw-bottom-stim-left"" style=""background-image: url('./tasks/two-arm-new/img/green_stim_1.png')""></div><div id=""jspsych-space-daw-bottom-stim-middle"" ></div><div id=""jspsych-space-daw-bottom-stim-right"" style=""background-image: url('./tasks/two-arm-new/img/green_stim_2_deact.png')""></div></div>","good_alien_practice","1","green","1","1","","","","","","","","","","","","","","","","","","",""
"html-keyboard-response","12","489177","0.0-4.0-2.0-1.1","630f9d70f86ca1ee77a5b8dd","63690f60c96a0a9a64b48fbc","636919b525a0b7f0ad673031","null","","null","","","","","","","","<div style=""background-image: url('./tasks/two-arm-new/img/green_planet.png')""><div id=""jspsych-space-daw-top-stim-left"" ></div><div id=""jspsych-space-daw-top-stim-middle"" ></div><div id=""jspsych-space-daw-top-stim-right"" ></div><div style=""clear:both""></div><div id=""jspsych-space-daw-bottom-stim-left"" class=""jspsych-space-daw-bottom-stim-border"" style=""background-image: url('./tasks/two-arm-new/img/green_stim_1.png')""></div><div id=""jspsych-space-daw-bottom-stim-middle"" ></div><div id=""jspsych-space-daw-bottom-stim-right"" style=""background-image: url('./tasks/two-arm-new/img/green_stim_2_deact.png')""></div></div>","","","","","","","","","","","","","","","","","","","","","","","",""
"html-keyboard-response","13","490188","0.0-4.0-2.0-2.1","630f9d70f86ca1ee77a5b8dd","63690f60c96a0a9a64b48fbc","636919b525a0b7f0ad673031","null","","null","","","","","","","","<div style=""background-image: url('./tasks/two-arm-new/img/green_planet.png')""><div id=""jspsych-space-daw-top-stim-left"" style=""background-image: url('./tasks/two-arm-new/img/treasure.png')""></div><div id=""jspsych-space-daw-top-stim-middle"" ></div><div id=""jspsych-space-daw-top-stim-right"" ></div><div style=""clear:both""></div><div id=""jspsych-space-daw-bottom-stim-left"" class=""jspsych-space-daw-bottom-stim-border"" style=""background-image: url('./tasks/two-arm-new/img/green_stim_1.png')""></div><div id=""jspsych-space-daw-bottom-stim-middle"" ></div><div id=""jspsych-space-daw-bottom-stim-right"" style=""background-image: url('./tasks/two-arm-new/img/green_stim_2_deact.png')""></div></div>","","","","","","","","","","","","","","","","","","","","","","","",""
"html-keyboard-response","14","496390","0.0-4.0-2.0-0.2","630f9d70f86ca1ee77a5b8dd","63690f60c96a0a9a64b48fbc","636919b525a0b7f0ad673031","6196","","f","","","","","","","","<div style=""background-image: url('./tasks/two-arm-new/img/green_planet.png')""><div id=""jspsych-space-daw-top-stim-left"" ></div><div id=""jspsych-space-daw-top-stim-middle"" ></div><div id=""jspsych-space-daw-top-stim-right"" ></div><div style=""clear:both""></div><div id=""jspsych-space-daw-bottom-stim-left"" style=""background-image: url('./tasks/two-arm-new/img/green_stim_1.png')""></div><div id=""jspsych-space-daw-bottom-stim-middle"" ></div><div id=""jspsych-space-daw-bottom-stim-right"" style=""background-image: url('./tasks/two-arm-new/img/green_stim_2_deact.png')""></div></div>","good_alien_practice","2","green","1","1","","","","","","","","","","","","","","","","","","",""
"html-keyboard-response","15","496904","0.0-4.0-2.0-1.2","630f9d70f86ca1ee77a5b8dd","63690f60c96a0a9a64b48fbc","636919b525a0b7f0ad673031","null","","null","","","","","","","","<div style=""background-image: url('./tasks/two-arm-new/img/green_planet.png')""><div id=""jspsych-space-daw-top-stim-left"" ></div><div id=""jspsych-space-daw-top-stim-middle"" ></div><div id=""jspsych-space-daw-top-stim-right"" ></div><div style=""clear:both""></div><div id=""jspsych-space-daw-bottom-stim-left"" class=""jspsych-space-daw-bottom-stim-border"" style=""background-image: url('./tasks/two-arm-new/img/green_stim_1.png')""></div><div id=""jspsych-space-daw-bottom-stim-middle"" ></div><div id=""jspsych-space-daw-bottom-stim-right"" style=""background-image: url('./tasks/two-arm-new/img/green_stim_2_deact.png')""></div></div>","","","","","","","","","","","","","","","","","","","","","","","",""
"html-keyboard-response","16","497923","0.0-4.0-2.0-2.2","630f9d70f86ca1ee77a5b8dd","63690f60c96a0a9a64b48fbc","636919b525a0b7f0ad673031","null","","null","","","","","","","","<div style=""background-image: url('./tasks/two-arm-new/img/green_planet.png')""><div id=""jspsych-space-daw-top-stim-left"" style=""background-image: url('./tasks/two-arm-new/img/treasure.png')""></div><div id=""jspsych-space-daw-top-stim-middle"" ></div><div id=""jspsych-space-daw-top-stim-right"" ></div><div style=""clear:both""></div><div id=""jspsych-space-daw-bottom-stim-left"" class=""jspsych-space-daw-bottom-stim-border"" style=""background-image: url('./tasks/two-arm-new/img/green_stim_1.png')""></div><div id=""jspsych-space-daw-bottom-stim-middle"" ></div><div id=""jspsych-space-daw-bottom-stim-right"" style=""background-image: url('./tasks/two-arm-new/img/green_stim_2_deact.png')""></div></div>","","","","","","","","","","","","","","","","","","","","","","","",""
"html-keyboard-response","17","500730","0.0-4.0-2.0-0.3","630f9d70f86ca1ee77a5b8dd","63690f60c96a0a9a64b48fbc","636919b525a0b7f0ad673031","2799","","f","","","","","","","","<div style=""background-image: url('./tasks/two-arm-new/img/green_planet.png')""><div id=""jspsych-space-daw-top-stim-left"" ></div><div id=""jspsych-space-daw-top-stim-middle"" ></div><div id=""jspsych-space-daw-top-stim-right"" ></div><div style=""clear:both""></div><div id=""jspsych-space-daw-bottom-stim-left"" style=""background-image: url('./tasks/two-arm-new/img/green_stim_1.png')""></div><div id=""jspsych-space-daw-bottom-stim-middle"" ></div><div id=""jspsych-space-daw-bottom-stim-right"" style=""background-image: url('./tasks/two-arm-new/img/green_stim_2_deact.png')""></div></div>","good_alien_practice","3","green","1","0","","","","","","","","","","","","","","","","","","",""
"html-keyboard-response","18","501241","0.0-4.0-2.0-1.3","630f9d70f86ca1ee77a5b8dd","63690f60c96a0a9a64b48fbc","636919b525a0b7f0ad673031","null","","null","","","","","","","","<div style=""background-image: url('./tasks/two-arm-new/img/green_planet.png')""><div id=""jspsych-space-daw-top-stim-left"" ></div><div id=""jspsych-space-daw-top-stim-middle"" ></div><div id=""jspsych-space-daw-top-stim-right"" ></div><div style=""clear:both""></div><div id=""jspsych-space-daw-bottom-stim-left"" class=""jspsych-space-daw-bottom-stim-border"" style=""background-image: url('./tasks/two-arm-new/img/green_stim_1.png')""></div><div id=""jspsych-space-daw-bottom-stim-middle"" ></div><div id=""jspsych-space-daw-bottom-stim-right"" style=""background-image: url('./tasks/two-arm-new/img/green_stim_2_deact.png')""></div></div>","","","","","","","","","","","","","","","","","","","","","","","",""
"html-keyboard-response","19","502251","0.0-4.0-2.0-2.3","630f9d70f86ca1ee77a5b8dd","63690f60c96a0a9a64b48fbc","636919b525a0b7f0ad673031","null","","null","","","","","","","","<div style=""background-image: url('./tasks/two-arm-new/img/green_planet.png')""><div id=""jspsych-space-daw-top-stim-left"" style=""background-image: url('./tasks/two-arm-new/img/noreward.png')""></div><div id=""jspsych-space-daw-top-stim-middle"" ></div><div id=""jspsych-space-daw-top-stim-right"" ></div><div style=""clear:both""></div><div id=""jspsych-space-daw-bottom-stim-left"" class=""jspsych-space-daw-bottom-stim-border"" style=""background-image: url('./tasks/two-arm-new/img/green_stim_1_sad.png')""></div><div id=""jspsych-space-daw-bottom-stim-middle"" ></div><div id=""jspsych-space-daw-bottom-stim-right"" style=""background-image: url('./tasks/two-arm-new/img/green_stim_2_deact.png')""></div></div>","","","","","","","","","","","","","","","","","","","","","","","",""
"html-keyboard-response","20","504843","0.0-4.0-2.0-0.4","630f9d70f86ca1ee77a5b8dd","63690f60c96a0a9a64b48fbc","636919b525a0b7f0ad673031","2574","","j","","","","","","","","<div style=""background-image: url('./tasks/two-arm-new/img/green_planet.png')""><div id=""jspsych-space-daw-top-stim-left"" ></div><div id=""jspsych-space-daw-top-stim-middle"" ></div><div id=""jspsych-space-daw-top-stim-right"" ></div><div style=""clear:both""></div><div id=""jspsych-space-daw-bottom-stim-left"" style=""background-image: url('./tasks/two-arm-new/img/green_stim_2_deact.png')""></div><div id=""jspsych-space-daw-bottom-stim-middle"" ></div><div id=""jspsych-space-daw-bottom-stim-right"" style=""background-image: url('./tasks/two-arm-new/img/green_stim_1.png')""></div></div>","good_alien_practice","4","green","1","1","","","","","","","","","","","","","","","","","","",""
"html-keyboard-response","21","505345","0.0-4.0-2.0-1.4","630f9d70f86ca1ee77a5b8dd","63690f60c96a0a9a64b48fbc","636919b525a0b7f0ad673031","null","","null","","","","","","","","<div style=""background-image: url('./tasks/two-arm-new/img/green_planet.png')""><div id=""jspsych-space-daw-top-stim-left"" ></div><div id=""jspsych-space-daw-top-stim-middle"" ></div><div id=""jspsych-space-daw-top-stim-right"" ></div><div style=""clear:both""></div><div id=""jspsych-space-daw-bottom-stim-left"" style=""background-image: url('./tasks/two-arm-new/img/green_stim_2_deact.png')""></div><div id=""jspsych-space-daw-bottom-stim-middle"" ></div><div id=""jspsych-space-daw-bottom-stim-right"" class=""jspsych-space-daw-bottom-stim-border"" style=""background-image: url('./tasks/two-arm-new/img/green_stim_1.png')""></div></div>","","","","","","","","","","","","","","","","","","","","","","","",""
"html-keyboard-response","22","506361","0.0-4.0-2.0-2.4","630f9d70f86ca1ee77a5b8dd","63690f60c96a0a9a64b48fbc","636919b525a0b7f0ad673031","null","","null","","","","","","","","<div style=""background-image: url('./tasks/two-arm-new/img/green_planet.png')""><div id=""jspsych-space-daw-top-stim-left"" ></div><div id=""jspsych-space-daw-top-stim-middle"" ></div><div id=""jspsych-space-daw-top-stim-right"" style=""background-image: url('./tasks/two-arm-new/img/treasure.png')""></div><div style=""clear:both""></div><div id=""jspsych-space-daw-bottom-stim-left"" style=""background-image: url('./tasks/two-arm-new/img/green_stim_2_deact.png')""></div><div id=""jspsych-space-daw-bottom-stim-middle"" ></div><div id=""jspsych-space-daw-bottom-stim-right"" class=""jspsych-space-daw-bottom-stim-border"" style=""background-image: url('./tasks/two-arm-new/img/green_stim_1.png')""></div></div>","","","","","","","","","","","","","","","","","","","","","","","",""
"instructions","23","526136","0.0-4.0-3.0","630f9d70f86ca1ee77a5b8dd","63690f60c96a0a9a64b48fbc","636919b525a0b7f0ad673031","19774","","","","[{""page_index"":0,""viewing_time"":19774}]","","","","","","","","","","","","","","","","","","","","","","","","","","","","","",""
"html-keyboard-response","24","528832","0.0-4.0-4.0-0.0","630f9d70f86ca1ee77a5b8dd","63690f60c96a0a9a64b48fbc","636919b525a0b7f0ad673031","2693","","j","","","","","","","","<div style=""background-image: url('./tasks/two-arm-new/img/yellow_planet.png')""><div id=""jspsych-space-daw-top-stim-left"" ></div><div id=""jspsych-space-daw-top-stim-middle"" ></div><div id=""jspsych-space-daw-top-stim-right"" ></div><div style=""clear:both""></div><div id=""jspsych-space-daw-bottom-stim-left"" style=""background-image: url('./tasks/two-arm-new/img/yellow_stim_2_deact.png')""></div><div id=""jspsych-space-daw-bottom-stim-middle"" ></div><div id=""jspsych-space-daw-bottom-stim-right"" style=""background-image: url('./tasks/two-arm-new/img/yellow_stim_1.png')""></div></div>","bad_alien_practice","0","yellow","1","0","","","","","","","","","","","","","","","","","","",""
"html-keyboard-response","25","529335","0.0-4.0-4.0-1.0","630f9d70f86ca1ee77a5b8dd","63690f60c96a0a9a64b48fbc","636919b525a0b7f0ad673031","null","","null","","","","","","","","<div style=""background-image: url('./tasks/two-arm-new/img/yellow_planet.png')""><div id=""jspsych-space-daw-top-stim-left"" ></div><div id=""jspsych-space-daw-top-stim-middle"" ></div><div id=""jspsych-space-daw-top-stim-right"" ></div><div style=""clear:both""></div><div id=""jspsych-space-daw-bottom-stim-left"" style=""background-image: url('./tasks/two-arm-new/img/yellow_stim_2_deact.png')""></div><div id=""jspsych-space-daw-bottom-stim-middle"" ></div><div id=""jspsych-space-daw-bottom-stim-right"" class=""jspsych-space-daw-bottom-stim-border"" style=""background-image: url('./tasks/two-arm-new/img/yellow_stim_1.png')""></div></div>","","","","","","","","","","","","","","","","","","","","","","","",""
"html-keyboard-response","26","530354","0.0-4.0-4.0-2.0","630f9d70f86ca1ee77a5b8dd","63690f60c96a0a9a64b48fbc","636919b525a0b7f0ad673031","null","","null","","","","","","","","<div style=""background-image: url('./tasks/two-arm-new/img/yellow_planet.png')""><div id=""jspsych-space-daw-top-stim-left"" ></div><div id=""jspsych-space-daw-top-stim-middle"" ></div><div id=""jspsych-space-daw-top-stim-right"" style=""background-image: url('./tasks/two-arm-new/img/noreward.png')""></div><div style=""clear:both""></div><div id=""jspsych-space-daw-bottom-stim-left"" style=""background-image: url('./tasks/two-arm-new/img/yellow_stim_2_deact.png')""></div><div id=""jspsych-space-daw-bottom-stim-middle"" ></div><div id=""jspsych-space-daw-bottom-stim-right"" class=""jspsych-space-daw-bottom-stim-border"" style=""background-image: url('./tasks/two-arm-new/img/yellow_stim_1_sad.png')""></div></div>","","","","","","","","","","","","","","","","","","","","","","","",""
"html-keyboard-response","27","533024","0.0-4.0-4.0-0.1","630f9d70f86ca1ee77a5b8dd","63690f60c96a0a9a64b48fbc","636919b525a0b7f0ad673031","2666","","f","","","","","","","","<div style=""background-image: url('./tasks/two-arm-new/img/yellow_planet.png')""><div id=""jspsych-space-daw-top-stim-left"" ></div><div id=""jspsych-space-daw-top-stim-middle"" ></div><div id=""jspsych-space-daw-top-stim-right"" ></div><div style=""clear:both""></div><div id=""jspsych-space-daw-bottom-stim-left"" style=""background-image: url('./tasks/two-arm-new/img/yellow_stim_1.png')""></div><div id=""jspsych-space-daw-bottom-stim-middle"" ></div><div id=""jspsych-space-daw-bottom-stim-right"" style=""background-image: url('./tasks/two-arm-new/img/yellow_stim_2_deact.png')""></div></div>","bad_alien_practice","1","yellow","1","1","","","","","","","","","","","","","","","","","","",""
"html-keyboard-response","28","533540","0.0-4.0-4.0-1.1","630f9d70f86ca1ee77a5b8dd","63690f60c96a0a9a64b48fbc","636919b525a0b7f0ad673031","null","","null","","","","","","","","<div style=""background-image: url('./tasks/two-arm-new/img/yellow_planet.png')""><div id=""jspsych-space-daw-top-stim-left"" ></div><div id=""jspsych-space-daw-top-stim-middle"" ></div><div id=""jspsych-space-daw-top-stim-right"" ></div><div style=""clear:both""></div><div id=""jspsych-space-daw-bottom-stim-left"" class=""jspsych-space-daw-bottom-stim-border"" style=""background-image: url('./tasks/two-arm-new/img/yellow_stim_1.png')""></div><div id=""jspsych-space-daw-bottom-stim-middle"" ></div><div id=""jspsych-space-daw-bottom-stim-right"" style=""background-image: url('./tasks/two-arm-new/img/yellow_stim_2_deact.png')""></div></div>","","","","","","","","","","","","","","","","","","","","","","","",""
"html-keyboard-response","29","534557","0.0-4.0-4.0-2.1","630f9d70f86ca1ee77a5b8dd","63690f60c96a0a9a64b48fbc","636919b525a0b7f0ad673031","null","","null","","","","","","","","<div style=""background-image: url('./tasks/two-arm-new/img/yellow_planet.png')""><div id=""jspsych-space-daw-top-stim-left"" style=""background-image: url('./tasks/two-arm-new/img/treasure.png')""></div><div id=""jspsych-space-daw-top-stim-middle"" ></div><div id=""jspsych-space-daw-top-stim-right"" ></div><div style=""clear:both""></div><div id=""jspsych-space-daw-bottom-stim-left"" class=""jspsych-space-daw-bottom-stim-border"" style=""background-image: url('./tasks/two-arm-new/img/yellow_stim_1.png')""></div><div id=""jspsych-space-daw-bottom-stim-middle"" ></div><div id=""jspsych-space-daw-bottom-stim-right"" style=""background-image: url('./tasks/two-arm-new/img/yellow_stim_2_deact.png')""></div></div>","","","","","","","","","","","","","","","","","","","","","","","",""
"html-keyboard-response","30","537486","0.0-4.0-4.0-0.2","630f9d70f86ca1ee77a5b8dd","63690f60c96a0a9a64b48fbc","636919b525a0b7f0ad673031","2921","","j","","","","","","","","<div style=""background-image: url('./tasks/two-arm-new/img/yellow_planet.png')""><div id=""jspsych-space-daw-top-stim-left"" ></div><div id=""jspsych-space-daw-top-stim-middle"" ></div><div id=""jspsych-space-daw-top-stim-right"" ></div><div style=""clear:both""></div><div id=""jspsych-space-daw-bottom-stim-left"" style=""background-image: url('./tasks/two-arm-new/img/yellow_stim_2_deact.png')""></div><div id=""jspsych-space-daw-bottom-stim-middle"" ></div><div id=""jspsych-space-daw-bottom-stim-right"" style=""background-image: url('./tasks/two-arm-new/img/yellow_stim_1.png')""></div></div>","bad_alien_practice","2","yellow","1","0","","","","","","","","","","","","","","","","","","",""
"html-keyboard-response","31","537996","0.0-4.0-4.0-1.2","630f9d70f86ca1ee77a5b8dd","63690f60c96a0a9a64b48fbc","636919b525a0b7f0ad673031","null","","null","","","","","","","","<div style=""background-image: url('./tasks/two-arm-new/img/yellow_planet.png')""><div id=""jspsych-space-daw-top-stim-left"" ></div><div id=""jspsych-space-daw-top-stim-middle"" ></div><div id=""jspsych-space-daw-top-stim-right"" ></div><div style=""clear:both""></div><div id=""jspsych-space-daw-bottom-stim-left"" style=""background-image: url('./tasks/two-arm-new/img/yellow_stim_2_deact.png')""></div><div id=""jspsych-space-daw-bottom-stim-middle"" ></div><div id=""jspsych-space-daw-bottom-stim-right"" class=""jspsych-space-daw-bottom-stim-border"" style=""background-image: url('./tasks/two-arm-new/img/yellow_stim_1.png')""></div></div>","","","","","","","","","","","","","","","","","","","","","","","",""
"html-keyboard-response","32","539012","0.0-4.0-4.0-2.2","630f9d70f86ca1ee77a5b8dd","63690f60c96a0a9a64b48fbc","636919b525a0b7f0ad673031","null","","null","","","","","","","","<div style=""background-image: url('./tasks/two-arm-new/img/yellow_planet.png')""><div id=""jspsych-space-daw-top-stim-left"" ></div><div id=""jspsych-space-daw-top-stim-middle"" ></div><div id=""jspsych-space-daw-top-stim-right"" style=""background-image: url('./tasks/two-arm-new/img/noreward.png')""></div><div style=""clear:both""></div><div id=""jspsych-space-daw-bottom-stim-left"" style=""background-image: url('./tasks/two-arm-new/img/yellow_stim_2_deact.png')""></div><div id=""jspsych-space-daw-bottom-stim-middle"" ></div><div id=""jspsych-space-daw-bottom-stim-right"" class=""jspsych-space-daw-bottom-stim-border"" style=""background-image: url('./tasks/two-arm-new/img/yellow_stim_1_sad.png')""></div></div>","","","","","","","","","","","","","","","","","","","","","","","",""
"html-keyboard-response","33","540167","0.0-4.0-4.0-0.3","630f9d70f86ca1ee77a5b8dd","63690f60c96a0a9a64b48fbc","636919b525a0b7f0ad673031","1151","","j","","","","","","","","<div style=""background-image: url('./tasks/two-arm-new/img/yellow_planet.png')""><div id=""jspsych-space-daw-top-stim-left"" ></div><div id=""jspsych-space-daw-top-stim-middle"" ></div><div id=""jspsych-space-daw-top-stim-right"" ></div><div style=""clear:both""></div><div id=""jspsych-space-daw-bottom-stim-left"" style=""background-image: url('./tasks/two-arm-new/img/yellow_stim_2_deact.png')""></div><div id=""jspsych-space-daw-bottom-stim-middle"" ></div><div id=""jspsych-space-daw-bottom-stim-right"" style=""background-image: url('./tasks/two-arm-new/img/yellow_stim_1.png')""></div></div>","bad_alien_practice","3","yellow","1","0","","","","","","","","","","","","","","","","","","",""
"html-keyboard-response","34","540684","0.0-4.0-4.0-1.3","630f9d70f86ca1ee77a5b8dd","63690f60c96a0a9a64b48fbc","636919b525a0b7f0ad673031","null","","null","","","","","","","","<div style=""background-image: url('./tasks/two-arm-new/img/yellow_planet.png')""><div id=""jspsych-space-daw-top-stim-left"" ></div><div id=""jspsych-space-daw-top-stim-middle"" ></div><div id=""jspsych-space-daw-top-stim-right"" ></div><div style=""clear:both""></div><div id=""jspsych-space-daw-bottom-stim-left"" style=""background-image: url('./tasks/two-arm-new/img/yellow_stim_2_deact.png')""></div><div id=""jspsych-space-daw-bottom-stim-middle"" ></div><div id=""jspsych-space-daw-bottom-stim-right"" class=""jspsych-space-daw-bottom-stim-border"" style=""background-image: url('./tasks/two-arm-new/img/yellow_stim_1.png')""></div></div>","","","","","","","","","","","","","","","","","","","","","","","",""
"html-keyboard-response","35","541696","0.0-4.0-4.0-2.3","630f9d70f86ca1ee77a5b8dd","63690f60c96a0a9a64b48fbc","636919b525a0b7f0ad673031","null","","null","","","","","","","","<div style=""background-image: url('./tasks/two-arm-new/img/yellow_planet.png')""><div id=""jspsych-space-daw-top-stim-left"" ></div><div id=""jspsych-space-daw-top-stim-middle"" ></div><div id=""jspsych-space-daw-top-stim-right"" style=""background-image: url('./tasks/two-arm-new/img/noreward.png')""></div><div style=""clear:both""></div><div id=""jspsych-space-daw-bottom-stim-left"" style=""background-image: url('./tasks/two-arm-new/img/yellow_stim_2_deact.png')""></div><div id=""jspsych-space-daw-bottom-stim-middle"" ></div><div id=""jspsych-space-daw-bottom-stim-right"" class=""jspsych-space-daw-bottom-stim-border"" style=""background-image: url('./tasks/two-arm-new/img/yellow_stim_1_sad.png')""></div></div>","","","","","","","","","","","","","","","","","","","","","","","",""
"html-keyboard-response","36","543465","0.0-4.0-4.0-0.4","630f9d70f86ca1ee77a5b8dd","63690f60c96a0a9a64b48fbc","636919b525a0b7f0ad673031","1755","","f","","","","","","","","<div style=""background-image: url('./tasks/two-arm-new/img/yellow_planet.png')""><div id=""jspsych-space-daw-top-stim-left"" ></div><div id=""jspsych-space-daw-top-stim-middle"" ></div><div id=""jspsych-space-daw-top-stim-right"" ></div><div style=""clear:both""></div><div id=""jspsych-space-daw-bottom-stim-left"" style=""background-image: url('./tasks/two-arm-new/img/yellow_stim_1.png')""></div><div id=""jspsych-space-daw-bottom-stim-middle"" ></div><div id=""jspsych-space-daw-bottom-stim-right"" style=""background-image: url('./tasks/two-arm-new/img/yellow_stim_2_deact.png')""></div></div>","bad_alien_practice","4","yellow","1","0","","","","","","","","","","","","","","","","","","",""
"html-keyboard-response","37","543980","0.0-4.0-4.0-1.4","630f9d70f86ca1ee77a5b8dd","63690f60c96a0a9a64b48fbc","636919b525a0b7f0ad673031","null","","null","","","","","","","","<div style=""background-image: url('./tasks/two-arm-new/img/yellow_planet.png')""><div id=""jspsych-space-daw-top-stim-left"" ></div><div id=""jspsych-space-daw-top-stim-middle"" ></div><div id=""jspsych-space-daw-top-stim-right"" ></div><div style=""clear:both""></div><div id=""jspsych-space-daw-bottom-stim-left"" class=""jspsych-space-daw-bottom-stim-border"" style=""background-image: url('./tasks/two-arm-new/img/yellow_stim_1.png')""></div><div id=""jspsych-space-daw-bottom-stim-middle"" ></div><div id=""jspsych-space-daw-bottom-stim-right"" style=""background-image: url('./tasks/two-arm-new/img/yellow_stim_2_deact.png')""></div></div>","","","","","","","","","","","","","","","","","","","","","","","",""
"html-keyboard-response","38","544992","0.0-4.0-4.0-2.4","630f9d70f86ca1ee77a5b8dd","63690f60c96a0a9a64b48fbc","636919b525a0b7f0ad673031","null","","null","","","","","","","","<div style=""background-image: url('./tasks/two-arm-new/img/yellow_planet.png')""><div id=""jspsych-space-daw-top-stim-left"" style=""background-image: url('./tasks/two-arm-new/img/noreward.png')""></div><div id=""jspsych-space-daw-top-stim-middle"" ></div><div id=""jspsych-space-daw-top-stim-right"" ></div><div style=""clear:both""></div><div id=""jspsych-space-daw-bottom-stim-left"" class=""jspsych-space-daw-bottom-stim-border"" style=""background-image: url('./tasks/two-arm-new/img/yellow_stim_1_sad.png')""></div><div id=""jspsych-space-daw-bottom-stim-middle"" ></div><div id=""jspsych-space-daw-bottom-stim-right"" style=""background-image: url('./tasks/two-arm-new/img/yellow_stim_2_deact.png')""></div></div>","","","","","","","","","","","","","","","","","","","","","","","",""
"instructions","39","631379","0.0-4.0-5.0","630f9d70f86ca1ee77a5b8dd","63690f60c96a0a9a64b48fbc","636919b525a0b7f0ad673031","86388","","","","[{""page_index"":0,""viewing_time"":86387}]","","","","","","","","","","","","","","","","","","","","","","","","","","","","","",""
"html-keyboard-response","40","637187","0.0-4.0-6.0-0.0","630f9d70f86ca1ee77a5b8dd","63690f60c96a0a9a64b48fbc","636919b525a0b7f0ad673031","5806","","j","","","","","","","","<div style=""background-image: url('./tasks/two-arm-new/img/green_planet.png')""><div id=""jspsych-space-daw-top-stim-left"" ></div><div id=""jspsych-space-daw-top-stim-middle"" ></div><div id=""jspsych-space-daw-top-stim-right"" ></div><div style=""clear:both""></div><div id=""jspsych-space-daw-bottom-stim-left"" style=""background-image: url('./tasks/two-arm-new/img/green_stim_1.png')""></div><div id=""jspsych-space-daw-bottom-stim-middle"" ></div><div id=""jspsych-space-daw-bottom-stim-right"" style=""background-image: url('./tasks/two-arm-new/img/green_stim_2.png')""></div></div>","aliens_practice","0","green","2","1","","","","","","","","","","","","","","","","","","",""
"html-keyboard-response","41","637691","0.0-4.0-6.0-1.0","630f9d70f86ca1ee77a5b8dd","63690f60c96a0a9a64b48fbc","636919b525a0b7f0ad673031","null","","null","","","","","","","","<div style=""background-image: url('./tasks/two-arm-new/img/green_planet.png')""><div id=""jspsych-space-daw-top-stim-left"" ></div><div id=""jspsych-space-daw-top-stim-middle"" ></div><div id=""jspsych-space-daw-top-stim-right"" ></div><div style=""clear:both""></div><div id=""jspsych-space-daw-bottom-stim-left"" style=""background-image: url('./tasks/two-arm-new/img/green_stim_1.png')""></div><div id=""jspsych-space-daw-bottom-stim-middle"" ></div><div id=""jspsych-space-daw-bottom-stim-right"" class=""jspsych-space-daw-bottom-stim-border"" style=""background-image: url('./tasks/two-arm-new/img/green_stim_2.png')""></div></div>","","","","","","","","","","","","","","","","","","","","","","","",""
"html-keyboard-response","42","638695","0.0-4.0-6.0-2.0","630f9d70f86ca1ee77a5b8dd","63690f60c96a0a9a64b48fbc","636919b525a0b7f0ad673031","null","","null","","","","","","","","<div style=""background-image: url('./tasks/two-arm-new/img/green_planet.png')""><div id=""jspsych-space-daw-top-stim-left"" ></div><div id=""jspsych-space-daw-top-stim-middle"" ></div><div id=""jspsych-space-daw-top-stim-right"" style=""background-image: url('./tasks/two-arm-new/img/treasure.png')""></div><div style=""clear:both""></div><div id=""jspsych-space-daw-bottom-stim-left"" style=""background-image: url('./tasks/two-arm-new/img/green_stim_1.png')""></div><div id=""jspsych-space-daw-bottom-stim-middle"" ></div><div id=""jspsych-space-daw-bottom-stim-right"" class=""jspsych-space-daw-bottom-stim-border"" style=""background-image: url('./tasks/two-arm-new/img/green_stim_2.png')""></div></div>","","","","","","","","","","","","","","","","","","","","","","","",""
"html-keyboard-response","43","640080","0.0-4.0-6.0-0.1","630f9d70f86ca1ee77a5b8dd","63690f60c96a0a9a64b48fbc","636919b525a0b7f0ad673031","1381","","j","","","","","","","","<div style=""background-image: url('./tasks/two-arm-new/img/green_planet.png')""><div id=""jspsych-space-daw-top-stim-left"" ></div><div id=""jspsych-space-daw-top-stim-middle"" ></div><div id=""jspsych-space-daw-top-stim-right"" ></div><div style=""clear:both""></div><div id=""jspsych-space-daw-bottom-stim-left"" style=""background-image: url('./tasks/two-arm-new/img/green_stim_1.png')""></div><div id=""jspsych-space-daw-bottom-stim-middle"" ></div><div id=""jspsych-space-daw-bottom-stim-right"" style=""background-image: url('./tasks/two-arm-new/img/green_stim_2.png')""></div></div>","aliens_practice","1","green","2","1","","","","","","","","","","","","","","","","","","",""
"html-keyboard-response","44","640593","0.0-4.0-6.0-1.1","630f9d70f86ca1ee77a5b8dd","63690f60c96a0a9a64b48fbc","636919b525a0b7f0ad673031","null","","null","","","","","","","","<div style=""background-image: url('./tasks/two-arm-new/img/green_planet.png')""><div id=""jspsych-space-daw-top-stim-left"" ></div><div id=""jspsych-space-daw-top-stim-middle"" ></div><div id=""jspsych-space-daw-top-stim-right"" ></div><div style=""clear:both""></div><div id=""jspsych-space-daw-bottom-stim-left"" style=""background-image: url('./tasks/two-arm-new/img/green_stim_1.png')""></div><div id=""jspsych-space-daw-bottom-stim-middle"" ></div><div id=""jspsych-space-daw-bottom-stim-right"" class=""jspsych-space-daw-bottom-stim-border"" style=""background-image: url('./tasks/two-arm-new/img/green_stim_2.png')""></div></div>","","","","","","","","","","","","","","","","","","","","","","","",""
"html-keyboard-response","45","641599","0.0-4.0-6.0-2.1","630f9d70f86ca1ee77a5b8dd","63690f60c96a0a9a64b48fbc","636919b525a0b7f0ad673031","null","","null","","","","","","","","<div style=""background-image: url('./tasks/two-arm-new/img/green_planet.png')""><div id=""jspsych-space-daw-top-stim-left"" ></div><div id=""jspsych-space-daw-top-stim-middle"" ></div><div id=""jspsych-space-daw-top-stim-right"" style=""background-image: url('./tasks/two-arm-new/img/treasure.png')""></div><div style=""clear:both""></div><div id=""jspsych-space-daw-bottom-stim-left"" style=""background-image: url('./tasks/two-arm-new/img/green_stim_1.png')""></div><div id=""jspsych-space-daw-bottom-stim-middle"" ></div><div id=""jspsych-space-daw-bottom-stim-right"" class=""jspsych-space-daw-bottom-stim-border"" style=""background-image: url('./tasks/two-arm-new/img/green_stim_2.png')""></div></div>","","","","","","","","","","","","","","","","","","","","","","","",""
"html-keyboard-response","46","643037","0.0-4.0-6.0-0.2","630f9d70f86ca1ee77a5b8dd","63690f60c96a0a9a64b48fbc","636919b525a0b7f0ad673031","1429","","j","","","","","","","","<div style=""background-image: url('./tasks/two-arm-new/img/green_planet.png')""><div id=""jspsych-space-daw-top-stim-left"" ></div><div id=""jspsych-space-daw-top-stim-middle"" ></div><div id=""jspsych-space-daw-top-stim-right"" ></div><div style=""clear:both""></div><div id=""jspsych-space-daw-bottom-stim-left"" style=""background-image: url('./tasks/two-arm-new/img/green_stim_2.png')""></div><div id=""jspsych-space-daw-bottom-stim-middle"" ></div><div id=""jspsych-space-daw-bottom-stim-right"" style=""background-image: url('./tasks/two-arm-new/img/green_stim_1.png')""></div></div>","aliens_practice","2","green","1","0","","","","","","","","","","","","","","","","","","",""
"html-keyboard-response","47","643546","0.0-4.0-6.0-1.2","630f9d70f86ca1ee77a5b8dd","63690f60c96a0a9a64b48fbc","636919b525a0b7f0ad673031","null","","null","","","","","","","","<div style=""background-image: url('./tasks/two-arm-new/img/green_planet.png')""><div id=""jspsych-space-daw-top-stim-left"" ></div><div id=""jspsych-space-daw-top-stim-middle"" ></div><div id=""jspsych-space-daw-top-stim-right"" ></div><div style=""clear:both""></div><div id=""jspsych-space-daw-bottom-stim-left"" style=""background-image: url('./tasks/two-arm-new/img/green_stim_2.png')""></div><div id=""jspsych-space-daw-bottom-stim-middle"" ></div><div id=""jspsych-space-daw-bottom-stim-right"" class=""jspsych-space-daw-bottom-stim-border"" style=""background-image: url('./tasks/two-arm-new/img/green_stim_1.png')""></div></div>","","","","","","","","","","","","","","","","","","","","","","","",""
"html-keyboard-response","48","644565","0.0-4.0-6.0-2.2","630f9d70f86ca1ee77a5b8dd","63690f60c96a0a9a64b48fbc","636919b525a0b7f0ad673031","null","","null","","","","","","","","<div style=""background-image: url('./tasks/two-arm-new/img/green_planet.png')""><div id=""jspsych-space-daw-top-stim-left"" ></div><div id=""jspsych-space-daw-top-stim-middle"" ></div><div id=""jspsych-space-daw-top-stim-right"" style=""background-image: url('./tasks/two-arm-new/img/noreward.png')""></div><div style=""clear:both""></div><div id=""jspsych-space-daw-bottom-stim-left"" style=""background-image: url('./tasks/two-arm-new/img/green_stim_2.png')""></div><div id=""jspsych-space-daw-bottom-stim-middle"" ></div><div id=""jspsych-space-daw-bottom-stim-right"" class=""jspsych-space-daw-bottom-stim-border"" style=""background-image: url('./tasks/two-arm-new/img/green_stim_1_sad.png')""></div></div>","","","","","","","","","","","","","","","","","","","","","","","",""
"html-keyboard-response","49","645902","0.0-4.0-6.0-0.3","630f9d70f86ca1ee77a5b8dd","63690f60c96a0a9a64b48fbc","636919b525a0b7f0ad673031","1321","","j","","","","","","","","<div style=""background-image: url('./tasks/two-arm-new/img/green_planet.png')""><div id=""jspsych-space-daw-top-stim-left"" ></div><div id=""jspsych-space-daw-top-stim-middle"" ></div><div id=""jspsych-space-daw-top-stim-right"" ></div><div style=""clear:both""></div><div id=""jspsych-space-daw-bottom-stim-left"" style=""background-image: url('./tasks/two-arm-new/img/green_stim_2.png')""></div><div id=""jspsych-space-daw-bottom-stim-middle"" ></div><div id=""jspsych-space-daw-bottom-stim-right"" style=""background-image: url('./tasks/two-arm-new/img/green_stim_1.png')""></div></div>","aliens_practice","3","green","1","0","","","","","","","","","","","","","","","","","","",""
"html-keyboard-response","50","646415","0.0-4.0-6.0-1.3","630f9d70f86ca1ee77a5b8dd","63690f60c96a0a9a64b48fbc","636919b525a0b7f0ad673031","null","","null","","","","","","","","<div style=""background-image: url('./tasks/two-arm-new/img/green_planet.png')""><div id=""jspsych-space-daw-top-stim-left"" ></div><div id=""jspsych-space-daw-top-stim-middle"" ></div><div id=""jspsych-space-daw-top-stim-right"" ></div><div style=""clear:both""></div><div id=""jspsych-space-daw-bottom-stim-left"" style=""background-image: url('./tasks/two-arm-new/img/green_stim_2.png')""></div><div id=""jspsych-space-daw-bottom-stim-middle"" ></div><div id=""jspsych-space-daw-bottom-stim-right"" class=""jspsych-space-daw-bottom-stim-border"" style=""background-image: url('./tasks/two-arm-new/img/green_stim_1.png')""></div></div>","","","","","","","","","","","","","","","","","","","","","","","",""
"html-keyboard-response","51","647434","0.0-4.0-6.0-2.3","630f9d70f86ca1ee77a5b8dd","63690f60c96a0a9a64b48fbc","636919b525a0b7f0ad673031","null","","null","","","","","","","","<div style=""background-image: url('./tasks/two-arm-new/img/green_planet.png')""><div id=""jspsych-space-daw-top-stim-left"" ></div><div id=""jspsych-space-daw-top-stim-middle"" ></div><div id=""jspsych-space-daw-top-stim-right"" style=""background-image: url('./tasks/two-arm-new/img/noreward.png')""></div><div style=""clear:both""></div><div id=""jspsych-space-daw-bottom-stim-left"" style=""background-image: url('./tasks/two-arm-new/img/green_stim_2.png')""></div><div id=""jspsych-space-daw-bottom-stim-middle"" ></div><div id=""jspsych-space-daw-bottom-stim-right"" class=""jspsych-space-daw-bottom-stim-border"" style=""background-image: url('./tasks/two-arm-new/img/green_stim_1_sad.png')""></div></div>","","","","","","","","","","","","","","","","","","","","","","","",""
"html-keyboard-response","52","648165","0.0-4.0-6.0-0.4","630f9d70f86ca1ee77a5b8dd","63690f60c96a0a9a64b48fbc","636919b525a0b7f0ad673031","716","","j","","","","","","","","<div style=""background-image: url('./tasks/two-arm-new/img/green_planet.png')""><div id=""jspsych-space-daw-top-stim-left"" ></div><div id=""jspsych-space-daw-top-stim-middle"" ></div><div id=""jspsych-space-daw-top-stim-right"" ></div><div style=""clear:both""></div><div id=""jspsych-space-daw-bottom-stim-left"" style=""background-image: url('./tasks/two-arm-new/img/green_stim_2.png')""></div><div id=""jspsych-space-daw-bottom-stim-middle"" ></div><div id=""jspsych-space-daw-bottom-stim-right"" style=""background-image: url('./tasks/two-arm-new/img/green_stim_1.png')""></div></div>","aliens_practice","4","green","1","0","","","","","","","","","","","","","","","","","","",""
"html-keyboard-response","53","648678","0.0-4.0-6.0-1.4","630f9d70f86ca1ee77a5b8dd","63690f60c96a0a9a64b48fbc","636919b525a0b7f0ad673031","null","","null","","","","","","","","<div style=""background-image: url('./tasks/two-arm-new/img/green_planet.png')""><div id=""jspsych-space-daw-top-stim-left"" ></div><div id=""jspsych-space-daw-top-stim-middle"" ></div><div id=""jspsych-space-daw-top-stim-right"" ></div><div style=""clear:both""></div><div id=""jspsych-space-daw-bottom-stim-left"" style=""background-image: url('./tasks/two-arm-new/img/green_stim_2.png')""></div><div id=""jspsych-space-daw-bottom-stim-middle"" ></div><div id=""jspsych-space-daw-bottom-stim-right"" class=""jspsych-space-daw-bottom-stim-border"" style=""background-image: url('./tasks/two-arm-new/img/green_stim_1.png')""></div></div>","","","","","","","","","","","","","","","","","","","","","","","",""
"html-keyboard-response","54","649702","0.0-4.0-6.0-2.4","630f9d70f86ca1ee77a5b8dd","63690f60c96a0a9a64b48fbc","636919b525a0b7f0ad673031","null","","null","","","","","","","","<div style=""background-image: url('./tasks/two-arm-new/img/green_planet.png')""><div id=""jspsych-space-daw-top-stim-left"" ></div><div id=""jspsych-space-daw-top-stim-middle"" ></div><div id=""jspsych-space-daw-top-stim-right"" style=""background-image: url('./tasks/two-arm-new/img/noreward.png')""></div><div style=""clear:both""></div><div id=""jspsych-space-daw-bottom-stim-left"" style=""background-image: url('./tasks/two-arm-new/img/green_stim_2.png')""></div><div id=""jspsych-space-daw-bottom-stim-middle"" ></div><div id=""jspsych-space-daw-bottom-stim-right"" class=""jspsych-space-daw-bottom-stim-border"" style=""background-image: url('./tasks/two-arm-new/img/green_stim_1_sad.png')""></div></div>","","","","","","","","","","","","","","","","","","","","","","","",""
"html-keyboard-response","55","650822","0.0-4.0-6.0-0.5","630f9d70f86ca1ee77a5b8dd","63690f60c96a0a9a64b48fbc","636919b525a0b7f0ad673031","1102","","f","","","","","","","","<div style=""background-image: url('./tasks/two-arm-new/img/green_planet.png')""><div id=""jspsych-space-daw-top-stim-left"" ></div><div id=""jspsych-space-daw-top-stim-middle"" ></div><div id=""jspsych-space-daw-top-stim-right"" ></div><div style=""clear:both""></div><div id=""jspsych-space-daw-bottom-stim-left"" style=""background-image: url('./tasks/two-arm-new/img/green_stim_1.png')""></div><div id=""jspsych-space-daw-bottom-stim-middle"" ></div><div id=""jspsych-space-daw-bottom-stim-right"" style=""background-image: url('./tasks/two-arm-new/img/green_stim_2.png')""></div></div>","aliens_practice","5","green","1","0","","","","","","","","","","","","","","","","","","",""
"html-keyboard-response","56","651337","0.0-4.0-6.0-1.5","630f9d70f86ca1ee77a5b8dd","63690f60c96a0a9a64b48fbc","636919b525a0b7f0ad673031","null","","null","","","","","","","","<div style=""background-image: url('./tasks/two-arm-new/img/green_planet.png')""><div id=""jspsych-space-daw-top-stim-left"" ></div><div id=""jspsych-space-daw-top-stim-middle"" ></div><div id=""jspsych-space-daw-top-stim-right"" ></div><div style=""clear:both""></div><div id=""jspsych-space-daw-bottom-stim-left"" class=""jspsych-space-daw-bottom-stim-border"" style=""background-image: url('./tasks/two-arm-new/img/green_stim_1.png')""></div><div id=""jspsych-space-daw-bottom-stim-middle"" ></div><div id=""jspsych-space-daw-bottom-stim-right"" style=""background-image: url('./tasks/two-arm-new/img/green_stim_2.png')""></div></div>","","","","","","","","","","","","","","","","","","","","","","","",""
"html-keyboard-response","57","652344","0.0-4.0-6.0-2.5","630f9d70f86ca1ee77a5b8dd","63690f60c96a0a9a64b48fbc","636919b525a0b7f0ad673031","null","","null","","","","","","","","<div style=""background-image: url('./tasks/two-arm-new/img/green_planet.png')""><div id=""jspsych-space-daw-top-stim-left"" style=""background-image: url('./tasks/two-arm-new/img/noreward.png')""></div><div id=""jspsych-space-daw-top-stim-middle"" ></div><div id=""jspsych-space-daw-top-stim-right"" ></div><div style=""clear:both""></div><div id=""jspsych-space-daw-bottom-stim-left"" class=""jspsych-space-daw-bottom-stim-border"" style=""background-image: url('./tasks/two-arm-new/img/green_stim_1_sad.png')""></div><div id=""jspsych-space-daw-bottom-stim-middle"" ></div><div id=""jspsych-space-daw-bottom-stim-right"" style=""background-image: url('./tasks/two-arm-new/img/green_stim_2.png')""></div></div>","","","","","","","","","","","","","","","","","","","","","","","",""
"html-keyboard-response","58","652883","0.0-4.0-6.0-0.6","630f9d70f86ca1ee77a5b8dd","63690f60c96a0a9a64b48fbc","636919b525a0b7f0ad673031","537","","j","","","","","","","","<div style=""background-image: url('./tasks/two-arm-new/img/green_planet.png')""><div id=""jspsych-space-daw-top-stim-left"" ></div><div id=""jspsych-space-daw-top-stim-middle"" ></div><div id=""jspsych-space-daw-top-stim-right"" ></div><div style=""clear:both""></div><div id=""jspsych-space-daw-bottom-stim-left"" style=""background-image: url('./tasks/two-arm-new/img/green_stim_1.png')""></div><div id=""jspsych-space-daw-bottom-stim-middle"" ></div><div id=""jspsych-space-daw-bottom-stim-right"" style=""background-image: url('./tasks/two-arm-new/img/green_stim_2.png')""></div></div>","aliens_practice","6","green","2","1","","","","","","","","","","","","","","","","","","",""
"html-keyboard-response","59","653404","0.0-4.0-6.0-1.6","630f9d70f86ca1ee77a5b8dd","63690f60c96a0a9a64b48fbc","636919b525a0b7f0ad673031","null","","null","","","","","","","","<div style=""background-image: url('./tasks/two-arm-new/img/green_planet.png')""><div id=""jspsych-space-daw-top-stim-left"" ></div><div id=""jspsych-space-daw-top-stim-middle"" ></div><div id=""jspsych-space-daw-top-stim-right"" ></div><div style=""clear:both""></div><div id=""jspsych-space-daw-bottom-stim-left"" style=""background-image: url('./tasks/two-arm-new/img/green_stim_1.png')""></div><div id=""jspsych-space-daw-bottom-stim-middle"" ></div><div id=""jspsych-space-daw-bottom-stim-right"" class=""jspsych-space-daw-bottom-stim-border"" style=""background-image: url('./tasks/two-arm-new/img/green_stim_2.png')""></div></div>","","","","","","","","","","","","","","","","","","","","","","","",""
"html-keyboard-response","60","654421","0.0-4.0-6.0-2.6","630f9d70f86ca1ee77a5b8dd","63690f60c96a0a9a64b48fbc","636919b525a0b7f0ad673031","null","","null","","","","","","","","<div style=""background-image: url('./tasks/two-arm-new/img/green_planet.png')""><div id=""jspsych-space-daw-top-stim-left"" ></div><div id=""jspsych-space-daw-top-stim-middle"" ></div><div id=""jspsych-space-daw-top-stim-right"" style=""background-image: url('./tasks/two-arm-new/img/treasure.png')""></div><div style=""clear:both""></div><div id=""jspsych-space-daw-bottom-stim-left"" style=""background-image: url('./tasks/two-arm-new/img/green_stim_1.png')""></div><div id=""jspsych-space-daw-bottom-stim-middle"" ></div><div id=""jspsych-space-daw-bottom-stim-right"" class=""jspsych-space-daw-bottom-stim-border"" style=""background-image: url('./tasks/two-arm-new/img/green_stim_2.png')""></div></div>","","","","","","","","","","","","","","","","","","","","","","","",""
"html-keyboard-response","61","655251","0.0-4.0-6.0-0.7","630f9d70f86ca1ee77a5b8dd","63690f60c96a0a9a64b48fbc","636919b525a0b7f0ad673031","821","","j","","","","","","","","<div style=""background-image: url('./tasks/two-arm-new/img/green_planet.png')""><div id=""jspsych-space-daw-top-stim-left"" ></div><div id=""jspsych-space-daw-top-stim-middle"" ></div><div id=""jspsych-space-daw-top-stim-right"" ></div><div style=""clear:both""></div><div id=""jspsych-space-daw-bottom-stim-left"" style=""background-image: url('./tasks/two-arm-new/img/green_stim_1.png')""></div><div id=""jspsych-space-daw-bottom-stim-middle"" ></div><div id=""jspsych-space-daw-bottom-stim-right"" style=""background-image: url('./tasks/two-arm-new/img/green_stim_2.png')""></div></div>","aliens_practice","7","green","2","0","","","","","","","","","","","","","","","","","","",""
"html-keyboard-response","62","655758","0.0-4.0-6.0-1.7","630f9d70f86ca1ee77a5b8dd","63690f60c96a0a9a64b48fbc","636919b525a0b7f0ad673031","null","","null","","","","","","","","<div style=""background-image: url('./tasks/two-arm-new/img/green_planet.png')""><div id=""jspsych-space-daw-top-stim-left"" ></div><div id=""jspsych-space-daw-top-stim-middle"" ></div><div id=""jspsych-space-daw-top-stim-right"" ></div><div style=""clear:both""></div><div id=""jspsych-space-daw-bottom-stim-left"" style=""background-image: url('./tasks/two-arm-new/img/green_stim_1.png')""></div><div id=""jspsych-space-daw-bottom-stim-middle"" ></div><div id=""jspsych-space-daw-bottom-stim-right"" class=""jspsych-space-daw-bottom-stim-border"" style=""background-image: url('./tasks/two-arm-new/img/green_stim_2.png')""></div></div>","","","","","","","","","","","","","","","","","","","","","","","",""
"html-keyboard-response","63","656775","0.0-4.0-6.0-2.7","630f9d70f86ca1ee77a5b8dd","63690f60c96a0a9a64b48fbc","636919b525a0b7f0ad673031","null","","null","","","","","","","","<div style=""background-image: url('./tasks/two-arm-new/img/green_planet.png')""><div id=""jspsych-space-daw-top-stim-left"" ></div><div id=""jspsych-space-daw-top-stim-middle"" ></div><div id=""jspsych-space-daw-top-stim-right"" style=""background-image: url('./tasks/two-arm-new/img/noreward.png')""></div><div style=""clear:both""></div><div id=""jspsych-space-daw-bottom-stim-left"" style=""background-image: url('./tasks/two-arm-new/img/green_stim_1.png')""></div><div id=""jspsych-space-daw-bottom-stim-middle"" ></div><div id=""jspsych-space-daw-bottom-stim-right"" class=""jspsych-space-daw-bottom-stim-border"" style=""background-image: url('./tasks/two-arm-new/img/green_stim_2_sad.png')""></div></div>","","","","","","","","","","","","","","","","","","","","","","","",""
"html-keyboard-response","64","657264","0.0-4.0-6.0-0.8","630f9d70f86ca1ee77a5b8dd","63690f60c96a0a9a64b48fbc","636919b525a0b7f0ad673031","483","","f","","","","","","","","<div style=""background-image: url('./tasks/two-arm-new/img/green_planet.png')""><div id=""jspsych-space-daw-top-stim-left"" ></div><div id=""jspsych-space-daw-top-stim-middle"" ></div><div id=""jspsych-space-daw-top-stim-right"" ></div><div style=""clear:both""></div><div id=""jspsych-space-daw-bottom-stim-left"" style=""background-image: url('./tasks/two-arm-new/img/green_stim_1.png')""></div><div id=""jspsych-space-daw-bottom-stim-middle"" ></div><div id=""jspsych-space-daw-bottom-stim-right"" style=""background-image: url('./tasks/two-arm-new/img/green_stim_2.png')""></div></div>","aliens_practice","8","green","1","0","","","","","","","","","","","","","","","","","","",""
"html-keyboard-response","65","657776","0.0-4.0-6.0-1.8","630f9d70f86ca1ee77a5b8dd","63690f60c96a0a9a64b48fbc","636919b525a0b7f0ad673031","null","","null","","","","","","","","<div style=""background-image: url('./tasks/two-arm-new/img/green_planet.png')""><div id=""jspsych-space-daw-top-stim-left"" ></div><div id=""jspsych-space-daw-top-stim-middle"" ></div><div id=""jspsych-space-daw-top-stim-right"" ></div><div style=""clear:both""></div><div id=""jspsych-space-daw-bottom-stim-left"" class=""jspsych-space-daw-bottom-stim-border"" style=""background-image: url('./tasks/two-arm-new/img/green_stim_1.png')""></div><div id=""jspsych-space-daw-bottom-stim-middle"" ></div><div id=""jspsych-space-daw-bottom-stim-right"" style=""background-image: url('./tasks/two-arm-new/img/green_stim_2.png')""></div></div>","","","","","","","","","","","","","","","","","","","","","","","",""
"html-keyboard-response","66","658794","0.0-4.0-6.0-2.8","630f9d70f86ca1ee77a5b8dd","63690f60c96a0a9a64b48fbc","636919b525a0b7f0ad673031","null","","null","","","","","","","","<div style=""background-image: url('./tasks/two-arm-new/img/green_planet.png')""><div id=""jspsych-space-daw-top-stim-left"" style=""background-image: url('./tasks/two-arm-new/img/noreward.png')""></div><div id=""jspsych-space-daw-top-stim-middle"" ></div><div id=""jspsych-space-daw-top-stim-right"" ></div><div style=""clear:both""></div><div id=""jspsych-space-daw-bottom-stim-left"" class=""jspsych-space-daw-bottom-stim-border"" style=""background-image: url('./tasks/two-arm-new/img/green_stim_1_sad.png')""></div><div id=""jspsych-space-daw-bottom-stim-middle"" ></div><div id=""jspsych-space-daw-bottom-stim-right"" style=""background-image: url('./tasks/two-arm-new/img/green_stim_2.png')""></div></div>","","","","","","","","","","","","","","","","","","","","","","","",""
"html-keyboard-response","67","659965","0.0-4.0-6.0-0.9","630f9d70f86ca1ee77a5b8dd","63690f60c96a0a9a64b48fbc","636919b525a0b7f0ad673031","1168","","f","","","","","","","","<div style=""background-image: url('./tasks/two-arm-new/img/green_planet.png')""><div id=""jspsych-space-daw-top-stim-left"" ></div><div id=""jspsych-space-daw-top-stim-middle"" ></div><div id=""jspsych-space-daw-top-stim-right"" ></div><div style=""clear:both""></div><div id=""jspsych-space-daw-bottom-stim-left"" style=""background-image: url('./tasks/two-arm-new/img/green_stim_2.png')""></div><div id=""jspsych-space-daw-bottom-stim-middle"" ></div><div id=""jspsych-space-daw-bottom-stim-right"" style=""background-image: url('./tasks/two-arm-new/img/green_stim_1.png')""></div></div>","aliens_practice","9","green","2","1","","","","","","","","","","","","","","","","","","",""
"html-keyboard-response","68","660480","0.0-4.0-6.0-1.9","630f9d70f86ca1ee77a5b8dd","63690f60c96a0a9a64b48fbc","636919b525a0b7f0ad673031","null","","null","","","","","","","","<div style=""background-image: url('./tasks/two-arm-new/img/green_planet.png')""><div id=""jspsych-space-daw-top-stim-left"" ></div><div id=""jspsych-space-daw-top-stim-middle"" ></div><div id=""jspsych-space-daw-top-stim-right"" ></div><div style=""clear:both""></div><div id=""jspsych-space-daw-bottom-stim-left"" class=""jspsych-space-daw-bottom-stim-border"" style=""background-image: url('./tasks/two-arm-new/img/green_stim_2.png')""></div><div id=""jspsych-space-daw-bottom-stim-middle"" ></div><div id=""jspsych-space-daw-bottom-stim-right"" style=""background-image: url('./tasks/two-arm-new/img/green_stim_1.png')""></div></div>","","","","","","","","","","","","","","","","","","","","","","","",""
"html-keyboard-response","69","661498","0.0-4.0-6.0-2.9","630f9d70f86ca1ee77a5b8dd","63690f60c96a0a9a64b48fbc","636919b525a0b7f0ad673031","null","","null","","","","","","","","<div style=""background-image: url('./tasks/two-arm-new/img/green_planet.png')""><div id=""jspsych-space-daw-top-stim-left"" style=""background-image: url('./tasks/two-arm-new/img/treasure.png')""></div><div id=""jspsych-space-daw-top-stim-middle"" ></div><div id=""jspsych-space-daw-top-stim-right"" ></div><div style=""clear:both""></div><div id=""jspsych-space-daw-bottom-stim-left"" class=""jspsych-space-daw-bottom-stim-border"" style=""background-image: url('./tasks/two-arm-new/img/green_stim_2.png')""></div><div id=""jspsych-space-daw-bottom-stim-middle"" ></div><div id=""jspsych-space-daw-bottom-stim-right"" style=""background-image: url('./tasks/two-arm-new/img/green_stim_1.png')""></div></div>","","","","","","","","","","","","","","","","","","","","","","","",""
"html-keyboard-response","70","662673","0.0-4.0-6.0-0.10","630f9d70f86ca1ee77a5b8dd","63690f60c96a0a9a64b48fbc","636919b525a0b7f0ad673031","1170","","f","","","","","","","","<div style=""background-image: url('./tasks/two-arm-new/img/green_planet.png')""><div id=""jspsych-space-daw-top-stim-left"" ></div><div id=""jspsych-space-daw-top-stim-middle"" ></div><div id=""jspsych-space-daw-top-stim-right"" ></div><div style=""clear:both""></div><div id=""jspsych-space-daw-bottom-stim-left"" style=""background-image: url('./tasks/two-arm-new/img/green_stim_1.png')""></div><div id=""jspsych-space-daw-bottom-stim-middle"" ></div><div id=""jspsych-space-daw-bottom-stim-right"" style=""background-image: url('./tasks/two-arm-new/img/green_stim_2.png')""></div></div>","aliens_practice","10","green","1","0","","","","","","","","","","","","","","","","","","",""
"html-keyboard-response","71","663185","0.0-4.0-6.0-1.10","630f9d70f86ca1ee77a5b8dd","63690f60c96a0a9a64b48fbc","636919b525a0b7f0ad673031","null","","null","","","","","","","","<div style=""background-image: url('./tasks/two-arm-new/img/green_planet.png')""><div id=""jspsych-space-daw-top-stim-left"" ></div><div id=""jspsych-space-daw-top-stim-middle"" ></div><div id=""jspsych-space-daw-top-stim-right"" ></div><div style=""clear:both""></div><div id=""jspsych-space-daw-bottom-stim-left"" class=""jspsych-space-daw-bottom-stim-border"" style=""background-image: url('./tasks/two-arm-new/img/green_stim_1.png')""></div><div id=""jspsych-space-daw-bottom-stim-middle"" ></div><div id=""jspsych-space-daw-bottom-stim-right"" style=""background-image: url('./tasks/two-arm-new/img/green_stim_2.png')""></div></div>","","","","","","","","","","","","","","","","","","","","","","","",""
"html-keyboard-response","72","664197","0.0-4.0-6.0-2.10","630f9d70f86ca1ee77a5b8dd","63690f60c96a0a9a64b48fbc","636919b525a0b7f0ad673031","null","","null","","","","","","","","<div style=""background-image: url('./tasks/two-arm-new/img/green_planet.png')""><div id=""jspsych-space-daw-top-stim-left"" style=""background-image: url('./tasks/two-arm-new/img/noreward.png')""></div><div id=""jspsych-space-daw-top-stim-middle"" ></div><div id=""jspsych-space-daw-top-stim-right"" ></div><div style=""clear:both""></div><div id=""jspsych-space-daw-bottom-stim-left"" class=""jspsych-space-daw-bottom-stim-border"" style=""background-image: url('./tasks/two-arm-new/img/green_stim_1_sad.png')""></div><div id=""jspsych-space-daw-bottom-stim-middle"" ></div><div id=""jspsych-space-daw-bottom-stim-right"" style=""background-image: url('./tasks/two-arm-new/img/green_stim_2.png')""></div></div>","","","","","","","","","","","","","","","","","","","","","","","",""
"html-keyboard-response","73","665247","0.0-4.0-6.0-0.11","630f9d70f86ca1ee77a5b8dd","63690f60c96a0a9a64b48fbc","636919b525a0b7f0ad673031","1039","","f","","","","","","","","<div style=""background-image: url('./tasks/two-arm-new/img/green_planet.png')""><div id=""jspsych-space-daw-top-stim-left"" ></div><div id=""jspsych-space-daw-top-stim-middle"" ></div><div id=""jspsych-space-daw-top-stim-right"" ></div><div style=""clear:both""></div><div id=""jspsych-space-daw-bottom-stim-left"" style=""background-image: url('./tasks/two-arm-new/img/green_stim_2.png')""></div><div id=""jspsych-space-daw-bottom-stim-middle"" ></div><div id=""jspsych-space-daw-bottom-stim-right"" style=""background-image: url('./tasks/two-arm-new/img/green_stim_1.png')""></div></div>","aliens_practice","11","green","2","1","","","","","","","","","","","","","","","","","","",""
"html-keyboard-response","74","665751","0.0-4.0-6.0-1.11","630f9d70f86ca1ee77a5b8dd","63690f60c96a0a9a64b48fbc","636919b525a0b7f0ad673031","null","","null","","","","","","","","<div style=""background-image: url('./tasks/two-arm-new/img/green_planet.png')""><div id=""jspsych-space-daw-top-stim-left"" ></div><div id=""jspsych-space-daw-top-stim-middle"" ></div><div id=""jspsych-space-daw-top-stim-right"" ></div><div style=""clear:both""></div><div id=""jspsych-space-daw-bottom-stim-left"" class=""jspsych-space-daw-bottom-stim-border"" style=""background-image: url('./tasks/two-arm-new/img/green_stim_2.png')""></div><div id=""jspsych-space-daw-bottom-stim-middle"" ></div><div id=""jspsych-space-daw-bottom-stim-right"" style=""background-image: url('./tasks/two-arm-new/img/green_stim_1.png')""></div></div>","","","","","","","","","","","","","","","","","","","","","","","",""
"html-keyboard-response","75","666771","0.0-4.0-6.0-2.11","630f9d70f86ca1ee77a5b8dd","63690f60c96a0a9a64b48fbc","636919b525a0b7f0ad673031","null","","null","","","","","","","","<div style=""background-image: url('./tasks/two-arm-new/img/green_planet.png')""><div id=""jspsych-space-daw-top-stim-left"" style=""background-image: url('./tasks/two-arm-new/img/treasure.png')""></div><div id=""jspsych-space-daw-top-stim-middle"" ></div><div id=""jspsych-space-daw-top-stim-right"" ></div><div style=""clear:both""></div><div id=""jspsych-space-daw-bottom-stim-left"" class=""jspsych-space-daw-bottom-stim-border"" style=""background-image: url('./tasks/two-arm-new/img/green_stim_2.png')""></div><div id=""jspsych-space-daw-bottom-stim-middle"" ></div><div id=""jspsych-space-daw-bottom-stim-right"" style=""background-image: url('./tasks/two-arm-new/img/green_stim_1.png')""></div></div>","","","","","","","","","","","","","","","","","","","","","","","",""
"html-keyboard-response","76","667722","0.0-4.0-6.0-0.12","630f9d70f86ca1ee77a5b8dd","63690f60c96a0a9a64b48fbc","636919b525a0b7f0ad673031","946","","j","","","","","","","","<div style=""background-image: url('./tasks/two-arm-new/img/green_planet.png')""><div id=""jspsych-space-daw-top-stim-left"" ></div><div id=""jspsych-space-daw-top-stim-middle"" ></div><div id=""jspsych-space-daw-top-stim-right"" ></div><div style=""clear:both""></div><div id=""jspsych-space-daw-bottom-stim-left"" style=""background-image: url('./tasks/two-arm-new/img/green_stim_2.png')""></div><div id=""jspsych-space-daw-bottom-stim-middle"" ></div><div id=""jspsych-space-daw-bottom-stim-right"" style=""background-image: url('./tasks/two-arm-new/img/green_stim_1.png')""></div></div>","aliens_practice","12","green","1","0","","","","","","","","","","","","","","","","","","",""
"html-keyboard-response","77","668234","0.0-4.0-6.0-1.12","630f9d70f86ca1ee77a5b8dd","63690f60c96a0a9a64b48fbc","636919b525a0b7f0ad673031","null","","null","","","","","","","","<div style=""background-image: url('./tasks/two-arm-new/img/green_planet.png')""><div id=""jspsych-space-daw-top-stim-left"" ></div><div id=""jspsych-space-daw-top-stim-middle"" ></div><div id=""jspsych-space-daw-top-stim-right"" ></div><div style=""clear:both""></div><div id=""jspsych-space-daw-bottom-stim-left"" style=""background-image: url('./tasks/two-arm-new/img/green_stim_2.png')""></div><div id=""jspsych-space-daw-bottom-stim-middle"" ></div><div id=""jspsych-space-daw-bottom-stim-right"" class=""jspsych-space-daw-bottom-stim-border"" style=""background-image: url('./tasks/two-arm-new/img/green_stim_1.png')""></div></div>","","","","","","","","","","","","","","","","","","","","","","","",""
"html-keyboard-response","78","669244","0.0-4.0-6.0-2.12","630f9d70f86ca1ee77a5b8dd","63690f60c96a0a9a64b48fbc","636919b525a0b7f0ad673031","null","","null","","","","","","","","<div style=""background-image: url('./tasks/two-arm-new/img/green_planet.png')""><div id=""jspsych-space-daw-top-stim-left"" ></div><div id=""jspsych-space-daw-top-stim-middle"" ></div><div id=""jspsych-space-daw-top-stim-right"" style=""background-image: url('./tasks/two-arm-new/img/noreward.png')""></div><div style=""clear:both""></div><div id=""jspsych-space-daw-bottom-stim-left"" style=""background-image: url('./tasks/two-arm-new/img/green_stim_2.png')""></div><div id=""jspsych-space-daw-bottom-stim-middle"" ></div><div id=""jspsych-space-daw-bottom-stim-right"" class=""jspsych-space-daw-bottom-stim-border"" style=""background-image: url('./tasks/two-arm-new/img/green_stim_1_sad.png')""></div></div>","","","","","","","","","","","","","","","","","","","","","","","",""
"html-keyboard-response","79","670325","0.0-4.0-6.0-0.13","630f9d70f86ca1ee77a5b8dd","63690f60c96a0a9a64b48fbc","636919b525a0b7f0ad673031","1066","","j","","","","","","","","<div style=""background-image: url('./tasks/two-arm-new/img/green_planet.png')""><div id=""jspsych-space-daw-top-stim-left"" ></div><div id=""jspsych-space-daw-top-stim-middle"" ></div><div id=""jspsych-space-daw-top-stim-right"" ></div><div style=""clear:both""></div><div id=""jspsych-space-daw-bottom-stim-left"" style=""background-image: url('./tasks/two-arm-new/img/green_stim_2.png')""></div><div id=""jspsych-space-daw-bottom-stim-middle"" ></div><div id=""jspsych-space-daw-bottom-stim-right"" style=""background-image: url('./tasks/two-arm-new/img/green_stim_1.png')""></div></div>","aliens_practice","13","green","1","0","","","","","","","","","","","","","","","","","","",""
"html-keyboard-response","80","670830","0.0-4.0-6.0-1.13","630f9d70f86ca1ee77a5b8dd","63690f60c96a0a9a64b48fbc","636919b525a0b7f0ad673031","null","","null","","","","","","","","<div style=""background-image: url('./tasks/two-arm-new/img/green_planet.png')""><div id=""jspsych-space-daw-top-stim-left"" ></div><div id=""jspsych-space-daw-top-stim-middle"" ></div><div id=""jspsych-space-daw-top-stim-right"" ></div><div style=""clear:both""></div><div id=""jspsych-space-daw-bottom-stim-left"" style=""background-image: url('./tasks/two-arm-new/img/green_stim_2.png')""></div><div id=""jspsych-space-daw-bottom-stim-middle"" ></div><div id=""jspsych-space-daw-bottom-stim-right"" class=""jspsych-space-daw-bottom-stim-border"" style=""background-image: url('./tasks/two-arm-new/img/green_stim_1.png')""></div></div>","","","","","","","","","","","","","","","","","","","","","","","",""
"html-keyboard-response","81","671840","0.0-4.0-6.0-2.13","630f9d70f86ca1ee77a5b8dd","63690f60c96a0a9a64b48fbc","636919b525a0b7f0ad673031","null","","null","","","","","","","","<div style=""background-image: url('./tasks/two-arm-new/img/green_planet.png')""><div id=""jspsych-space-daw-top-stim-left"" ></div><div id=""jspsych-space-daw-top-stim-middle"" ></div><div id=""jspsych-space-daw-top-stim-right"" style=""background-image: url('./tasks/two-arm-new/img/noreward.png')""></div><div style=""clear:both""></div><div id=""jspsych-space-daw-bottom-stim-left"" style=""background-image: url('./tasks/two-arm-new/img/green_stim_2.png')""></div><div id=""jspsych-space-daw-bottom-stim-middle"" ></div><div id=""jspsych-space-daw-bottom-stim-right"" class=""jspsych-space-daw-bottom-stim-border"" style=""background-image: url('./tasks/two-arm-new/img/green_stim_1_sad.png')""></div></div>","","","","","","","","","","","","","","","","","","","","","","","",""
"html-keyboard-response","82","672572","0.0-4.0-6.0-0.14","630f9d70f86ca1ee77a5b8dd","63690f60c96a0a9a64b48fbc","636919b525a0b7f0ad673031","721","","j","","","","","","","","<div style=""background-image: url('./tasks/two-arm-new/img/green_planet.png')""><div id=""jspsych-space-daw-top-stim-left"" ></div><div id=""jspsych-space-daw-top-stim-middle"" ></div><div id=""jspsych-space-daw-top-stim-right"" ></div><div style=""clear:both""></div><div id=""jspsych-space-daw-bottom-stim-left"" style=""background-image: url('./tasks/two-arm-new/img/green_stim_2.png')""></div><div id=""jspsych-space-daw-bottom-stim-middle"" ></div><div id=""jspsych-space-daw-bottom-stim-right"" style=""background-image: url('./tasks/two-arm-new/img/green_stim_1.png')""></div></div>","aliens_practice","14","green","1","0","","","","","","","","","","","","","","","","","","",""
"html-keyboard-response","83","673075","0.0-4.0-6.0-1.14","630f9d70f86ca1ee77a5b8dd","63690f60c96a0a9a64b48fbc","636919b525a0b7f0ad673031","null","","null","","","","","","","","<div style=""background-image: url('./tasks/two-arm-new/img/green_planet.png')""><div id=""jspsych-space-daw-top-stim-left"" ></div><div id=""jspsych-space-daw-top-stim-middle"" ></div><div id=""jspsych-space-daw-top-stim-right"" ></div><div style=""clear:both""></div><div id=""jspsych-space-daw-bottom-stim-left"" style=""background-image: url('./tasks/two-arm-new/img/green_stim_2.png')""></div><div id=""jspsych-space-daw-bottom-stim-middle"" ></div><div id=""jspsych-space-daw-bottom-stim-right"" class=""jspsych-space-daw-bottom-stim-border"" style=""background-image: url('./tasks/two-arm-new/img/green_stim_1.png')""></div></div>","","","","","","","","","","","","","","","","","","","","","","","",""
"html-keyboard-response","84","674096","0.0-4.0-6.0-2.14","630f9d70f86ca1ee77a5b8dd","63690f60c96a0a9a64b48fbc","636919b525a0b7f0ad673031","null","","null","","","","","","","","<div style=""background-image: url('./tasks/two-arm-new/img/green_planet.png')""><div id=""jspsych-space-daw-top-stim-left"" ></div><div id=""jspsych-space-daw-top-stim-middle"" ></div><div id=""jspsych-space-daw-top-stim-right"" style=""background-image: url('./tasks/two-arm-new/img/noreward.png')""></div><div style=""clear:both""></div><div id=""jspsych-space-daw-bottom-stim-left"" style=""background-image: url('./tasks/two-arm-new/img/green_stim_2.png')""></div><div id=""jspsych-space-daw-bottom-stim-middle"" ></div><div id=""jspsych-space-daw-bottom-stim-right"" class=""jspsych-space-daw-bottom-stim-border"" style=""background-image: url('./tasks/two-arm-new/img/green_stim_1_sad.png')""></div></div>","","","","","","","","","","","","","","","","","","","","","","","",""
"html-keyboard-response","85","674850","0.0-4.0-6.0-0.15","630f9d70f86ca1ee77a5b8dd","63690f60c96a0a9a64b48fbc","636919b525a0b7f0ad673031","750","","j","","","","","","","","<div style=""background-image: url('./tasks/two-arm-new/img/green_planet.png')""><div id=""jspsych-space-daw-top-stim-left"" ></div><div id=""jspsych-space-daw-top-stim-middle"" ></div><div id=""jspsych-space-daw-top-stim-right"" ></div><div style=""clear:both""></div><div id=""jspsych-space-daw-bottom-stim-left"" style=""background-image: url('./tasks/two-arm-new/img/green_stim_1.png')""></div><div id=""jspsych-space-daw-bottom-stim-middle"" ></div><div id=""jspsych-space-daw-bottom-stim-right"" style=""background-image: url('./tasks/two-arm-new/img/green_stim_2.png')""></div></div>","aliens_practice","15","green","2","1","","","","","","","","","","","","","","","","","","",""
"html-keyboard-response","86","675361","0.0-4.0-6.0-1.15","630f9d70f86ca1ee77a5b8dd","63690f60c96a0a9a64b48fbc","636919b525a0b7f0ad673031","null","","null","","","","","","","","<div style=""background-image: url('./tasks/two-arm-new/img/green_planet.png')""><div id=""jspsych-space-daw-top-stim-left"" ></div><div id=""jspsych-space-daw-top-stim-middle"" ></div><div id=""jspsych-space-daw-top-stim-right"" ></div><div style=""clear:both""></div><div id=""jspsych-space-daw-bottom-stim-left"" style=""background-image: url('./tasks/two-arm-new/img/green_stim_1.png')""></div><div id=""jspsych-space-daw-bottom-stim-middle"" ></div><div id=""jspsych-space-daw-bottom-stim-right"" class=""jspsych-space-daw-bottom-stim-border"" style=""background-image: url('./tasks/two-arm-new/img/green_stim_2.png')""></div></div>","","","","","","","","","","","","","","","","","","","","","","","",""
"html-keyboard-response","87","676382","0.0-4.0-6.0-2.15","630f9d70f86ca1ee77a5b8dd","63690f60c96a0a9a64b48fbc","636919b525a0b7f0ad673031","null","","null","","","","","","","","<div style=""background-image: url('./tasks/two-arm-new/img/green_planet.png')""><div id=""jspsych-space-daw-top-stim-left"" ></div><div id=""jspsych-space-daw-top-stim-middle"" ></div><div id=""jspsych-space-daw-top-stim-right"" style=""background-image: url('./tasks/two-arm-new/img/treasure.png')""></div><div style=""clear:both""></div><div id=""jspsych-space-daw-bottom-stim-left"" style=""background-image: url('./tasks/two-arm-new/img/green_stim_1.png')""></div><div id=""jspsych-space-daw-bottom-stim-middle"" ></div><div id=""jspsych-space-daw-bottom-stim-right"" class=""jspsych-space-daw-bottom-stim-border"" style=""background-image: url('./tasks/two-arm-new/img/green_stim_2.png')""></div></div>","","","","","","","","","","","","","","","","","","","","","","","",""
"html-keyboard-response","88","677505","0.0-4.0-6.0-0.16","630f9d70f86ca1ee77a5b8dd","63690f60c96a0a9a64b48fbc","636919b525a0b7f0ad673031","1119","","j","","","","","","","","<div style=""background-image: url('./tasks/two-arm-new/img/green_planet.png')""><div id=""jspsych-space-daw-top-stim-left"" ></div><div id=""jspsych-space-daw-top-stim-middle"" ></div><div id=""jspsych-space-daw-top-stim-right"" ></div><div style=""clear:both""></div><div id=""jspsych-space-daw-bottom-stim-left"" style=""background-image: url('./tasks/two-arm-new/img/green_stim_1.png')""></div><div id=""jspsych-space-daw-bottom-stim-middle"" ></div><div id=""jspsych-space-daw-bottom-stim-right"" style=""background-image: url('./tasks/two-arm-new/img/green_stim_2.png')""></div></div>","aliens_practice","16","green","2","1","","","","","","","","","","","","","","","","","","",""
"html-keyboard-response","89","678015","0.0-4.0-6.0-1.16","630f9d70f86ca1ee77a5b8dd","63690f60c96a0a9a64b48fbc","636919b525a0b7f0ad673031","null","","null","","","","","","","","<div style=""background-image: url('./tasks/two-arm-new/img/green_planet.png')""><div id=""jspsych-space-daw-top-stim-left"" ></div><div id=""jspsych-space-daw-top-stim-middle"" ></div><div id=""jspsych-space-daw-top-stim-right"" ></div><div style=""clear:both""></div><div id=""jspsych-space-daw-bottom-stim-left"" style=""background-image: url('./tasks/two-arm-new/img/green_stim_1.png')""></div><div id=""jspsych-space-daw-bottom-stim-middle"" ></div><div id=""jspsych-space-daw-bottom-stim-right"" class=""jspsych-space-daw-bottom-stim-border"" style=""background-image: url('./tasks/two-arm-new/img/green_stim_2.png')""></div></div>","","","","","","","","","","","","","","","","","","","","","","","",""
"html-keyboard-response","90","679033","0.0-4.0-6.0-2.16","630f9d70f86ca1ee77a5b8dd","63690f60c96a0a9a64b48fbc","636919b525a0b7f0ad673031","null","","null","","","","","","","","<div style=""background-image: url('./tasks/two-arm-new/img/green_planet.png')""><div id=""jspsych-space-daw-top-stim-left"" ></div><div id=""jspsych-space-daw-top-stim-middle"" ></div><div id=""jspsych-space-daw-top-stim-right"" style=""background-image: url('./tasks/two-arm-new/img/treasure.png')""></div><div style=""clear:both""></div><div id=""jspsych-space-daw-bottom-stim-left"" style=""background-image: url('./tasks/two-arm-new/img/green_stim_1.png')""></div><div id=""jspsych-space-daw-bottom-stim-middle"" ></div><div id=""jspsych-space-daw-bottom-stim-right"" class=""jspsych-space-daw-bottom-stim-border"" style=""background-image: url('./tasks/two-arm-new/img/green_stim_2.png')""></div></div>","","","","","","","","","","","","","","","","","","","","","","","",""
"html-keyboard-response","91","680218","0.0-4.0-6.0-0.17","630f9d70f86ca1ee77a5b8dd","63690f60c96a0a9a64b48fbc","636919b525a0b7f0ad673031","1170","","j","","","","","","","","<div style=""background-image: url('./tasks/two-arm-new/img/green_planet.png')""><div id=""jspsych-space-daw-top-stim-left"" ></div><div id=""jspsych-space-daw-top-stim-middle"" ></div><div id=""jspsych-space-daw-top-stim-right"" ></div><div style=""clear:both""></div><div id=""jspsych-space-daw-bottom-stim-left"" style=""background-image: url('./tasks/two-arm-new/img/green_stim_1.png')""></div><div id=""jspsych-space-daw-bottom-stim-middle"" ></div><div id=""jspsych-space-daw-bottom-stim-right"" style=""background-image: url('./tasks/two-arm-new/img/green_stim_2.png')""></div></div>","aliens_practice","17","green","2","1","","","","","","","","","","","","","","","","","","",""
"html-keyboard-response","92","680733","0.0-4.0-6.0-1.17","630f9d70f86ca1ee77a5b8dd","63690f60c96a0a9a64b48fbc","636919b525a0b7f0ad673031","null","","null","","","","","","","","<div style=""background-image: url('./tasks/two-arm-new/img/green_planet.png')""><div id=""jspsych-space-daw-top-stim-left"" ></div><div id=""jspsych-space-daw-top-stim-middle"" ></div><div id=""jspsych-space-daw-top-stim-right"" ></div><div style=""clear:both""></div><div id=""jspsych-space-daw-bottom-stim-left"" style=""background-image: url('./tasks/two-arm-new/img/green_stim_1.png')""></div><div id=""jspsych-space-daw-bottom-stim-middle"" ></div><div id=""jspsych-space-daw-bottom-stim-right"" class=""jspsych-space-daw-bottom-stim-border"" style=""background-image: url('./tasks/two-arm-new/img/green_stim_2.png')""></div></div>","","","","","","","","","","","","","","","","","","","","","","","",""
"html-keyboard-response","93","681750","0.0-4.0-6.0-2.17","630f9d70f86ca1ee77a5b8dd","63690f60c96a0a9a64b48fbc","636919b525a0b7f0ad673031","null","","null","","","","","","","","<div style=""background-image: url('./tasks/two-arm-new/img/green_planet.png')""><div id=""jspsych-space-daw-top-stim-left"" ></div><div id=""jspsych-space-daw-top-stim-middle"" ></div><div id=""jspsych-space-daw-top-stim-right"" style=""background-image: url('./tasks/two-arm-new/img/treasure.png')""></div><div style=""clear:both""></div><div id=""jspsych-space-daw-bottom-stim-left"" style=""background-image: url('./tasks/two-arm-new/img/green_stim_1.png')""></div><div id=""jspsych-space-daw-bottom-stim-middle"" ></div><div id=""jspsych-space-daw-bottom-stim-right"" class=""jspsych-space-daw-bottom-stim-border"" style=""background-image: url('./tasks/two-arm-new/img/green_stim_2.png')""></div></div>","","","","","","","","","","","","","","","","","","","","","","","",""
"html-keyboard-response","94","683094","0.0-4.0-6.0-0.18","630f9d70f86ca1ee77a5b8dd","63690f60c96a0a9a64b48fbc","636919b525a0b7f0ad673031","1336","","f","","","","","","","","<div style=""background-image: url('./tasks/two-arm-new/img/green_planet.png')""><div id=""jspsych-space-daw-top-stim-left"" ></div><div id=""jspsych-space-daw-top-stim-middle"" ></div><div id=""jspsych-space-daw-top-stim-right"" ></div><div style=""clear:both""></div><div id=""jspsych-space-daw-bottom-stim-left"" style=""background-image: url('./tasks/two-arm-new/img/green_stim_2.png')""></div><div id=""jspsych-space-daw-bottom-stim-middle"" ></div><div id=""jspsych-space-daw-bottom-stim-right"" style=""background-image: url('./tasks/two-arm-new/img/green_stim_1.png')""></div></div>","aliens_practice","18","green","2","1","","","","","","","","","","","","","","","","","","",""
"html-keyboard-response","95","683604","0.0-4.0-6.0-1.18","630f9d70f86ca1ee77a5b8dd","63690f60c96a0a9a64b48fbc","636919b525a0b7f0ad673031","null","","null","","","","","","","","<div style=""background-image: url('./tasks/two-arm-new/img/green_planet.png')""><div id=""jspsych-space-daw-top-stim-left"" ></div><div id=""jspsych-space-daw-top-stim-middle"" ></div><div id=""jspsych-space-daw-top-stim-right"" ></div><div style=""clear:both""></div><div id=""jspsych-space-daw-bottom-stim-left"" class=""jspsych-space-daw-bottom-stim-border"" style=""background-image: url('./tasks/two-arm-new/img/green_stim_2.png')""></div><div id=""jspsych-space-daw-bottom-stim-middle"" ></div><div id=""jspsych-space-daw-bottom-stim-right"" style=""background-image: url('./tasks/two-arm-new/img/green_stim_1.png')""></div></div>","","","","","","","","","","","","","","","","","","","","","","","",""
"html-keyboard-response","96","684622","0.0-4.0-6.0-2.18","630f9d70f86ca1ee77a5b8dd","63690f60c96a0a9a64b48fbc","636919b525a0b7f0ad673031","null","","null","","","","","","","","<div style=""background-image: url('./tasks/two-arm-new/img/green_planet.png')""><div id=""jspsych-space-daw-top-stim-left"" style=""background-image: url('./tasks/two-arm-new/img/treasure.png')""></div><div id=""jspsych-space-daw-top-stim-middle"" ></div><div id=""jspsych-space-daw-top-stim-right"" ></div><div style=""clear:both""></div><div id=""jspsych-space-daw-bottom-stim-left"" class=""jspsych-space-daw-bottom-stim-border"" style=""background-image: url('./tasks/two-arm-new/img/green_stim_2.png')""></div><div id=""jspsych-space-daw-bottom-stim-middle"" ></div><div id=""jspsych-space-daw-bottom-stim-right"" style=""background-image: url('./tasks/two-arm-new/img/green_stim_1.png')""></div></div>","","","","","","","","","","","","","","","","","","","","","","","",""
"html-keyboard-response","97","685582","0.0-4.0-6.0-0.19","630f9d70f86ca1ee77a5b8dd","63690f60c96a0a9a64b48fbc","636919b525a0b7f0ad673031","949","","f","","","","","","","","<div style=""background-image: url('./tasks/two-arm-new/img/green_planet.png')""><div id=""jspsych-space-daw-top-stim-left"" ></div><div id=""jspsych-space-daw-top-stim-middle"" ></div><div id=""jspsych-space-daw-top-stim-right"" ></div><div style=""clear:both""></div><div id=""jspsych-space-daw-bottom-stim-left"" style=""background-image: url('./tasks/two-arm-new/img/green_stim_1.png')""></div><div id=""jspsych-space-daw-bottom-stim-middle"" ></div><div id=""jspsych-space-daw-bottom-stim-right"" style=""background-image: url('./tasks/two-arm-new/img/green_stim_2.png')""></div></div>","aliens_practice","19","green","1","0","","","","","","","","","","","","","","","","","","",""
"html-keyboard-response","98","686088","0.0-4.0-6.0-1.19","630f9d70f86ca1ee77a5b8dd","63690f60c96a0a9a64b48fbc","636919b525a0b7f0ad673031","null","","null","","","","","","","","<div style=""background-image: url('./tasks/two-arm-new/img/green_planet.png')""><div id=""jspsych-space-daw-top-stim-left"" ></div><div id=""jspsych-space-daw-top-stim-middle"" ></div><div id=""jspsych-space-daw-top-stim-right"" ></div><div style=""clear:both""></div><div id=""jspsych-space-daw-bottom-stim-left"" class=""jspsych-space-daw-bottom-stim-border"" style=""background-image: url('./tasks/two-arm-new/img/green_stim_1.png')""></div><div id=""jspsych-space-daw-bottom-stim-middle"" ></div><div id=""jspsych-space-daw-bottom-stim-right"" style=""background-image: url('./tasks/two-arm-new/img/green_stim_2.png')""></div></div>","","","","","","","","","","","","","","","","","","","","","","","",""
"html-keyboard-response","99","687107","0.0-4.0-6.0-2.19","630f9d70f86ca1ee77a5b8dd","63690f60c96a0a9a64b48fbc","636919b525a0b7f0ad673031","null","","null","","","","","","","","<div style=""background-image: url('./tasks/two-arm-new/img/green_planet.png')""><div id=""jspsych-space-daw-top-stim-left"" style=""background-image: url('./tasks/two-arm-new/img/noreward.png')""></div><div id=""jspsych-space-daw-top-stim-middle"" ></div><div id=""jspsych-space-daw-top-stim-right"" ></div><div style=""clear:both""></div><div id=""jspsych-space-daw-bottom-stim-left"" class=""jspsych-space-daw-bottom-stim-border"" style=""background-image: url('./tasks/two-arm-new/img/green_stim_1_sad.png')""></div><div id=""jspsych-space-daw-bottom-stim-middle"" ></div><div id=""jspsych-space-daw-bottom-stim-right"" style=""background-image: url('./tasks/two-arm-new/img/green_stim_2.png')""></div></div>","","","","","","","","","","","","","","","","","","","","","","","",""
"html-keyboard-response","100","687870","0.0-4.0-6.0-0.20","630f9d70f86ca1ee77a5b8dd","63690f60c96a0a9a64b48fbc","636919b525a0b7f0ad673031","748","","f","","","","","","","","<div style=""background-image: url('./tasks/two-arm-new/img/green_planet.png')""><div id=""jspsych-space-daw-top-stim-left"" ></div><div id=""jspsych-space-daw-top-stim-middle"" ></div><div id=""jspsych-space-daw-top-stim-right"" ></div><div style=""clear:both""></div><div id=""jspsych-space-daw-bottom-stim-left"" style=""background-image: url('./tasks/two-arm-new/img/green_stim_1.png')""></div><div id=""jspsych-space-daw-bottom-stim-middle"" ></div><div id=""jspsych-space-daw-bottom-stim-right"" style=""background-image: url('./tasks/two-arm-new/img/green_stim_2.png')""></div></div>","aliens_practice","20","green","1","1","","","","","","","","","","","","","","","","","","",""
"html-keyboard-response","101","688382","0.0-4.0-6.0-1.20","630f9d70f86ca1ee77a5b8dd","63690f60c96a0a9a64b48fbc","636919b525a0b7f0ad673031","null","","null","","","","","","","","<div style=""background-image: url('./tasks/two-arm-new/img/green_planet.png')""><div id=""jspsych-space-daw-top-stim-left"" ></div><div id=""jspsych-space-daw-top-stim-middle"" ></div><div id=""jspsych-space-daw-top-stim-right"" ></div><div style=""clear:both""></div><div id=""jspsych-space-daw-bottom-stim-left"" class=""jspsych-space-daw-bottom-stim-border"" style=""background-image: url('./tasks/two-arm-new/img/green_stim_1.png')""></div><div id=""jspsych-space-daw-bottom-stim-middle"" ></div><div id=""jspsych-space-daw-bottom-stim-right"" style=""background-image: url('./tasks/two-arm-new/img/green_stim_2.png')""></div></div>","","","","","","","","","","","","","","","","","","","","","","","",""
"html-keyboard-response","102","689395","0.0-4.0-6.0-2.20","630f9d70f86ca1ee77a5b8dd","63690f60c96a0a9a64b48fbc","636919b525a0b7f0ad673031","null","","null","","","","","","","","<div style=""background-image: url('./tasks/two-arm-new/img/green_planet.png')""><div id=""jspsych-space-daw-top-stim-left"" style=""background-image: url('./tasks/two-arm-new/img/treasure.png')""></div><div id=""jspsych-space-daw-top-stim-middle"" ></div><div id=""jspsych-space-daw-top-stim-right"" ></div><div style=""clear:both""></div><div id=""jspsych-space-daw-bottom-stim-left"" class=""jspsych-space-daw-bottom-stim-border"" style=""background-image: url('./tasks/two-arm-new/img/green_stim_1.png')""></div><div id=""jspsych-space-daw-bottom-stim-middle"" ></div><div id=""jspsych-space-daw-bottom-stim-right"" style=""background-image: url('./tasks/two-arm-new/img/green_stim_2.png')""></div></div>","","","","","","","","","","","","","","","","","","","","","","","",""
"html-keyboard-response","103","690367","0.0-4.0-6.0-0.21","630f9d70f86ca1ee77a5b8dd","63690f60c96a0a9a64b48fbc","636919b525a0b7f0ad673031","966","","f","","","","","","","","<div style=""background-image: url('./tasks/two-arm-new/img/green_planet.png')""><div id=""jspsych-space-daw-top-stim-left"" ></div><div id=""jspsych-space-daw-top-stim-middle"" ></div><div id=""jspsych-space-daw-top-stim-right"" ></div><div style=""clear:both""></div><div id=""jspsych-space-daw-bottom-stim-left"" style=""background-image: url('./tasks/two-arm-new/img/green_stim_1.png')""></div><div id=""jspsych-space-daw-bottom-stim-middle"" ></div><div id=""jspsych-space-daw-bottom-stim-right"" style=""background-image: url('./tasks/two-arm-new/img/green_stim_2.png')""></div></div>","aliens_practice","21","green","1","0","","","","","","","","","","","","","","","","","","",""
"html-keyboard-response","104","690877","0.0-4.0-6.0-1.21","630f9d70f86ca1ee77a5b8dd","63690f60c96a0a9a64b48fbc","636919b525a0b7f0ad673031","null","","null","","","","","","","","<div style=""background-image: url('./tasks/two-arm-new/img/green_planet.png')""><div id=""jspsych-space-daw-top-stim-left"" ></div><div id=""jspsych-space-daw-top-stim-middle"" ></div><div id=""jspsych-space-daw-top-stim-right"" ></div><div style=""clear:both""></div><div id=""jspsych-space-daw-bottom-stim-left"" class=""jspsych-space-daw-bottom-stim-border"" style=""background-image: url('./tasks/two-arm-new/img/green_stim_1.png')""></div><div id=""jspsych-space-daw-bottom-stim-middle"" ></div><div id=""jspsych-space-daw-bottom-stim-right"" style=""background-image: url('./tasks/two-arm-new/img/green_stim_2.png')""></div></div>","","","","","","","","","","","","","","","","","","","","","","","",""
"html-keyboard-response","105","691884","0.0-4.0-6.0-2.21","630f9d70f86ca1ee77a5b8dd","63690f60c96a0a9a64b48fbc","636919b525a0b7f0ad673031","null","","null","","","","","","","","<div style=""background-image: url('./tasks/two-arm-new/img/green_planet.png')""><div id=""jspsych-space-daw-top-stim-left"" style=""background-image: url('./tasks/two-arm-new/img/noreward.png')""></div><div id=""jspsych-space-daw-top-stim-middle"" ></div><div id=""jspsych-space-daw-top-stim-right"" ></div><div style=""clear:both""></div><div id=""jspsych-space-daw-bottom-stim-left"" class=""jspsych-space-daw-bottom-stim-border"" style=""background-image: url('./tasks/two-arm-new/img/green_stim_1_sad.png')""></div><div id=""jspsych-space-daw-bottom-stim-middle"" ></div><div id=""jspsych-space-daw-bottom-stim-right"" style=""background-image: url('./tasks/two-arm-new/img/green_stim_2.png')""></div></div>","","","","","","","","","","","","","","","","","","","","","","","",""
"html-keyboard-response","106","692557","0.0-4.0-6.0-0.22","630f9d70f86ca1ee77a5b8dd","63690f60c96a0a9a64b48fbc","636919b525a0b7f0ad673031","669","","j","","","","","","","","<div style=""background-image: url('./tasks/two-arm-new/img/green_planet.png')""><div id=""jspsych-space-daw-top-stim-left"" ></div><div id=""jspsych-space-daw-top-stim-middle"" ></div><div id=""jspsych-space-daw-top-stim-right"" ></div><div style=""clear:both""></div><div id=""jspsych-space-daw-bottom-stim-left"" style=""background-image: url('./tasks/two-arm-new/img/green_stim_2.png')""></div><div id=""jspsych-space-daw-bottom-stim-middle"" ></div><div id=""jspsych-space-daw-bottom-stim-right"" style=""background-image: url('./tasks/two-arm-new/img/green_stim_1.png')""></div></div>","aliens_practice","22","green","1","0","","","","","","","","","","","","","","","","","","",""
"html-keyboard-response","107","693067","0.0-4.0-6.0-1.22","630f9d70f86ca1ee77a5b8dd","63690f60c96a0a9a64b48fbc","636919b525a0b7f0ad673031","null","","null","","","","","","","","<div style=""background-image: url('./tasks/two-arm-new/img/green_planet.png')""><div id=""jspsych-space-daw-top-stim-left"" ></div><div id=""jspsych-space-daw-top-stim-middle"" ></div><div id=""jspsych-space-daw-top-stim-right"" ></div><div style=""clear:both""></div><div id=""jspsych-space-daw-bottom-stim-left"" style=""background-image: url('./tasks/two-arm-new/img/green_stim_2.png')""></div><div id=""jspsych-space-daw-bottom-stim-middle"" ></div><div id=""jspsych-space-daw-bottom-stim-right"" class=""jspsych-space-daw-bottom-stim-border"" style=""background-image: url('./tasks/two-arm-new/img/green_stim_1.png')""></div></div>","","","","","","","","","","","","","","","","","","","","","","","",""
"html-keyboard-response","108","694084","0.0-4.0-6.0-2.22","630f9d70f86ca1ee77a5b8dd","63690f60c96a0a9a64b48fbc","636919b525a0b7f0ad673031","null","","null","","","","","","","","<div style=""background-image: url('./tasks/two-arm-new/img/green_planet.png')""><div id=""jspsych-space-daw-top-stim-left"" ></div><div id=""jspsych-space-daw-top-stim-middle"" ></div><div id=""jspsych-space-daw-top-stim-right"" style=""background-image: url('./tasks/two-arm-new/img/noreward.png')""></div><div style=""clear:both""></div><div id=""jspsych-space-daw-bottom-stim-left"" style=""background-image: url('./tasks/two-arm-new/img/green_stim_2.png')""></div><div id=""jspsych-space-daw-bottom-stim-middle"" ></div><div id=""jspsych-space-daw-bottom-stim-right"" class=""jspsych-space-daw-bottom-stim-border"" style=""background-image: url('./tasks/two-arm-new/img/green_stim_1_sad.png')""></div></div>","","","","","","","","","","","","","","","","","","","","","","","",""
"html-keyboard-response","109","694264","0.0-4.0-6.0-0.23","630f9d70f86ca1ee77a5b8dd","63690f60c96a0a9a64b48fbc","636919b525a0b7f0ad673031","167","","f","","","","","","","","<div style=""background-image: url('./tasks/two-arm-new/img/green_planet.png')""><div id=""jspsych-space-daw-top-stim-left"" ></div><div id=""jspsych-space-daw-top-stim-middle"" ></div><div id=""jspsych-space-daw-top-stim-right"" ></div><div style=""clear:both""></div><div id=""jspsych-space-daw-bottom-stim-left"" style=""background-image: url('./tasks/two-arm-new/img/green_stim_2.png')""></div><div id=""jspsych-space-daw-bottom-stim-middle"" ></div><div id=""jspsych-space-daw-bottom-stim-right"" style=""background-image: url('./tasks/two-arm-new/img/green_stim_1.png')""></div></div>","aliens_practice","23","green","2","1","","","","","","","","","","","","","","","","","","",""
"html-keyboard-response","110","694778","0.0-4.0-6.0-1.23","630f9d70f86ca1ee77a5b8dd","63690f60c96a0a9a64b48fbc","636919b525a0b7f0ad673031","null","","null","","","","","","","","<div style=""background-image: url('./tasks/two-arm-new/img/green_planet.png')""><div id=""jspsych-space-daw-top-stim-left"" ></div><div id=""jspsych-space-daw-top-stim-middle"" ></div><div id=""jspsych-space-daw-top-stim-right"" ></div><div style=""clear:both""></div><div id=""jspsych-space-daw-bottom-stim-left"" class=""jspsych-space-daw-bottom-stim-border"" style=""background-image: url('./tasks/two-arm-new/img/green_stim_2.png')""></div><div id=""jspsych-space-daw-bottom-stim-middle"" ></div><div id=""jspsych-space-daw-bottom-stim-right"" style=""background-image: url('./tasks/two-arm-new/img/green_stim_1.png')""></div></div>","","","","","","","","","","","","","","","","","","","","","","","",""
"html-keyboard-response","111","695798","0.0-4.0-6.0-2.23","630f9d70f86ca1ee77a5b8dd","63690f60c96a0a9a64b48fbc","636919b525a0b7f0ad673031","null","","null","","","","","","","","<div style=""background-image: url('./tasks/two-arm-new/img/green_planet.png')""><div id=""jspsych-space-daw-top-stim-left"" style=""background-image: url('./tasks/two-arm-new/img/treasure.png')""></div><div id=""jspsych-space-daw-top-stim-middle"" ></div><div id=""jspsych-space-daw-top-stim-right"" ></div><div style=""clear:both""></div><div id=""jspsych-space-daw-bottom-stim-left"" class=""jspsych-space-daw-bottom-stim-border"" style=""background-image: url('./tasks/two-arm-new/img/green_stim_2.png')""></div><div id=""jspsych-space-daw-bottom-stim-middle"" ></div><div id=""jspsych-space-daw-bottom-stim-right"" style=""background-image: url('./tasks/two-arm-new/img/green_stim_1.png')""></div></div>","","","","","","","","","","","","","","","","","","","","","","","",""
"html-keyboard-response","112","696070","0.0-4.0-6.0-0.24","630f9d70f86ca1ee77a5b8dd","63690f60c96a0a9a64b48fbc","636919b525a0b7f0ad673031","265","","f","","","","","","","","<div style=""background-image: url('./tasks/two-arm-new/img/green_planet.png')""><div id=""jspsych-space-daw-top-stim-left"" ></div><div id=""jspsych-space-daw-top-stim-middle"" ></div><div id=""jspsych-space-daw-top-stim-right"" ></div><div style=""clear:both""></div><div id=""jspsych-space-daw-bottom-stim-left"" style=""background-image: url('./tasks/two-arm-new/img/green_stim_1.png')""></div><div id=""jspsych-space-daw-bottom-stim-middle"" ></div><div id=""jspsych-space-daw-bottom-stim-right"" style=""background-image: url('./tasks/two-arm-new/img/green_stim_2.png')""></div></div>","aliens_practice","24","green","1","0","","","","","","","","","","","","","","","","","","",""
"html-keyboard-response","113","696584","0.0-4.0-6.0-1.24","630f9d70f86ca1ee77a5b8dd","63690f60c96a0a9a64b48fbc","636919b525a0b7f0ad673031","null","","null","","","","","","","","<div style=""background-image: url('./tasks/two-arm-new/img/green_planet.png')""><div id=""jspsych-space-daw-top-stim-left"" ></div><div id=""jspsych-space-daw-top-stim-middle"" ></div><div id=""jspsych-space-daw-top-stim-right"" ></div><div style=""clear:both""></div><div id=""jspsych-space-daw-bottom-stim-left"" class=""jspsych-space-daw-bottom-stim-border"" style=""background-image: url('./tasks/two-arm-new/img/green_stim_1.png')""></div><div id=""jspsych-space-daw-bottom-stim-middle"" ></div><div id=""jspsych-space-daw-bottom-stim-right"" style=""background-image: url('./tasks/two-arm-new/img/green_stim_2.png')""></div></div>","","","","","","","","","","","","","","","","","","","","","","","",""
"html-keyboard-response","114","697604","0.0-4.0-6.0-2.24","630f9d70f86ca1ee77a5b8dd","63690f60c96a0a9a64b48fbc","636919b525a0b7f0ad673031","null","","null","","","","","","","","<div style=""background-image: url('./tasks/two-arm-new/img/green_planet.png')""><div id=""jspsych-space-daw-top-stim-left"" style=""background-image: url('./tasks/two-arm-new/img/noreward.png')""></div><div id=""jspsych-space-daw-top-stim-middle"" ></div><div id=""jspsych-space-daw-top-stim-right"" ></div><div style=""clear:both""></div><div id=""jspsych-space-daw-bottom-stim-left"" class=""jspsych-space-daw-bottom-stim-border"" style=""background-image: url('./tasks/two-arm-new/img/green_stim_1_sad.png')""></div><div id=""jspsych-space-daw-bottom-stim-middle"" ></div><div id=""jspsych-space-daw-bottom-stim-right"" style=""background-image: url('./tasks/two-arm-new/img/green_stim_2.png')""></div></div>","","","","","","","","","","","","","","","","","","","","","","","",""
"instructions","115","878726","0.0-4.0-7.0","630f9d70f86ca1ee77a5b8dd","63690f60c96a0a9a64b48fbc","636919b525a0b7f0ad673031","181120","","","","[{""page_index"":0,""viewing_time"":47939},{""page_index"":1,""viewing_time"":28154},{""page_index"":2,""viewing_time"":17693},{""page_index"":3,""viewing_time"":46752},{""page_index"":4,""viewing_time"":34282},{""page_index"":5,""viewing_time"":6300}]","","","","","","","","","","","","","","","","","","","","","","","","","","","","","",""
