"trial_type","trial_index","time_elapsed","internal_node_id","subject_id","study_id","session_id","rt","url","response","question_order","view_history","success","timeout","failed_images","failed_audio","failed_video","stimulus","block","trial_number","jar","bead","previous_bead","choice","correct","lowH_score","highH_score","state","rewarded","state1_action","state2_visited","state1_key","state2_key","state1_rt","state2_rt","block_num","seq_file","trial_seq_info","two_arm_score_block1","two_arm_score_block2","two_arm_score_total","total_bonus"
"pavlovia","0","1236","0.0-0.0","5d3222f5d7ca2e00161bda18","63690f60c96a0a9a64b48fbc","63691fd854f4c9fbbb0c6917","","","","","","","","","","","","","","","","","","","","","","","","","","","","","","","","","","",""
"external-html","1","21361","0.0-1.0-0.0","5d3222f5d7ca2e00161bda18","63690f60c96a0a9a64b48fbc","63691fd854f4c9fbbb0c6917","20009","new_consent.html","","","","","","","","","","","","","","","","","","","","","","","","","","","","","","","","",""
"survey-multi-choice","2","26410","0.0-1.0-1.0","5d3222f5d7ca2e00161bda18","63690f60c96a0a9a64b48fbc","63691fd854f4c9fbbb0c6917","5046","","{""Q0"":""Male"",""Q1"":""Black or African American""}","[0,1]","","","","","","","","","","","","","","","","","","","","","","","","","","","","","","",""
"survey-text","3","29152","0.0-1.0-2.0","5d3222f5d7ca2e00161bda18","63690f60c96a0a9a64b48fbc","63691fd854f4c9fbbb0c6917","2738","","{""Q0"":""36""}","","","","","","","","","","","","","","","","","","","","","","","","","","","","","","","",""
"instructions","4","43361","0.0-2.0","5d3222f5d7ca2e00161bda18","63690f60c96a0a9a64b48fbc","63691fd854f4c9fbbb0c6917","14088","","","","[{""page_index"":0,""viewing_time"":11935},{""page_index"":1,""viewing_time"":2152}]","","","","","","","","","","","","","","","","","","","","","","","","","","","","","",""
"instructions","5","44529","0.0-3.0","5d3222f5d7ca2e00161bda18","63690f60c96a0a9a64b48fbc","63691fd854f4c9fbbb0c6917","1167","","","","[{""page_index"":0,""viewing_time"":1167}]","","","","","","","","","","","","","","","","","","","","","","","","","","","","","",""
"preload","6","45790","0.0-4.0-0.0","5d3222f5d7ca2e00161bda18","63690f60c96a0a9a64b48fbc","63691fd854f4c9fbbb0c6917","","","","","","true","false","[]","[]","[]","","","","","","","","","","","","","","","","","","","","","","","","",""
"instructions","7","146296","0.0-4.0-1.0","5d3222f5d7ca2e00161bda18","63690f60c96a0a9a64b48fbc","63691fd854f4c9fbbb0c6917","100506","","","","[{""page_index"":0,""viewing_time"":10586},{""page_index"":1,""viewing_time"":7288},{""page_index"":2,""viewing_time"":3009},{""page_index"":3,""viewing_time"":1600},{""page_index"":4,""viewing_time"":13248},{""page_index"":5,""viewing_time"":31993},{""page_index"":6,""viewing_time"":5304},{""page_index"":7,""viewing_time"":6040},{""page_index"":8,""viewing_time"":4489},{""page_index"":9,""viewing_time"":5279},{""page_index"":10,""viewing_time"":8497},{""page_index"":11,""viewing_time"":3175}]","","","","","","","","","","","","","","","","","","","","","","","","","","","","","",""
"html-button-response","8","149185","0.0-4.0-2.0-0.0-0.0","5d3222f5d7ca2e00161bda18","63690f60c96a0a9a64b48fbc","63691fd854f4c9fbbb0c6917","2887","","1","","","","","","","","<div align=center>Your goal is to predict…?<br><br></div>","","","","","","","","","","","","","","","","","","","","","","","",""
"html-button-response","9","156441","0.0-4.0-2.0-1.0-0.0","5d3222f5d7ca2e00161bda18","63690f60c96a0a9a64b48fbc","63691fd854f4c9fbbb0c6917","5726","","2","","","","","","","","<div align=center>In the jar with mostly white beads, there are ___% white beads and ___% black beads?<br><br></div>","","","","","","","","","","","","","","","","","","","","","","","",""
"html-button-response","10","163633","0.0-4.0-2.0-2.0-0.0","5d3222f5d7ca2e00161bda18","63690f60c96a0a9a64b48fbc","63691fd854f4c9fbbb0c6917","6269","","0","","","","","","","","<div align=center>When there is a 1% probability that the jars will switch, the next bead will most likely be drawn from the…<br><br></div>","","","","","","","","","","","","","","","","","","","","","","","",""
"html-button-response","11","167048","0.0-4.0-2.0-3.0-0.0","5d3222f5d7ca2e00161bda18","63690f60c96a0a9a64b48fbc","63691fd854f4c9fbbb0c6917","2414","","1","","","","","","","","<div align=center>When there is a 99% probability that the jars will switch, the next bead will most likely be drawn from the…<br><br></div>","","","","","","","","","","","","","","","","","","","","","","","",""
"instructions","12","179217","0.0-4.0-3.0","5d3222f5d7ca2e00161bda18","63690f60c96a0a9a64b48fbc","63691fd854f4c9fbbb0c6917","11272","","","","[{""page_index"":0,""viewing_time"":11271}]","","","","","","","","","","","","","","","","","","","","","","","","","","","","","",""
"html-keyboard-response","13","191282","0.0-4.0-4.0-0.0","5d3222f5d7ca2e00161bda18","63690f60c96a0a9a64b48fbc","63691fd854f4c9fbbb0c6917","12064",""," ","","","","","","","","<div align=center>In this practice block, there will be a <b>10% chance</b> that the jar on the next trial will be different from the jar on the current trial.<br><br></div>","","","","","","","","","","","","","","","","","","","","","","","",""
"image-keyboard-response","14","194327","0.0-4.0-4.0-1.0-0.0","5d3222f5d7ca2e00161bda18","63690f60c96a0a9a64b48fbc","63691fd854f4c9fbbb0c6917","3033","","j","","","","","","","","./tasks/HMM-beads/Images/NoChoice.png","practice","0","1","1","0","2","false","","","","","","","","","","","","","","","","",""
"image-keyboard-response","15","194634","0.0-4.0-4.0-1.0-1.0","5d3222f5d7ca2e00161bda18","63690f60c96a0a9a64b48fbc","63691fd854f4c9fbbb0c6917","null","","null","","","","","","","","./tasks/HMM-beads/Images/WhiteBeadChoice.png","","","","","","","","","","","","","","","","","","","","","","","",""
"image-keyboard-response","16","195149","0.0-4.0-4.0-1.0-2.0","5d3222f5d7ca2e00161bda18","63690f60c96a0a9a64b48fbc","63691fd854f4c9fbbb0c6917","null","","null","","","","","","","","./tasks/HMM-beads/Images/WhiteBeadChoiceWrong.png","","","","","","","","","","","","","","","","","","","","","","","",""
"image-keyboard-response","17","202258","0.0-4.0-4.0-1.0-0.1","5d3222f5d7ca2e00161bda18","63690f60c96a0a9a64b48fbc","63691fd854f4c9fbbb0c6917","7103","","f","","","","","","","","./tasks/HMM-beads/Images/NewTrialBC.png","practice","1","1","1","1","1","true","","","","","","","","","","","","","","","","",""
"image-keyboard-response","18","202571","0.0-4.0-4.0-1.0-1.1","5d3222f5d7ca2e00161bda18","63690f60c96a0a9a64b48fbc","63691fd854f4c9fbbb0c6917","null","","null","","","","","","","","./tasks/HMM-beads/Images/BlackBeadChoice.png","","","","","","","","","","","","","","","","","","","","","","","",""
"image-keyboard-response","19","203079","0.0-4.0-4.0-1.0-2.1","5d3222f5d7ca2e00161bda18","63690f60c96a0a9a64b48fbc","63691fd854f4c9fbbb0c6917","null","","null","","","","","","","","./tasks/HMM-beads/Images/BlackBeadChoiceCorrect.png","","","","","","","","","","","","","","","","","","","","","","","",""
"image-keyboard-response","20","203963","0.0-4.0-4.0-1.0-0.2","5d3222f5d7ca2e00161bda18","63690f60c96a0a9a64b48fbc","63691fd854f4c9fbbb0c6917","882","","f","","","","","","","","./tasks/HMM-beads/Images/NewTrialBC.png","practice","2","1","2","1","1","false","","","","","","","","","","","","","","","","",""
"image-keyboard-response","21","204270","0.0-4.0-4.0-1.0-1.2","5d3222f5d7ca2e00161bda18","63690f60c96a0a9a64b48fbc","63691fd854f4c9fbbb0c6917","null","","null","","","","","","","","./tasks/HMM-beads/Images/BlackBeadChoice.png","","","","","","","","","","","","","","","","","","","","","","","",""
"image-keyboard-response","22","204786","0.0-4.0-4.0-1.0-2.2","5d3222f5d7ca2e00161bda18","63690f60c96a0a9a64b48fbc","63691fd854f4c9fbbb0c6917","null","","null","","","","","","","","./tasks/HMM-beads/Images/BlackBeadChoiceWrong.png","","","","","","","","","","","","","","","","","","","","","","","",""
"image-keyboard-response","23","205506","0.0-4.0-4.0-1.0-0.3","5d3222f5d7ca2e00161bda18","63690f60c96a0a9a64b48fbc","63691fd854f4c9fbbb0c6917","719","","f","","","","","","","","./tasks/HMM-beads/Images/NewTrialWC.png","practice","3","1","1","2","1","true","","","","","","","","","","","","","","","","",""
"image-keyboard-response","24","205824","0.0-4.0-4.0-1.0-1.3","5d3222f5d7ca2e00161bda18","63690f60c96a0a9a64b48fbc","63691fd854f4c9fbbb0c6917","null","","null","","","","","","","","./tasks/HMM-beads/Images/BlackBeadChoice.png","","","","","","","","","","","","","","","","","","","","","","","",""
"image-keyboard-response","25","206344","0.0-4.0-4.0-1.0-2.3","5d3222f5d7ca2e00161bda18","63690f60c96a0a9a64b48fbc","63691fd854f4c9fbbb0c6917","null","","null","","","","","","","","./tasks/HMM-beads/Images/BlackBeadChoiceCorrect.png","","","","","","","","","","","","","","","","","","","","","","","",""
"image-keyboard-response","26","207385","0.0-4.0-4.0-1.0-0.4","5d3222f5d7ca2e00161bda18","63690f60c96a0a9a64b48fbc","63691fd854f4c9fbbb0c6917","1040","","f","","","","","","","","./tasks/HMM-beads/Images/NewTrialBC.png","practice","4","1","2","1","1","false","","","","","","","","","","","","","","","","",""
"image-keyboard-response","27","207704","0.0-4.0-4.0-1.0-1.4","5d3222f5d7ca2e00161bda18","63690f60c96a0a9a64b48fbc","63691fd854f4c9fbbb0c6917","null","","null","","","","","","","","./tasks/HMM-beads/Images/BlackBeadChoice.png","","","","","","","","","","","","","","","","","","","","","","","",""
"image-keyboard-response","28","208215","0.0-4.0-4.0-1.0-2.4","5d3222f5d7ca2e00161bda18","63690f60c96a0a9a64b48fbc","63691fd854f4c9fbbb0c6917","null","","null","","","","","","","","./tasks/HMM-beads/Images/BlackBeadChoiceWrong.png","","","","","","","","","","","","","","","","","","","","","","","",""
"image-keyboard-response","29","208897","0.0-4.0-4.0-1.0-0.5","5d3222f5d7ca2e00161bda18","63690f60c96a0a9a64b48fbc","63691fd854f4c9fbbb0c6917","681","","f","","","","","","","","./tasks/HMM-beads/Images/NewTrialWC.png","practice","5","1","1","2","1","true","","","","","","","","","","","","","","","","",""
"image-keyboard-response","30","209205","0.0-4.0-4.0-1.0-1.5","5d3222f5d7ca2e00161bda18","63690f60c96a0a9a64b48fbc","63691fd854f4c9fbbb0c6917","null","","null","","","","","","","","./tasks/HMM-beads/Images/BlackBeadChoice.png","","","","","","","","","","","","","","","","","","","","","","","",""
"image-keyboard-response","31","209720","0.0-4.0-4.0-1.0-2.5","5d3222f5d7ca2e00161bda18","63690f60c96a0a9a64b48fbc","63691fd854f4c9fbbb0c6917","null","","null","","","","","","","","./tasks/HMM-beads/Images/BlackBeadChoiceCorrect.png","","","","","","","","","","","","","","","","","","","","","","","",""
"image-keyboard-response","32","210913","0.0-4.0-4.0-1.0-0.6","5d3222f5d7ca2e00161bda18","63690f60c96a0a9a64b48fbc","63691fd854f4c9fbbb0c6917","1192","","f","","","","","","","","./tasks/HMM-beads/Images/NewTrialBC.png","practice","6","1","2","1","1","false","","","","","","","","","","","","","","","","",""
"image-keyboard-response","33","211221","0.0-4.0-4.0-1.0-1.6","5d3222f5d7ca2e00161bda18","63690f60c96a0a9a64b48fbc","63691fd854f4c9fbbb0c6917","null","","null","","","","","","","","./tasks/HMM-beads/Images/BlackBeadChoice.png","","","","","","","","","","","","","","","","","","","","","","","",""
"image-keyboard-response","34","211738","0.0-4.0-4.0-1.0-2.6","5d3222f5d7ca2e00161bda18","63690f60c96a0a9a64b48fbc","63691fd854f4c9fbbb0c6917","null","","null","","","","","","","","./tasks/HMM-beads/Images/BlackBeadChoiceWrong.png","","","","","","","","","","","","","","","","","","","","","","","",""
"image-keyboard-response","35","212252","0.0-4.0-4.0-1.0-0.7","5d3222f5d7ca2e00161bda18","63690f60c96a0a9a64b48fbc","63691fd854f4c9fbbb0c6917","513","","f","","","","","","","","./tasks/HMM-beads/Images/NewTrialWC.png","practice","7","1","1","2","1","true","","","","","","","","","","","","","","","","",""
"image-keyboard-response","36","212574","0.0-4.0-4.0-1.0-1.7","5d3222f5d7ca2e00161bda18","63690f60c96a0a9a64b48fbc","63691fd854f4c9fbbb0c6917","null","","null","","","","","","","","./tasks/HMM-beads/Images/BlackBeadChoice.png","","","","","","","","","","","","","","","","","","","","","","","",""
"image-keyboard-response","37","213087","0.0-4.0-4.0-1.0-2.7","5d3222f5d7ca2e00161bda18","63690f60c96a0a9a64b48fbc","63691fd854f4c9fbbb0c6917","null","","null","","","","","","","","./tasks/HMM-beads/Images/BlackBeadChoiceCorrect.png","","","","","","","","","","","","","","","","","","","","","","","",""
"image-keyboard-response","38","214139","0.0-4.0-4.0-1.0-0.8","5d3222f5d7ca2e00161bda18","63690f60c96a0a9a64b48fbc","63691fd854f4c9fbbb0c6917","1050","","j","","","","","","","","./tasks/HMM-beads/Images/NewTrialBC.png","practice","8","1","1","1","2","false","","","","","","","","","","","","","","","","",""
"image-keyboard-response","39","214454","0.0-4.0-4.0-1.0-1.8","5d3222f5d7ca2e00161bda18","63690f60c96a0a9a64b48fbc","63691fd854f4c9fbbb0c6917","null","","null","","","","","","","","./tasks/HMM-beads/Images/WhiteBeadChoice.png","","","","","","","","","","","","","","","","","","","","","","","",""
"image-keyboard-response","40","214977","0.0-4.0-4.0-1.0-2.8","5d3222f5d7ca2e00161bda18","63690f60c96a0a9a64b48fbc","63691fd854f4c9fbbb0c6917","null","","null","","","","","","","","./tasks/HMM-beads/Images/WhiteBeadChoiceWrong.png","","","","","","","","","","","","","","","","","","","","","","","",""
"image-keyboard-response","41","215972","0.0-4.0-4.0-1.0-0.9","5d3222f5d7ca2e00161bda18","63690f60c96a0a9a64b48fbc","63691fd854f4c9fbbb0c6917","994","","f","","","","","","","","./tasks/HMM-beads/Images/NewTrialBC.png","practice","9","2","2","1","1","false","","","","","","","","","","","","","","","","",""
"image-keyboard-response","42","216283","0.0-4.0-4.0-1.0-1.9","5d3222f5d7ca2e00161bda18","63690f60c96a0a9a64b48fbc","63691fd854f4c9fbbb0c6917","null","","null","","","","","","","","./tasks/HMM-beads/Images/BlackBeadChoice.png","","","","","","","","","","","","","","","","","","","","","","","",""
"image-keyboard-response","43","216794","0.0-4.0-4.0-1.0-2.9","5d3222f5d7ca2e00161bda18","63690f60c96a0a9a64b48fbc","63691fd854f4c9fbbb0c6917","null","","null","","","","","","","","./tasks/HMM-beads/Images/BlackBeadChoiceWrong.png","","","","","","","","","","","","","","","","","","","","","","","",""
"image-keyboard-response","44","218569","0.0-4.0-4.0-1.0-0.10","5d3222f5d7ca2e00161bda18","63690f60c96a0a9a64b48fbc","63691fd854f4c9fbbb0c6917","1774","","j","","","","","","","","./tasks/HMM-beads/Images/NewTrialWC.png","practice","10","2","1","2","2","false","","","","","","","","","","","","","","","","",""
"image-keyboard-response","45","218886","0.0-4.0-4.0-1.0-1.10","5d3222f5d7ca2e00161bda18","63690f60c96a0a9a64b48fbc","63691fd854f4c9fbbb0c6917","null","","null","","","","","","","","./tasks/HMM-beads/Images/WhiteBeadChoice.png","","","","","","","","","","","","","","","","","","","","","","","",""
"image-keyboard-response","46","219400","0.0-4.0-4.0-1.0-2.10","5d3222f5d7ca2e00161bda18","63690f60c96a0a9a64b48fbc","63691fd854f4c9fbbb0c6917","null","","null","","","","","","","","./tasks/HMM-beads/Images/WhiteBeadChoiceWrong.png","","","","","","","","","","","","","","","","","","","","","","","",""
"image-keyboard-response","47","219772","0.0-4.0-4.0-1.0-0.11","5d3222f5d7ca2e00161bda18","63690f60c96a0a9a64b48fbc","63691fd854f4c9fbbb0c6917","370","","f","","","","","","","","./tasks/HMM-beads/Images/NewTrialBC.png","practice","11","2","2","1","1","false","","","","","","","","","","","","","","","","",""
"image-keyboard-response","48","220079","0.0-4.0-4.0-1.0-1.11","5d3222f5d7ca2e00161bda18","63690f60c96a0a9a64b48fbc","63691fd854f4c9fbbb0c6917","null","","null","","","","","","","","./tasks/HMM-beads/Images/BlackBeadChoice.png","","","","","","","","","","","","","","","","","","","","","","","",""
"image-keyboard-response","49","220593","0.0-4.0-4.0-1.0-2.11","5d3222f5d7ca2e00161bda18","63690f60c96a0a9a64b48fbc","63691fd854f4c9fbbb0c6917","null","","null","","","","","","","","./tasks/HMM-beads/Images/BlackBeadChoiceWrong.png","","","","","","","","","","","","","","","","","","","","","","","",""
"image-keyboard-response","50","221095","0.0-4.0-4.0-1.0-0.12","5d3222f5d7ca2e00161bda18","63690f60c96a0a9a64b48fbc","63691fd854f4c9fbbb0c6917","501","","f","","","","","","","","./tasks/HMM-beads/Images/NewTrialWC.png","practice","12","2","2","2","1","false","","","","","","","","","","","","","","","","",""
"image-keyboard-response","51","221406","0.0-4.0-4.0-1.0-1.12","5d3222f5d7ca2e00161bda18","63690f60c96a0a9a64b48fbc","63691fd854f4c9fbbb0c6917","null","","null","","","","","","","","./tasks/HMM-beads/Images/BlackBeadChoice.png","","","","","","","","","","","","","","","","","","","","","","","",""
"image-keyboard-response","52","221918","0.0-4.0-4.0-1.0-2.12","5d3222f5d7ca2e00161bda18","63690f60c96a0a9a64b48fbc","63691fd854f4c9fbbb0c6917","null","","null","","","","","","","","./tasks/HMM-beads/Images/BlackBeadChoiceWrong.png","","","","","","","","","","","","","","","","","","","","","","","",""
"image-keyboard-response","53","222379","0.0-4.0-4.0-1.0-0.13","5d3222f5d7ca2e00161bda18","63690f60c96a0a9a64b48fbc","63691fd854f4c9fbbb0c6917","460","","j","","","","","","","","./tasks/HMM-beads/Images/NewTrialWC.png","practice","13","2","2","2","2","true","","","","","","","","","","","","","","","","",""
"image-keyboard-response","54","222689","0.0-4.0-4.0-1.0-1.13","5d3222f5d7ca2e00161bda18","63690f60c96a0a9a64b48fbc","63691fd854f4c9fbbb0c6917","null","","null","","","","","","","","./tasks/HMM-beads/Images/WhiteBeadChoice.png","","","","","","","","","","","","","","","","","","","","","","","",""
"image-keyboard-response","55","223204","0.0-4.0-4.0-1.0-2.13","5d3222f5d7ca2e00161bda18","63690f60c96a0a9a64b48fbc","63691fd854f4c9fbbb0c6917","null","","null","","","","","","","","./tasks/HMM-beads/Images/WhiteBeadChoiceCorrect.png","","","","","","","","","","","","","","","","","","","","","","","",""
"image-keyboard-response","56","223773","0.0-4.0-4.0-1.0-0.14","5d3222f5d7ca2e00161bda18","63690f60c96a0a9a64b48fbc","63691fd854f4c9fbbb0c6917","567","","j","","","","","","","","./tasks/HMM-beads/Images/NewTrialWC.png","practice","14","2","2","2","2","true","","","","","","","","","","","","","","","","",""
"image-keyboard-response","57","224094","0.0-4.0-4.0-1.0-1.14","5d3222f5d7ca2e00161bda18","63690f60c96a0a9a64b48fbc","63691fd854f4c9fbbb0c6917","null","","null","","","","","","","","./tasks/HMM-beads/Images/WhiteBeadChoice.png","","","","","","","","","","","","","","","","","","","","","","","",""
"image-keyboard-response","58","224617","0.0-4.0-4.0-1.0-2.14","5d3222f5d7ca2e00161bda18","63690f60c96a0a9a64b48fbc","63691fd854f4c9fbbb0c6917","null","","null","","","","","","","","./tasks/HMM-beads/Images/WhiteBeadChoiceCorrect.png","","","","","","","","","","","","","","","","","","","","","","","",""
"image-keyboard-response","59","225057","0.0-4.0-4.0-1.0-0.15","5d3222f5d7ca2e00161bda18","63690f60c96a0a9a64b48fbc","63691fd854f4c9fbbb0c6917","439","","j","","","","","","","","./tasks/HMM-beads/Images/NewTrialWC.png","practice","15","1","1","2","2","false","","","","","","","","","","","","","","","","",""
"image-keyboard-response","60","225376","0.0-4.0-4.0-1.0-1.15","5d3222f5d7ca2e00161bda18","63690f60c96a0a9a64b48fbc","63691fd854f4c9fbbb0c6917","null","","null","","","","","","","","./tasks/HMM-beads/Images/WhiteBeadChoice.png","","","","","","","","","","","","","","","","","","","","","","","",""
"image-keyboard-response","61","225888","0.0-4.0-4.0-1.0-2.15","5d3222f5d7ca2e00161bda18","63690f60c96a0a9a64b48fbc","63691fd854f4c9fbbb0c6917","null","","null","","","","","","","","./tasks/HMM-beads/Images/WhiteBeadChoiceWrong.png","","","","","","","","","","","","","","","","","","","","","","","",""
"image-keyboard-response","62","226948","0.0-4.0-4.0-1.0-0.16","5d3222f5d7ca2e00161bda18","63690f60c96a0a9a64b48fbc","63691fd854f4c9fbbb0c6917","1058","","j","","","","","","","","./tasks/HMM-beads/Images/NewTrialBC.png","practice","16","1","2","1","2","true","","","","","","","","","","","","","","","","",""
"image-keyboard-response","63","227260","0.0-4.0-4.0-1.0-1.16","5d3222f5d7ca2e00161bda18","63690f60c96a0a9a64b48fbc","63691fd854f4c9fbbb0c6917","null","","null","","","","","","","","./tasks/HMM-beads/Images/WhiteBeadChoice.png","","","","","","","","","","","","","","","","","","","","","","","",""
"image-keyboard-response","64","227778","0.0-4.0-4.0-1.0-2.16","5d3222f5d7ca2e00161bda18","63690f60c96a0a9a64b48fbc","63691fd854f4c9fbbb0c6917","null","","null","","","","","","","","./tasks/HMM-beads/Images/WhiteBeadChoiceCorrect.png","","","","","","","","","","","","","","","","","","","","","","","",""
"image-keyboard-response","65","228346","0.0-4.0-4.0-1.0-0.17","5d3222f5d7ca2e00161bda18","63690f60c96a0a9a64b48fbc","63691fd854f4c9fbbb0c6917","567","","j","","","","","","","","./tasks/HMM-beads/Images/NewTrialWC.png","practice","17","1","1","2","2","false","","","","","","","","","","","","","","","","",""
"image-keyboard-response","66","228662","0.0-4.0-4.0-1.0-1.17","5d3222f5d7ca2e00161bda18","63690f60c96a0a9a64b48fbc","63691fd854f4c9fbbb0c6917","null","","null","","","","","","","","./tasks/HMM-beads/Images/WhiteBeadChoice.png","","","","","","","","","","","","","","","","","","","","","","","",""
"image-keyboard-response","67","229179","0.0-4.0-4.0-1.0-2.17","5d3222f5d7ca2e00161bda18","63690f60c96a0a9a64b48fbc","63691fd854f4c9fbbb0c6917","null","","null","","","","","","","","./tasks/HMM-beads/Images/WhiteBeadChoiceWrong.png","","","","","","","","","","","","","","","","","","","","","","","",""
"image-keyboard-response","68","229591","0.0-4.0-4.0-1.0-0.18","5d3222f5d7ca2e00161bda18","63690f60c96a0a9a64b48fbc","63691fd854f4c9fbbb0c6917","410","","j","","","","","","","","./tasks/HMM-beads/Images/NewTrialBC.png","practice","18","1","1","1","2","false","","","","","","","","","","","","","","","","",""
"image-keyboard-response","69","229906","0.0-4.0-4.0-1.0-1.18","5d3222f5d7ca2e00161bda18","63690f60c96a0a9a64b48fbc","63691fd854f4c9fbbb0c6917","null","","null","","","","","","","","./tasks/HMM-beads/Images/WhiteBeadChoice.png","","","","","","","","","","","","","","","","","","","","","","","",""
"image-keyboard-response","70","230414","0.0-4.0-4.0-1.0-2.18","5d3222f5d7ca2e00161bda18","63690f60c96a0a9a64b48fbc","63691fd854f4c9fbbb0c6917","null","","null","","","","","","","","./tasks/HMM-beads/Images/WhiteBeadChoiceWrong.png","","","","","","","","","","","","","","","","","","","","","","","",""
"image-keyboard-response","71","231103","0.0-4.0-4.0-1.0-0.19","5d3222f5d7ca2e00161bda18","63690f60c96a0a9a64b48fbc","63691fd854f4c9fbbb0c6917","688","","j","","","","","","","","./tasks/HMM-beads/Images/NewTrialBC.png","practice","19","1","1","1","2","false","","","","","","","","","","","","","","","","",""
"image-keyboard-response","72","231413","0.0-4.0-4.0-1.0-1.19","5d3222f5d7ca2e00161bda18","63690f60c96a0a9a64b48fbc","63691fd854f4c9fbbb0c6917","null","","null","","","","","","","","./tasks/HMM-beads/Images/WhiteBeadChoice.png","","","","","","","","","","","","","","","","","","","","","","","",""
"image-keyboard-response","73","231928","0.0-4.0-4.0-1.0-2.19","5d3222f5d7ca2e00161bda18","63690f60c96a0a9a64b48fbc","63691fd854f4c9fbbb0c6917","null","","null","","","","","","","","./tasks/HMM-beads/Images/WhiteBeadChoiceWrong.png","","","","","","","","","","","","","","","","","","","","","","","",""
"html-keyboard-response","74","234508","0.0-4.0-4.0-2.0","5d3222f5d7ca2e00161bda18","63690f60c96a0a9a64b48fbc","63691fd854f4c9fbbb0c6917","2579",""," ","","","","","","","","","","","","","","","","","","","","","","","","","","","","","","","",""
"instructions","75","246808","0.0-4.0-5.0","5d3222f5d7ca2e00161bda18","63690f60c96a0a9a64b48fbc","63691fd854f4c9fbbb0c6917","12300","","","","[{""page_index"":0,""viewing_time"":8908},{""page_index"":1,""viewing_time"":3392}]","","","","","","","","","","","","","","","","","","","","","","","","","","","","","",""
"html-keyboard-response","76","249266","0.0-4.0-6.0-0.0","5d3222f5d7ca2e00161bda18","63690f60c96a0a9a64b48fbc","63691fd854f4c9fbbb0c6917","2457",""," ","","","","","","","","<div align=center>In this block, there will be a <b>1% chance</b> that the jar on the next trial will be different from the jar on the current trial.<br><br></div>","","","","","","","","","","","","","","","","","","","","","","","",""
"image-keyboard-response","77","252051","0.0-4.0-6.0-1.0-0.0","5d3222f5d7ca2e00161bda18","63690f60c96a0a9a64b48fbc","63691fd854f4c9fbbb0c6917","2784","","j","","","","","","","","./tasks/HMM-beads/Images/NoChoice.png","lowH","0","2","2","0","2","true","","","","","","","","","","","","","","","","",""
"image-keyboard-response","78","252368","0.0-4.0-6.0-1.0-1.0","5d3222f5d7ca2e00161bda18","63690f60c96a0a9a64b48fbc","63691fd854f4c9fbbb0c6917","null","","null","","","","","","","","./tasks/HMM-beads/Images/WhiteBeadChoice.png","","","","","","","","","","","","","","","","","","","","","","","",""
"image-keyboard-response","79","252887","0.0-4.0-6.0-1.0-2.0","5d3222f5d7ca2e00161bda18","63690f60c96a0a9a64b48fbc","63691fd854f4c9fbbb0c6917","null","","null","","","","","","","","./tasks/HMM-beads/Images/WhiteBeadChoiceCorrect.png","","","","","","","","","","","","","","","","","","","","","","","",""
"image-keyboard-response","80","253277","0.0-4.0-6.0-1.0-0.1","5d3222f5d7ca2e00161bda18","63690f60c96a0a9a64b48fbc","63691fd854f4c9fbbb0c6917","387","","j","","","","","","","","./tasks/HMM-beads/Images/NewTrialWC.png","lowH","1","2","2","2","2","true","","","","","","","","","","","","","","","","",""
"image-keyboard-response","81","253600","0.0-4.0-6.0-1.0-1.1","5d3222f5d7ca2e00161bda18","63690f60c96a0a9a64b48fbc","63691fd854f4c9fbbb0c6917","null","","null","","","","","","","","./tasks/HMM-beads/Images/WhiteBeadChoice.png","","","","","","","","","","","","","","","","","","","","","","","",""
"image-keyboard-response","82","254107","0.0-4.0-6.0-1.0-2.1","5d3222f5d7ca2e00161bda18","63690f60c96a0a9a64b48fbc","63691fd854f4c9fbbb0c6917","null","","null","","","","","","","","./tasks/HMM-beads/Images/WhiteBeadChoiceCorrect.png","","","","","","","","","","","","","","","","","","","","","","","",""
"image-keyboard-response","83","254586","0.0-4.0-6.0-1.0-0.2","5d3222f5d7ca2e00161bda18","63690f60c96a0a9a64b48fbc","63691fd854f4c9fbbb0c6917","470","","j","","","","","","","","./tasks/HMM-beads/Images/NewTrialWC.png","lowH","2","2","2","2","2","true","","","","","","","","","","","","","","","","",""
"image-keyboard-response","84","254901","0.0-4.0-6.0-1.0-1.2","5d3222f5d7ca2e00161bda18","63690f60c96a0a9a64b48fbc","63691fd854f4c9fbbb0c6917","null","","null","","","","","","","","./tasks/HMM-beads/Images/WhiteBeadChoice.png","","","","","","","","","","","","","","","","","","","","","","","",""
"image-keyboard-response","85","255422","0.0-4.0-6.0-1.0-2.2","5d3222f5d7ca2e00161bda18","63690f60c96a0a9a64b48fbc","63691fd854f4c9fbbb0c6917","null","","null","","","","","","","","./tasks/HMM-beads/Images/WhiteBeadChoiceCorrect.png","","","","","","","","","","","","","","","","","","","","","","","",""
"image-keyboard-response","86","255787","0.0-4.0-6.0-1.0-0.3","5d3222f5d7ca2e00161bda18","63690f60c96a0a9a64b48fbc","63691fd854f4c9fbbb0c6917","364","","j","","","","","","","","./tasks/HMM-beads/Images/NewTrialWC.png","lowH","3","2","2","2","2","true","","","","","","","","","","","","","","","","",""
"image-keyboard-response","87","256090","0.0-4.0-6.0-1.0-1.3","5d3222f5d7ca2e00161bda18","63690f60c96a0a9a64b48fbc","63691fd854f4c9fbbb0c6917","null","","null","","","","","","","","./tasks/HMM-beads/Images/WhiteBeadChoice.png","","","","","","","","","","","","","","","","","","","","","","","",""
"image-keyboard-response","88","256608","0.0-4.0-6.0-1.0-2.3","5d3222f5d7ca2e00161bda18","63690f60c96a0a9a64b48fbc","63691fd854f4c9fbbb0c6917","null","","null","","","","","","","","./tasks/HMM-beads/Images/WhiteBeadChoiceCorrect.png","","","","","","","","","","","","","","","","","","","","","","","",""
"image-keyboard-response","89","256995","0.0-4.0-6.0-1.0-0.4","5d3222f5d7ca2e00161bda18","63690f60c96a0a9a64b48fbc","63691fd854f4c9fbbb0c6917","386","","j","","","","","","","","./tasks/HMM-beads/Images/NewTrialWC.png","lowH","4","2","1","2","2","false","","","","","","","","","","","","","","","","",""
"image-keyboard-response","90","257303","0.0-4.0-6.0-1.0-1.4","5d3222f5d7ca2e00161bda18","63690f60c96a0a9a64b48fbc","63691fd854f4c9fbbb0c6917","null","","null","","","","","","","","./tasks/HMM-beads/Images/WhiteBeadChoice.png","","","","","","","","","","","","","","","","","","","","","","","",""
"image-keyboard-response","91","257818","0.0-4.0-6.0-1.0-2.4","5d3222f5d7ca2e00161bda18","63690f60c96a0a9a64b48fbc","63691fd854f4c9fbbb0c6917","null","","null","","","","","","","","./tasks/HMM-beads/Images/WhiteBeadChoiceWrong.png","","","","","","","","","","","","","","","","","","","","","","","",""
"image-keyboard-response","92","258199","0.0-4.0-6.0-1.0-0.5","5d3222f5d7ca2e00161bda18","63690f60c96a0a9a64b48fbc","63691fd854f4c9fbbb0c6917","380","","j","","","","","","","","./tasks/HMM-beads/Images/NewTrialBC.png","lowH","5","2","2","1","2","true","","","","","","","","","","","","","","","","",""
"image-keyboard-response","93","258506","0.0-4.0-6.0-1.0-1.5","5d3222f5d7ca2e00161bda18","63690f60c96a0a9a64b48fbc","63691fd854f4c9fbbb0c6917","null","","null","","","","","","","","./tasks/HMM-beads/Images/WhiteBeadChoice.png","","","","","","","","","","","","","","","","","","","","","","","",""
"image-keyboard-response","94","259014","0.0-4.0-6.0-1.0-2.5","5d3222f5d7ca2e00161bda18","63690f60c96a0a9a64b48fbc","63691fd854f4c9fbbb0c6917","null","","null","","","","","","","","./tasks/HMM-beads/Images/WhiteBeadChoiceCorrect.png","","","","","","","","","","","","","","","","","","","","","","","",""
"image-keyboard-response","95","259371","0.0-4.0-6.0-1.0-0.6","5d3222f5d7ca2e00161bda18","63690f60c96a0a9a64b48fbc","63691fd854f4c9fbbb0c6917","356","","j","","","","","","","","./tasks/HMM-beads/Images/NewTrialWC.png","lowH","6","2","2","2","2","true","","","","","","","","","","","","","","","","",""
"image-keyboard-response","96","259688","0.0-4.0-6.0-1.0-1.6","5d3222f5d7ca2e00161bda18","63690f60c96a0a9a64b48fbc","63691fd854f4c9fbbb0c6917","null","","null","","","","","","","","./tasks/HMM-beads/Images/WhiteBeadChoice.png","","","","","","","","","","","","","","","","","","","","","","","",""
"image-keyboard-response","97","260197","0.0-4.0-6.0-1.0-2.6","5d3222f5d7ca2e00161bda18","63690f60c96a0a9a64b48fbc","63691fd854f4c9fbbb0c6917","null","","null","","","","","","","","./tasks/HMM-beads/Images/WhiteBeadChoiceCorrect.png","","","","","","","","","","","","","","","","","","","","","","","",""
"image-keyboard-response","98","260498","0.0-4.0-6.0-1.0-0.7","5d3222f5d7ca2e00161bda18","63690f60c96a0a9a64b48fbc","63691fd854f4c9fbbb0c6917","300","","j","","","","","","","","./tasks/HMM-beads/Images/NewTrialWC.png","lowH","7","2","2","2","2","true","","","","","","","","","","","","","","","","",""
"image-keyboard-response","99","260807","0.0-4.0-6.0-1.0-1.7","5d3222f5d7ca2e00161bda18","63690f60c96a0a9a64b48fbc","63691fd854f4c9fbbb0c6917","null","","null","","","","","","","","./tasks/HMM-beads/Images/WhiteBeadChoice.png","","","","","","","","","","","","","","","","","","","","","","","",""
"image-keyboard-response","100","261319","0.0-4.0-6.0-1.0-2.7","5d3222f5d7ca2e00161bda18","63690f60c96a0a9a64b48fbc","63691fd854f4c9fbbb0c6917","null","","null","","","","","","","","./tasks/HMM-beads/Images/WhiteBeadChoiceCorrect.png","","","","","","","","","","","","","","","","","","","","","","","",""
"image-keyboard-response","101","261589","0.0-4.0-6.0-1.0-0.8","5d3222f5d7ca2e00161bda18","63690f60c96a0a9a64b48fbc","63691fd854f4c9fbbb0c6917","269","","j","","","","","","","","./tasks/HMM-beads/Images/NewTrialWC.png","lowH","8","2","2","2","2","true","","","","","","","","","","","","","","","","",""
"image-keyboard-response","102","261905","0.0-4.0-6.0-1.0-1.8","5d3222f5d7ca2e00161bda18","63690f60c96a0a9a64b48fbc","63691fd854f4c9fbbb0c6917","null","","null","","","","","","","","./tasks/HMM-beads/Images/WhiteBeadChoice.png","","","","","","","","","","","","","","","","","","","","","","","",""
"image-keyboard-response","103","262425","0.0-4.0-6.0-1.0-2.8","5d3222f5d7ca2e00161bda18","63690f60c96a0a9a64b48fbc","63691fd854f4c9fbbb0c6917","null","","null","","","","","","","","./tasks/HMM-beads/Images/WhiteBeadChoiceCorrect.png","","","","","","","","","","","","","","","","","","","","","","","",""
"image-keyboard-response","104","262664","0.0-4.0-6.0-1.0-0.9","5d3222f5d7ca2e00161bda18","63690f60c96a0a9a64b48fbc","63691fd854f4c9fbbb0c6917","238","","j","","","","","","","","./tasks/HMM-beads/Images/NewTrialWC.png","lowH","9","2","2","2","2","true","","","","","","","","","","","","","","","","",""
"image-keyboard-response","105","262980","0.0-4.0-6.0-1.0-1.9","5d3222f5d7ca2e00161bda18","63690f60c96a0a9a64b48fbc","63691fd854f4c9fbbb0c6917","null","","null","","","","","","","","./tasks/HMM-beads/Images/WhiteBeadChoice.png","","","","","","","","","","","","","","","","","","","","","","","",""
"image-keyboard-response","106","263493","0.0-4.0-6.0-1.0-2.9","5d3222f5d7ca2e00161bda18","63690f60c96a0a9a64b48fbc","63691fd854f4c9fbbb0c6917","null","","null","","","","","","","","./tasks/HMM-beads/Images/WhiteBeadChoiceCorrect.png","","","","","","","","","","","","","","","","","","","","","","","",""
"image-keyboard-response","107","263822","0.0-4.0-6.0-1.0-0.10","5d3222f5d7ca2e00161bda18","63690f60c96a0a9a64b48fbc","63691fd854f4c9fbbb0c6917","328","","j","","","","","","","","./tasks/HMM-beads/Images/NewTrialWC.png","lowH","10","2","2","2","2","true","","","","","","","","","","","","","","","","",""
"image-keyboard-response","108","264134","0.0-4.0-6.0-1.0-1.10","5d3222f5d7ca2e00161bda18","63690f60c96a0a9a64b48fbc","63691fd854f4c9fbbb0c6917","null","","null","","","","","","","","./tasks/HMM-beads/Images/WhiteBeadChoice.png","","","","","","","","","","","","","","","","","","","","","","","",""
"image-keyboard-response","109","264645","0.0-4.0-6.0-1.0-2.10","5d3222f5d7ca2e00161bda18","63690f60c96a0a9a64b48fbc","63691fd854f4c9fbbb0c6917","null","","null","","","","","","","","./tasks/HMM-beads/Images/WhiteBeadChoiceCorrect.png","","","","","","","","","","","","","","","","","","","","","","","",""
"image-keyboard-response","110","264907","0.0-4.0-6.0-1.0-0.11","5d3222f5d7ca2e00161bda18","63690f60c96a0a9a64b48fbc","63691fd854f4c9fbbb0c6917","260","","j","","","","","","","","./tasks/HMM-beads/Images/NewTrialWC.png","lowH","11","2","2","2","2","true","","","","","","","","","","","","","","","","",""
"image-keyboard-response","111","265224","0.0-4.0-6.0-1.0-1.11","5d3222f5d7ca2e00161bda18","63690f60c96a0a9a64b48fbc","63691fd854f4c9fbbb0c6917","null","","null","","","","","","","","./tasks/HMM-beads/Images/WhiteBeadChoice.png","","","","","","","","","","","","","","","","","","","","","","","",""
"image-keyboard-response","112","265739","0.0-4.0-6.0-1.0-2.11","5d3222f5d7ca2e00161bda18","63690f60c96a0a9a64b48fbc","63691fd854f4c9fbbb0c6917","null","","null","","","","","","","","./tasks/HMM-beads/Images/WhiteBeadChoiceCorrect.png","","","","","","","","","","","","","","","","","","","","","","","",""
"image-keyboard-response","113","266009","0.0-4.0-6.0-1.0-0.12","5d3222f5d7ca2e00161bda18","63690f60c96a0a9a64b48fbc","63691fd854f4c9fbbb0c6917","269","","j","","","","","","","","./tasks/HMM-beads/Images/NewTrialWC.png","lowH","12","2","2","2","2","true","","","","","","","","","","","","","","","","",""
"image-keyboard-response","114","266326","0.0-4.0-6.0-1.0-1.12","5d3222f5d7ca2e00161bda18","63690f60c96a0a9a64b48fbc","63691fd854f4c9fbbb0c6917","null","","null","","","","","","","","./tasks/HMM-beads/Images/WhiteBeadChoice.png","","","","","","","","","","","","","","","","","","","","","","","",""
"image-keyboard-response","115","266841","0.0-4.0-6.0-1.0-2.12","5d3222f5d7ca2e00161bda18","63690f60c96a0a9a64b48fbc","63691fd854f4c9fbbb0c6917","null","","null","","","","","","","","./tasks/HMM-beads/Images/WhiteBeadChoiceCorrect.png","","","","","","","","","","","","","","","","","","","","","","","",""
"image-keyboard-response","116","267042","0.0-4.0-6.0-1.0-0.13","5d3222f5d7ca2e00161bda18","63690f60c96a0a9a64b48fbc","63691fd854f4c9fbbb0c6917","200","","j","","","","","","","","./tasks/HMM-beads/Images/NewTrialWC.png","lowH","13","2","2","2","2","true","","","","","","","","","","","","","","","","",""
"image-keyboard-response","117","267351","0.0-4.0-6.0-1.0-1.13","5d3222f5d7ca2e00161bda18","63690f60c96a0a9a64b48fbc","63691fd854f4c9fbbb0c6917","null","","null","","","","","","","","./tasks/HMM-beads/Images/WhiteBeadChoice.png","","","","","","","","","","","","","","","","","","","","","","","",""
"image-keyboard-response","118","267867","0.0-4.0-6.0-1.0-2.13","5d3222f5d7ca2e00161bda18","63690f60c96a0a9a64b48fbc","63691fd854f4c9fbbb0c6917","null","","null","","","","","","","","./tasks/HMM-beads/Images/WhiteBeadChoiceCorrect.png","","","","","","","","","","","","","","","","","","","","","","","",""
"image-keyboard-response","119","268064","0.0-4.0-6.0-1.0-0.14","5d3222f5d7ca2e00161bda18","63690f60c96a0a9a64b48fbc","63691fd854f4c9fbbb0c6917","196","","j","","","","","","","","./tasks/HMM-beads/Images/NewTrialWC.png","lowH","14","2","2","2","2","true","","","","","","","","","","","","","","","","",""
"image-keyboard-response","120","268390","0.0-4.0-6.0-1.0-1.14","5d3222f5d7ca2e00161bda18","63690f60c96a0a9a64b48fbc","63691fd854f4c9fbbb0c6917","null","","null","","","","","","","","./tasks/HMM-beads/Images/WhiteBeadChoice.png","","","","","","","","","","","","","","","","","","","","","","","",""
"image-keyboard-response","121","268910","0.0-4.0-6.0-1.0-2.14","5d3222f5d7ca2e00161bda18","63690f60c96a0a9a64b48fbc","63691fd854f4c9fbbb0c6917","null","","null","","","","","","","","./tasks/HMM-beads/Images/WhiteBeadChoiceCorrect.png","","","","","","","","","","","","","","","","","","","","","","","",""
"image-keyboard-response","122","269196","0.0-4.0-6.0-1.0-0.15","5d3222f5d7ca2e00161bda18","63690f60c96a0a9a64b48fbc","63691fd854f4c9fbbb0c6917","282","","j","","","","","","","","./tasks/HMM-beads/Images/NewTrialWC.png","lowH","15","2","1","2","2","false","","","","","","","","","","","","","","","","",""
"image-keyboard-response","123","269512","0.0-4.0-6.0-1.0-1.15","5d3222f5d7ca2e00161bda18","63690f60c96a0a9a64b48fbc","63691fd854f4c9fbbb0c6917","null","","null","","","","","","","","./tasks/HMM-beads/Images/WhiteBeadChoice.png","","","","","","","","","","","","","","","","","","","","","","","",""
"image-keyboard-response","124","270034","0.0-4.0-6.0-1.0-2.15","5d3222f5d7ca2e00161bda18","63690f60c96a0a9a64b48fbc","63691fd854f4c9fbbb0c6917","null","","null","","","","","","","","./tasks/HMM-beads/Images/WhiteBeadChoiceWrong.png","","","","","","","","","","","","","","","","","","","","","","","",""
"image-keyboard-response","125","270292","0.0-4.0-6.0-1.0-0.16","5d3222f5d7ca2e00161bda18","63690f60c96a0a9a64b48fbc","63691fd854f4c9fbbb0c6917","256","","j","","","","","","","","./tasks/HMM-beads/Images/NewTrialBC.png","lowH","16","2","1","1","2","false","","","","","","","","","","","","","","","","",""
"image-keyboard-response","126","270594","0.0-4.0-6.0-1.0-1.16","5d3222f5d7ca2e00161bda18","63690f60c96a0a9a64b48fbc","63691fd854f4c9fbbb0c6917","null","","null","","","","","","","","./tasks/HMM-beads/Images/WhiteBeadChoice.png","","","","","","","","","","","","","","","","","","","","","","","",""
"image-keyboard-response","127","271109","0.0-4.0-6.0-1.0-2.16","5d3222f5d7ca2e00161bda18","63690f60c96a0a9a64b48fbc","63691fd854f4c9fbbb0c6917","null","","null","","","","","","","","./tasks/HMM-beads/Images/WhiteBeadChoiceWrong.png","","","","","","","","","","","","","","","","","","","","","","","",""
"image-keyboard-response","128","271367","0.0-4.0-6.0-1.0-0.17","5d3222f5d7ca2e00161bda18","63690f60c96a0a9a64b48fbc","63691fd854f4c9fbbb0c6917","256","","j","","","","","","","","./tasks/HMM-beads/Images/NewTrialBC.png","lowH","17","2","2","1","2","true","","","","","","","","","","","","","","","","",""
"image-keyboard-response","129","271680","0.0-4.0-6.0-1.0-1.17","5d3222f5d7ca2e00161bda18","63690f60c96a0a9a64b48fbc","63691fd854f4c9fbbb0c6917","null","","null","","","","","","","","./tasks/HMM-beads/Images/WhiteBeadChoice.png","","","","","","","","","","","","","","","","","","","","","","","",""
"image-keyboard-response","130","272189","0.0-4.0-6.0-1.0-2.17","5d3222f5d7ca2e00161bda18","63690f60c96a0a9a64b48fbc","63691fd854f4c9fbbb0c6917","null","","null","","","","","","","","./tasks/HMM-beads/Images/WhiteBeadChoiceCorrect.png","","","","","","","","","","","","","","","","","","","","","","","",""
"image-keyboard-response","131","272513","0.0-4.0-6.0-1.0-0.18","5d3222f5d7ca2e00161bda18","63690f60c96a0a9a64b48fbc","63691fd854f4c9fbbb0c6917","323","","j","","","","","","","","./tasks/HMM-beads/Images/NewTrialWC.png","lowH","18","2","2","2","2","true","","","","","","","","","","","","","","","","",""
"image-keyboard-response","132","272822","0.0-4.0-6.0-1.0-1.18","5d3222f5d7ca2e00161bda18","63690f60c96a0a9a64b48fbc","63691fd854f4c9fbbb0c6917","null","","null","","","","","","","","./tasks/HMM-beads/Images/WhiteBeadChoice.png","","","","","","","","","","","","","","","","","","","","","","","",""
"image-keyboard-response","133","273343","0.0-4.0-6.0-1.0-2.18","5d3222f5d7ca2e00161bda18","63690f60c96a0a9a64b48fbc","63691fd854f4c9fbbb0c6917","null","","null","","","","","","","","./tasks/HMM-beads/Images/WhiteBeadChoiceCorrect.png","","","","","","","","","","","","","","","","","","","","","","","",""
"image-keyboard-response","134","273567","0.0-4.0-6.0-1.0-0.19","5d3222f5d7ca2e00161bda18","63690f60c96a0a9a64b48fbc","63691fd854f4c9fbbb0c6917","223","","j","","","","","","","","./tasks/HMM-beads/Images/NewTrialWC.png","lowH","19","2","2","2","2","true","","","","","","","","","","","","","","","","",""
"image-keyboard-response","135","273875","0.0-4.0-6.0-1.0-1.19","5d3222f5d7ca2e00161bda18","63690f60c96a0a9a64b48fbc","63691fd854f4c9fbbb0c6917","null","","null","","","","","","","","./tasks/HMM-beads/Images/WhiteBeadChoice.png","","","","","","","","","","","","","","","","","","","","","","","",""
"image-keyboard-response","136","274390","0.0-4.0-6.0-1.0-2.19","5d3222f5d7ca2e00161bda18","63690f60c96a0a9a64b48fbc","63691fd854f4c9fbbb0c6917","null","","null","","","","","","","","./tasks/HMM-beads/Images/WhiteBeadChoiceCorrect.png","","","","","","","","","","","","","","","","","","","","","","","",""
"image-keyboard-response","137","274620","0.0-4.0-6.0-1.0-0.20","5d3222f5d7ca2e00161bda18","63690f60c96a0a9a64b48fbc","63691fd854f4c9fbbb0c6917","229","","j","","","","","","","","./tasks/HMM-beads/Images/NewTrialWC.png","lowH","20","2","2","2","2","true","","","","","","","","","","","","","","","","",""
"image-keyboard-response","138","274933","0.0-4.0-6.0-1.0-1.20","5d3222f5d7ca2e00161bda18","63690f60c96a0a9a64b48fbc","63691fd854f4c9fbbb0c6917","null","","null","","","","","","","","./tasks/HMM-beads/Images/WhiteBeadChoice.png","","","","","","","","","","","","","","","","","","","","","","","",""
"image-keyboard-response","139","275445","0.0-4.0-6.0-1.0-2.20","5d3222f5d7ca2e00161bda18","63690f60c96a0a9a64b48fbc","63691fd854f4c9fbbb0c6917","null","","null","","","","","","","","./tasks/HMM-beads/Images/WhiteBeadChoiceCorrect.png","","","","","","","","","","","","","","","","","","","","","","","",""
"image-keyboard-response","140","275707","0.0-4.0-6.0-1.0-0.21","5d3222f5d7ca2e00161bda18","63690f60c96a0a9a64b48fbc","63691fd854f4c9fbbb0c6917","261","","j","","","","","","","","./tasks/HMM-beads/Images/NewTrialWC.png","lowH","21","2","2","2","2","true","","","","","","","","","","","","","","","","",""
"image-keyboard-response","141","276028","0.0-4.0-6.0-1.0-1.21","5d3222f5d7ca2e00161bda18","63690f60c96a0a9a64b48fbc","63691fd854f4c9fbbb0c6917","null","","null","","","","","","","","./tasks/HMM-beads/Images/WhiteBeadChoice.png","","","","","","","","","","","","","","","","","","","","","","","",""
"image-keyboard-response","142","276542","0.0-4.0-6.0-1.0-2.21","5d3222f5d7ca2e00161bda18","63690f60c96a0a9a64b48fbc","63691fd854f4c9fbbb0c6917","null","","null","","","","","","","","./tasks/HMM-beads/Images/WhiteBeadChoiceCorrect.png","","","","","","","","","","","","","","","","","","","","","","","",""
"image-keyboard-response","143","276756","0.0-4.0-6.0-1.0-0.22","5d3222f5d7ca2e00161bda18","63690f60c96a0a9a64b48fbc","63691fd854f4c9fbbb0c6917","213","","j","","","","","","","","./tasks/HMM-beads/Images/NewTrialWC.png","lowH","22","2","2","2","2","true","","","","","","","","","","","","","","","","",""
"image-keyboard-response","144","277081","0.0-4.0-6.0-1.0-1.22","5d3222f5d7ca2e00161bda18","63690f60c96a0a9a64b48fbc","63691fd854f4c9fbbb0c6917","null","","null","","","","","","","","./tasks/HMM-beads/Images/WhiteBeadChoice.png","","","","","","","","","","","","","","","","","","","","","","","",""
"image-keyboard-response","145","277595","0.0-4.0-6.0-1.0-2.22","5d3222f5d7ca2e00161bda18","63690f60c96a0a9a64b48fbc","63691fd854f4c9fbbb0c6917","null","","null","","","","","","","","./tasks/HMM-beads/Images/WhiteBeadChoiceCorrect.png","","","","","","","","","","","","","","","","","","","","","","","",""
"image-keyboard-response","146","277845","0.0-4.0-6.0-1.0-0.23","5d3222f5d7ca2e00161bda18","63690f60c96a0a9a64b48fbc","63691fd854f4c9fbbb0c6917","249","","j","","","","","","","","./tasks/HMM-beads/Images/NewTrialWC.png","lowH","23","2","2","2","2","true","","","","","","","","","","","","","","","","",""
"image-keyboard-response","147","278159","0.0-4.0-6.0-1.0-1.23","5d3222f5d7ca2e00161bda18","63690f60c96a0a9a64b48fbc","63691fd854f4c9fbbb0c6917","null","","null","","","","","","","","./tasks/HMM-beads/Images/WhiteBeadChoice.png","","","","","","","","","","","","","","","","","","","","","","","",""
"image-keyboard-response","148","278676","0.0-4.0-6.0-1.0-2.23","5d3222f5d7ca2e00161bda18","63690f60c96a0a9a64b48fbc","63691fd854f4c9fbbb0c6917","null","","null","","","","","","","","./tasks/HMM-beads/Images/WhiteBeadChoiceCorrect.png","","","","","","","","","","","","","","","","","","","","","","","",""
"image-keyboard-response","149","278913","0.0-4.0-6.0-1.0-0.24","5d3222f5d7ca2e00161bda18","63690f60c96a0a9a64b48fbc","63691fd854f4c9fbbb0c6917","236","","j","","","","","","","","./tasks/HMM-beads/Images/NewTrialWC.png","lowH","24","2","2","2","2","true","","","","","","","","","","","","","","","","",""
"image-keyboard-response","150","279219","0.0-4.0-6.0-1.0-1.24","5d3222f5d7ca2e00161bda18","63690f60c96a0a9a64b48fbc","63691fd854f4c9fbbb0c6917","null","","null","","","","","","","","./tasks/HMM-beads/Images/WhiteBeadChoice.png","","","","","","","","","","","","","","","","","","","","","","","",""
"image-keyboard-response","151","279733","0.0-4.0-6.0-1.0-2.24","5d3222f5d7ca2e00161bda18","63690f60c96a0a9a64b48fbc","63691fd854f4c9fbbb0c6917","null","","null","","","","","","","","./tasks/HMM-beads/Images/WhiteBeadChoiceCorrect.png","","","","","","","","","","","","","","","","","","","","","","","",""
"image-keyboard-response","152","279971","0.0-4.0-6.0-1.0-0.25","5d3222f5d7ca2e00161bda18","63690f60c96a0a9a64b48fbc","63691fd854f4c9fbbb0c6917","237","","j","","","","","","","","./tasks/HMM-beads/Images/NewTrialWC.png","lowH","25","2","2","2","2","true","","","","","","","","","","","","","","","","",""
"image-keyboard-response","153","280289","0.0-4.0-6.0-1.0-1.25","5d3222f5d7ca2e00161bda18","63690f60c96a0a9a64b48fbc","63691fd854f4c9fbbb0c6917","null","","null","","","","","","","","./tasks/HMM-beads/Images/WhiteBeadChoice.png","","","","","","","","","","","","","","","","","","","","","","","",""
"image-keyboard-response","154","280797","0.0-4.0-6.0-1.0-2.25","5d3222f5d7ca2e00161bda18","63690f60c96a0a9a64b48fbc","63691fd854f4c9fbbb0c6917","null","","null","","","","","","","","./tasks/HMM-beads/Images/WhiteBeadChoiceCorrect.png","","","","","","","","","","","","","","","","","","","","","","","",""
"image-keyboard-response","155","281123","0.0-4.0-6.0-1.0-0.26","5d3222f5d7ca2e00161bda18","63690f60c96a0a9a64b48fbc","63691fd854f4c9fbbb0c6917","325","","j","","","","","","","","./tasks/HMM-beads/Images/NewTrialWC.png","lowH","26","2","2","2","2","true","","","","","","","","","","","","","","","","",""
"image-keyboard-response","156","281428","0.0-4.0-6.0-1.0-1.26","5d3222f5d7ca2e00161bda18","63690f60c96a0a9a64b48fbc","63691fd854f4c9fbbb0c6917","null","","null","","","","","","","","./tasks/HMM-beads/Images/WhiteBeadChoice.png","","","","","","","","","","","","","","","","","","","","","","","",""
"image-keyboard-response","157","281945","0.0-4.0-6.0-1.0-2.26","5d3222f5d7ca2e00161bda18","63690f60c96a0a9a64b48fbc","63691fd854f4c9fbbb0c6917","null","","null","","","","","","","","./tasks/HMM-beads/Images/WhiteBeadChoiceCorrect.png","","","","","","","","","","","","","","","","","","","","","","","",""
"image-keyboard-response","158","282119","0.0-4.0-6.0-1.0-0.27","5d3222f5d7ca2e00161bda18","63690f60c96a0a9a64b48fbc","63691fd854f4c9fbbb0c6917","167","","j","","","","","","","","./tasks/HMM-beads/Images/NewTrialWC.png","lowH","27","2","2","2","2","true","","","","","","","","","","","","","","","","",""
"image-keyboard-response","159","282432","0.0-4.0-6.0-1.0-1.27","5d3222f5d7ca2e00161bda18","63690f60c96a0a9a64b48fbc","63691fd854f4c9fbbb0c6917","null","","null","","","","","","","","./tasks/HMM-beads/Images/WhiteBeadChoice.png","","","","","","","","","","","","","","","","","","","","","","","",""
"image-keyboard-response","160","282949","0.0-4.0-6.0-1.0-2.27","5d3222f5d7ca2e00161bda18","63690f60c96a0a9a64b48fbc","63691fd854f4c9fbbb0c6917","null","","null","","","","","","","","./tasks/HMM-beads/Images/WhiteBeadChoiceCorrect.png","","","","","","","","","","","","","","","","","","","","","","","",""
"image-keyboard-response","161","283228","0.0-4.0-6.0-1.0-0.28","5d3222f5d7ca2e00161bda18","63690f60c96a0a9a64b48fbc","63691fd854f4c9fbbb0c6917","278","","j","","","","","","","","./tasks/HMM-beads/Images/NewTrialWC.png","lowH","28","2","2","2","2","true","","","","","","","","","","","","","","","","",""
"image-keyboard-response","162","283549","0.0-4.0-6.0-1.0-1.28","5d3222f5d7ca2e00161bda18","63690f60c96a0a9a64b48fbc","63691fd854f4c9fbbb0c6917","null","","null","","","","","","","","./tasks/HMM-beads/Images/WhiteBeadChoice.png","","","","","","","","","","","","","","","","","","","","","","","",""
"image-keyboard-response","163","284073","0.0-4.0-6.0-1.0-2.28","5d3222f5d7ca2e00161bda18","63690f60c96a0a9a64b48fbc","63691fd854f4c9fbbb0c6917","null","","null","","","","","","","","./tasks/HMM-beads/Images/WhiteBeadChoiceCorrect.png","","","","","","","","","","","","","","","","","","","","","","","",""
"image-keyboard-response","164","284396","0.0-4.0-6.0-1.0-0.29","5d3222f5d7ca2e00161bda18","63690f60c96a0a9a64b48fbc","63691fd854f4c9fbbb0c6917","322","","j","","","","","","","","./tasks/HMM-beads/Images/NewTrialWC.png","lowH","29","2","1","2","2","false","","","","","","","","","","","","","","","","",""
"image-keyboard-response","165","284708","0.0-4.0-6.0-1.0-1.29","5d3222f5d7ca2e00161bda18","63690f60c96a0a9a64b48fbc","63691fd854f4c9fbbb0c6917","null","","null","","","","","","","","./tasks/HMM-beads/Images/WhiteBeadChoice.png","","","","","","","","","","","","","","","","","","","","","","","",""
"image-keyboard-response","166","285230","0.0-4.0-6.0-1.0-2.29","5d3222f5d7ca2e00161bda18","63690f60c96a0a9a64b48fbc","63691fd854f4c9fbbb0c6917","null","","null","","","","","","","","./tasks/HMM-beads/Images/WhiteBeadChoiceWrong.png","","","","","","","","","","","","","","","","","","","","","","","",""
"image-keyboard-response","167","285538","0.0-4.0-6.0-1.0-0.30","5d3222f5d7ca2e00161bda18","63690f60c96a0a9a64b48fbc","63691fd854f4c9fbbb0c6917","306","","j","","","","","","","","./tasks/HMM-beads/Images/NewTrialBC.png","lowH","30","2","2","1","2","true","","","","","","","","","","","","","","","","",""
"image-keyboard-response","168","285851","0.0-4.0-6.0-1.0-1.30","5d3222f5d7ca2e00161bda18","63690f60c96a0a9a64b48fbc","63691fd854f4c9fbbb0c6917","null","","null","","","","","","","","./tasks/HMM-beads/Images/WhiteBeadChoice.png","","","","","","","","","","","","","","","","","","","","","","","",""
"image-keyboard-response","169","286360","0.0-4.0-6.0-1.0-2.30","5d3222f5d7ca2e00161bda18","63690f60c96a0a9a64b48fbc","63691fd854f4c9fbbb0c6917","null","","null","","","","","","","","./tasks/HMM-beads/Images/WhiteBeadChoiceCorrect.png","","","","","","","","","","","","","","","","","","","","","","","",""
"image-keyboard-response","170","286561","0.0-4.0-6.0-1.0-0.31","5d3222f5d7ca2e00161bda18","63690f60c96a0a9a64b48fbc","63691fd854f4c9fbbb0c6917","200","","j","","","","","","","","./tasks/HMM-beads/Images/NewTrialWC.png","lowH","31","2","1","2","2","false","","","","","","","","","","","","","","","","",""
"image-keyboard-response","171","286879","0.0-4.0-6.0-1.0-1.31","5d3222f5d7ca2e00161bda18","63690f60c96a0a9a64b48fbc","63691fd854f4c9fbbb0c6917","null","","null","","","","","","","","./tasks/HMM-beads/Images/WhiteBeadChoice.png","","","","","","","","","","","","","","","","","","","","","","","",""
"image-keyboard-response","172","287391","0.0-4.0-6.0-1.0-2.31","5d3222f5d7ca2e00161bda18","63690f60c96a0a9a64b48fbc","63691fd854f4c9fbbb0c6917","null","","null","","","","","","","","./tasks/HMM-beads/Images/WhiteBeadChoiceWrong.png","","","","","","","","","","","","","","","","","","","","","","","",""
"image-keyboard-response","173","287693","0.0-4.0-6.0-1.0-0.32","5d3222f5d7ca2e00161bda18","63690f60c96a0a9a64b48fbc","63691fd854f4c9fbbb0c6917","301","","j","","","","","","","","./tasks/HMM-beads/Images/NewTrialBC.png","lowH","32","2","2","1","2","true","","","","","","","","","","","","","","","","",""
"image-keyboard-response","174","288006","0.0-4.0-6.0-1.0-1.32","5d3222f5d7ca2e00161bda18","63690f60c96a0a9a64b48fbc","63691fd854f4c9fbbb0c6917","null","","null","","","","","","","","./tasks/HMM-beads/Images/WhiteBeadChoice.png","","","","","","","","","","","","","","","","","","","","","","","",""
"image-keyboard-response","175","288518","0.0-4.0-6.0-1.0-2.32","5d3222f5d7ca2e00161bda18","63690f60c96a0a9a64b48fbc","63691fd854f4c9fbbb0c6917","null","","null","","","","","","","","./tasks/HMM-beads/Images/WhiteBeadChoiceCorrect.png","","","","","","","","","","","","","","","","","","","","","","","",""
"image-keyboard-response","176","288747","0.0-4.0-6.0-1.0-0.33","5d3222f5d7ca2e00161bda18","63690f60c96a0a9a64b48fbc","63691fd854f4c9fbbb0c6917","228","","j","","","","","","","","./tasks/HMM-beads/Images/NewTrialWC.png","lowH","33","2","2","2","2","true","","","","","","","","","","","","","","","","",""
"image-keyboard-response","177","289067","0.0-4.0-6.0-1.0-1.33","5d3222f5d7ca2e00161bda18","63690f60c96a0a9a64b48fbc","63691fd854f4c9fbbb0c6917","null","","null","","","","","","","","./tasks/HMM-beads/Images/WhiteBeadChoice.png","","","","","","","","","","","","","","","","","","","","","","","",""
"image-keyboard-response","178","289573","0.0-4.0-6.0-1.0-2.33","5d3222f5d7ca2e00161bda18","63690f60c96a0a9a64b48fbc","63691fd854f4c9fbbb0c6917","null","","null","","","","","","","","./tasks/HMM-beads/Images/WhiteBeadChoiceCorrect.png","","","","","","","","","","","","","","","","","","","","","","","",""
"image-keyboard-response","179","289826","0.0-4.0-6.0-1.0-0.34","5d3222f5d7ca2e00161bda18","63690f60c96a0a9a64b48fbc","63691fd854f4c9fbbb0c6917","252","","j","","","","","","","","./tasks/HMM-beads/Images/NewTrialWC.png","lowH","34","2","2","2","2","true","","","","","","","","","","","","","","","","",""
"image-keyboard-response","180","290134","0.0-4.0-6.0-1.0-1.34","5d3222f5d7ca2e00161bda18","63690f60c96a0a9a64b48fbc","63691fd854f4c9fbbb0c6917","null","","null","","","","","","","","./tasks/HMM-beads/Images/WhiteBeadChoice.png","","","","","","","","","","","","","","","","","","","","","","","",""
"image-keyboard-response","181","290644","0.0-4.0-6.0-1.0-2.34","5d3222f5d7ca2e00161bda18","63690f60c96a0a9a64b48fbc","63691fd854f4c9fbbb0c6917","null","","null","","","","","","","","./tasks/HMM-beads/Images/WhiteBeadChoiceCorrect.png","","","","","","","","","","","","","","","","","","","","","","","",""
"image-keyboard-response","182","290950","0.0-4.0-6.0-1.0-0.35","5d3222f5d7ca2e00161bda18","63690f60c96a0a9a64b48fbc","63691fd854f4c9fbbb0c6917","305","","j","","","","","","","","./tasks/HMM-beads/Images/NewTrialWC.png","lowH","35","2","2","2","2","true","","","","","","","","","","","","","","","","",""
"image-keyboard-response","183","291264","0.0-4.0-6.0-1.0-1.35","5d3222f5d7ca2e00161bda18","63690f60c96a0a9a64b48fbc","63691fd854f4c9fbbb0c6917","null","","null","","","","","","","","./tasks/HMM-beads/Images/WhiteBeadChoice.png","","","","","","","","","","","","","","","","","","","","","","","",""
"image-keyboard-response","184","291781","0.0-4.0-6.0-1.0-2.35","5d3222f5d7ca2e00161bda18","63690f60c96a0a9a64b48fbc","63691fd854f4c9fbbb0c6917","null","","null","","","","","","","","./tasks/HMM-beads/Images/WhiteBeadChoiceCorrect.png","","","","","","","","","","","","","","","","","","","","","","","",""
"image-keyboard-response","185","292080","0.0-4.0-6.0-1.0-0.36","5d3222f5d7ca2e00161bda18","63690f60c96a0a9a64b48fbc","63691fd854f4c9fbbb0c6917","297","","j","","","","","","","","./tasks/HMM-beads/Images/NewTrialWC.png","lowH","36","2","2","2","2","true","","","","","","","","","","","","","","","","",""
"image-keyboard-response","186","292385","0.0-4.0-6.0-1.0-1.36","5d3222f5d7ca2e00161bda18","63690f60c96a0a9a64b48fbc","63691fd854f4c9fbbb0c6917","null","","null","","","","","","","","./tasks/HMM-beads/Images/WhiteBeadChoice.png","","","","","","","","","","","","","","","","","","","","","","","",""
"image-keyboard-response","187","292895","0.0-4.0-6.0-1.0-2.36","5d3222f5d7ca2e00161bda18","63690f60c96a0a9a64b48fbc","63691fd854f4c9fbbb0c6917","null","","null","","","","","","","","./tasks/HMM-beads/Images/WhiteBeadChoiceCorrect.png","","","","","","","","","","","","","","","","","","","","","","","",""
"image-keyboard-response","188","293183","0.0-4.0-6.0-1.0-0.37","5d3222f5d7ca2e00161bda18","63690f60c96a0a9a64b48fbc","63691fd854f4c9fbbb0c6917","287","","j","","","","","","","","./tasks/HMM-beads/Images/NewTrialWC.png","lowH","37","2","2","2","2","true","","","","","","","","","","","","","","","","",""
"image-keyboard-response","189","293503","0.0-4.0-6.0-1.0-1.37","5d3222f5d7ca2e00161bda18","63690f60c96a0a9a64b48fbc","63691fd854f4c9fbbb0c6917","null","","null","","","","","","","","./tasks/HMM-beads/Images/WhiteBeadChoice.png","","","","","","","","","","","","","","","","","","","","","","","",""
"image-keyboard-response","190","294016","0.0-4.0-6.0-1.0-2.37","5d3222f5d7ca2e00161bda18","63690f60c96a0a9a64b48fbc","63691fd854f4c9fbbb0c6917","null","","null","","","","","","","","./tasks/HMM-beads/Images/WhiteBeadChoiceCorrect.png","","","","","","","","","","","","","","","","","","","","","","","",""
"image-keyboard-response","191","294322","0.0-4.0-6.0-1.0-0.38","5d3222f5d7ca2e00161bda18","63690f60c96a0a9a64b48fbc","63691fd854f4c9fbbb0c6917","304","","j","","","","","","","","./tasks/HMM-beads/Images/NewTrialWC.png","lowH","38","2","2","2","2","true","","","","","","","","","","","","","","","","",""
"image-keyboard-response","192","294635","0.0-4.0-6.0-1.0-1.38","5d3222f5d7ca2e00161bda18","63690f60c96a0a9a64b48fbc","63691fd854f4c9fbbb0c6917","null","","null","","","","","","","","./tasks/HMM-beads/Images/WhiteBeadChoice.png","","","","","","","","","","","","","","","","","","","","","","","",""
"image-keyboard-response","193","295150","0.0-4.0-6.0-1.0-2.38","5d3222f5d7ca2e00161bda18","63690f60c96a0a9a64b48fbc","63691fd854f4c9fbbb0c6917","null","","null","","","","","","","","./tasks/HMM-beads/Images/WhiteBeadChoiceCorrect.png","","","","","","","","","","","","","","","","","","","","","","","",""
"image-keyboard-response","194","295446","0.0-4.0-6.0-1.0-0.39","5d3222f5d7ca2e00161bda18","63690f60c96a0a9a64b48fbc","63691fd854f4c9fbbb0c6917","294","","j","","","","","","","","./tasks/HMM-beads/Images/NewTrialWC.png","lowH","39","2","1","2","2","false","","","","","","","","","","","","","","","","",""
"image-keyboard-response","195","295756","0.0-4.0-6.0-1.0-1.39","5d3222f5d7ca2e00161bda18","63690f60c96a0a9a64b48fbc","63691fd854f4c9fbbb0c6917","null","","null","","","","","","","","./tasks/HMM-beads/Images/WhiteBeadChoice.png","","","","","","","","","","","","","","","","","","","","","","","",""
"image-keyboard-response","196","296277","0.0-4.0-6.0-1.0-2.39","5d3222f5d7ca2e00161bda18","63690f60c96a0a9a64b48fbc","63691fd854f4c9fbbb0c6917","null","","null","","","","","","","","./tasks/HMM-beads/Images/WhiteBeadChoiceWrong.png","","","","","","","","","","","","","","","","","","","","","","","",""
"image-keyboard-response","197","296577","0.0-4.0-6.0-1.0-0.40","5d3222f5d7ca2e00161bda18","63690f60c96a0a9a64b48fbc","63691fd854f4c9fbbb0c6917","299","","j","","","","","","","","./tasks/HMM-beads/Images/NewTrialBC.png","lowH","40","2","2","1","2","true","","","","","","","","","","","","","","","","",""
"image-keyboard-response","198","296896","0.0-4.0-6.0-1.0-1.40","5d3222f5d7ca2e00161bda18","63690f60c96a0a9a64b48fbc","63691fd854f4c9fbbb0c6917","null","","null","","","","","","","","./tasks/HMM-beads/Images/WhiteBeadChoice.png","","","","","","","","","","","","","","","","","","","","","","","",""
"image-keyboard-response","199","297410","0.0-4.0-6.0-1.0-2.40","5d3222f5d7ca2e00161bda18","63690f60c96a0a9a64b48fbc","63691fd854f4c9fbbb0c6917","null","","null","","","","","","","","./tasks/HMM-beads/Images/WhiteBeadChoiceCorrect.png","","","","","","","","","","","","","","","","","","","","","","","",""
"image-keyboard-response","200","297749","0.0-4.0-6.0-1.0-0.41","5d3222f5d7ca2e00161bda18","63690f60c96a0a9a64b48fbc","63691fd854f4c9fbbb0c6917","333","","j","","","","","","","","./tasks/HMM-beads/Images/NewTrialWC.png","lowH","41","2","1","2","2","false","","","","","","","","","","","","","","","","",""
"image-keyboard-response","201","298069","0.0-4.0-6.0-1.0-1.41","5d3222f5d7ca2e00161bda18","63690f60c96a0a9a64b48fbc","63691fd854f4c9fbbb0c6917","null","","null","","","","","","","","./tasks/HMM-beads/Images/WhiteBeadChoice.png","","","","","","","","","","","","","","","","","","","","","","","",""
"image-keyboard-response","202","298585","0.0-4.0-6.0-1.0-2.41","5d3222f5d7ca2e00161bda18","63690f60c96a0a9a64b48fbc","63691fd854f4c9fbbb0c6917","null","","null","","","","","","","","./tasks/HMM-beads/Images/WhiteBeadChoiceWrong.png","","","","","","","","","","","","","","","","","","","","","","","",""
"image-keyboard-response","203","298951","0.0-4.0-6.0-1.0-0.42","5d3222f5d7ca2e00161bda18","63690f60c96a0a9a64b48fbc","63691fd854f4c9fbbb0c6917","364","","j","","","","","","","","./tasks/HMM-beads/Images/NewTrialBC.png","lowH","42","2","1","1","2","false","","","","","","","","","","","","","","","","",""
"image-keyboard-response","204","299266","0.0-4.0-6.0-1.0-1.42","5d3222f5d7ca2e00161bda18","63690f60c96a0a9a64b48fbc","63691fd854f4c9fbbb0c6917","null","","null","","","","","","","","./tasks/HMM-beads/Images/WhiteBeadChoice.png","","","","","","","","","","","","","","","","","","","","","","","",""
"image-keyboard-response","205","299780","0.0-4.0-6.0-1.0-2.42","5d3222f5d7ca2e00161bda18","63690f60c96a0a9a64b48fbc","63691fd854f4c9fbbb0c6917","null","","null","","","","","","","","./tasks/HMM-beads/Images/WhiteBeadChoiceWrong.png","","","","","","","","","","","","","","","","","","","","","","","",""
"image-keyboard-response","206","300017","0.0-4.0-6.0-1.0-0.43","5d3222f5d7ca2e00161bda18","63690f60c96a0a9a64b48fbc","63691fd854f4c9fbbb0c6917","236","","j","","","","","","","","./tasks/HMM-beads/Images/NewTrialBC.png","lowH","43","2","2","1","2","true","","","","","","","","","","","","","","","","",""
"image-keyboard-response","207","300336","0.0-4.0-6.0-1.0-1.43","5d3222f5d7ca2e00161bda18","63690f60c96a0a9a64b48fbc","63691fd854f4c9fbbb0c6917","null","","null","","","","","","","","./tasks/HMM-beads/Images/WhiteBeadChoice.png","","","","","","","","","","","","","","","","","","","","","","","",""
"image-keyboard-response","208","300847","0.0-4.0-6.0-1.0-2.43","5d3222f5d7ca2e00161bda18","63690f60c96a0a9a64b48fbc","63691fd854f4c9fbbb0c6917","null","","null","","","","","","","","./tasks/HMM-beads/Images/WhiteBeadChoiceCorrect.png","","","","","","","","","","","","","","","","","","","","","","","",""
"image-keyboard-response","209","301139","0.0-4.0-6.0-1.0-0.44","5d3222f5d7ca2e00161bda18","63690f60c96a0a9a64b48fbc","63691fd854f4c9fbbb0c6917","290","","j","","","","","","","","./tasks/HMM-beads/Images/NewTrialWC.png","lowH","44","2","2","2","2","true","","","","","","","","","","","","","","","","",""
"image-keyboard-response","210","301448","0.0-4.0-6.0-1.0-1.44","5d3222f5d7ca2e00161bda18","63690f60c96a0a9a64b48fbc","63691fd854f4c9fbbb0c6917","null","","null","","","","","","","","./tasks/HMM-beads/Images/WhiteBeadChoice.png","","","","","","","","","","","","","","","","","","","","","","","",""
"image-keyboard-response","211","301960","0.0-4.0-6.0-1.0-2.44","5d3222f5d7ca2e00161bda18","63690f60c96a0a9a64b48fbc","63691fd854f4c9fbbb0c6917","null","","null","","","","","","","","./tasks/HMM-beads/Images/WhiteBeadChoiceCorrect.png","","","","","","","","","","","","","","","","","","","","","","","",""
"image-keyboard-response","212","302109","0.0-4.0-6.0-1.0-0.45","5d3222f5d7ca2e00161bda18","63690f60c96a0a9a64b48fbc","63691fd854f4c9fbbb0c6917","142","","j","","","","","","","","./tasks/HMM-beads/Images/NewTrialWC.png","lowH","45","2","1","2","2","false","","","","","","","","","","","","","","","","",""
"image-keyboard-response","213","302426","0.0-4.0-6.0-1.0-1.45","5d3222f5d7ca2e00161bda18","63690f60c96a0a9a64b48fbc","63691fd854f4c9fbbb0c6917","null","","null","","","","","","","","./tasks/HMM-beads/Images/WhiteBeadChoice.png","","","","","","","","","","","","","","","","","","","","","","","",""
"image-keyboard-response","214","302940","0.0-4.0-6.0-1.0-2.45","5d3222f5d7ca2e00161bda18","63690f60c96a0a9a64b48fbc","63691fd854f4c9fbbb0c6917","null","","null","","","","","","","","./tasks/HMM-beads/Images/WhiteBeadChoiceWrong.png","","","","","","","","","","","","","","","","","","","","","","","",""
"image-keyboard-response","215","303174","0.0-4.0-6.0-1.0-0.46","5d3222f5d7ca2e00161bda18","63690f60c96a0a9a64b48fbc","63691fd854f4c9fbbb0c6917","234","","j","","","","","","","","./tasks/HMM-beads/Images/NewTrialBC.png","lowH","46","2","2","1","2","true","","","","","","","","","","","","","","","","",""
"image-keyboard-response","216","303482","0.0-4.0-6.0-1.0-1.46","5d3222f5d7ca2e00161bda18","63690f60c96a0a9a64b48fbc","63691fd854f4c9fbbb0c6917","null","","null","","","","","","","","./tasks/HMM-beads/Images/WhiteBeadChoice.png","","","","","","","","","","","","","","","","","","","","","","","",""
"image-keyboard-response","217","303991","0.0-4.0-6.0-1.0-2.46","5d3222f5d7ca2e00161bda18","63690f60c96a0a9a64b48fbc","63691fd854f4c9fbbb0c6917","null","","null","","","","","","","","./tasks/HMM-beads/Images/WhiteBeadChoiceCorrect.png","","","","","","","","","","","","","","","","","","","","","","","",""
"image-keyboard-response","218","304330","0.0-4.0-6.0-1.0-0.47","5d3222f5d7ca2e00161bda18","63690f60c96a0a9a64b48fbc","63691fd854f4c9fbbb0c6917","338","","j","","","","","","","","./tasks/HMM-beads/Images/NewTrialWC.png","lowH","47","2","2","2","2","true","","","","","","","","","","","","","","","","",""
"image-keyboard-response","219","304635","0.0-4.0-6.0-1.0-1.47","5d3222f5d7ca2e00161bda18","63690f60c96a0a9a64b48fbc","63691fd854f4c9fbbb0c6917","null","","null","","","","","","","","./tasks/HMM-beads/Images/WhiteBeadChoice.png","","","","","","","","","","","","","","","","","","","","","","","",""
"image-keyboard-response","220","305139","0.0-4.0-6.0-1.0-2.47","5d3222f5d7ca2e00161bda18","63690f60c96a0a9a64b48fbc","63691fd854f4c9fbbb0c6917","null","","null","","","","","","","","./tasks/HMM-beads/Images/WhiteBeadChoiceCorrect.png","","","","","","","","","","","","","","","","","","","","","","","",""
"image-keyboard-response","221","305403","0.0-4.0-6.0-1.0-0.48","5d3222f5d7ca2e00161bda18","63690f60c96a0a9a64b48fbc","63691fd854f4c9fbbb0c6917","263","","j","","","","","","","","./tasks/HMM-beads/Images/NewTrialWC.png","lowH","48","2","2","2","2","true","","","","","","","","","","","","","","","","",""
"image-keyboard-response","222","305708","0.0-4.0-6.0-1.0-1.48","5d3222f5d7ca2e00161bda18","63690f60c96a0a9a64b48fbc","63691fd854f4c9fbbb0c6917","null","","null","","","","","","","","./tasks/HMM-beads/Images/WhiteBeadChoice.png","","","","","","","","","","","","","","","","","","","","","","","",""
"image-keyboard-response","223","306221","0.0-4.0-6.0-1.0-2.48","5d3222f5d7ca2e00161bda18","63690f60c96a0a9a64b48fbc","63691fd854f4c9fbbb0c6917","null","","null","","","","","","","","./tasks/HMM-beads/Images/WhiteBeadChoiceCorrect.png","","","","","","","","","","","","","","","","","","","","","","","",""
"image-keyboard-response","224","306556","0.0-4.0-6.0-1.0-0.49","5d3222f5d7ca2e00161bda18","63690f60c96a0a9a64b48fbc","63691fd854f4c9fbbb0c6917","334","","j","","","","","","","","./tasks/HMM-beads/Images/NewTrialWC.png","lowH","49","2","2","2","2","true","","","","","","","","","","","","","","","","",""
"image-keyboard-response","225","306872","0.0-4.0-6.0-1.0-1.49","5d3222f5d7ca2e00161bda18","63690f60c96a0a9a64b48fbc","63691fd854f4c9fbbb0c6917","null","","null","","","","","","","","./tasks/HMM-beads/Images/WhiteBeadChoice.png","","","","","","","","","","","","","","","","","","","","","","","",""
"image-keyboard-response","226","307384","0.0-4.0-6.0-1.0-2.49","5d3222f5d7ca2e00161bda18","63690f60c96a0a9a64b48fbc","63691fd854f4c9fbbb0c6917","null","","null","","","","","","","","./tasks/HMM-beads/Images/WhiteBeadChoiceCorrect.png","","","","","","","","","","","","","","","","","","","","","","","",""
"image-keyboard-response","227","307714","0.0-4.0-6.0-1.0-0.50","5d3222f5d7ca2e00161bda18","63690f60c96a0a9a64b48fbc","63691fd854f4c9fbbb0c6917","329","","j","","","","","","","","./tasks/HMM-beads/Images/NewTrialWC.png","lowH","50","2","1","2","2","false","","","","","","","","","","","","","","","","",""
"image-keyboard-response","228","308019","0.0-4.0-6.0-1.0-1.50","5d3222f5d7ca2e00161bda18","63690f60c96a0a9a64b48fbc","63691fd854f4c9fbbb0c6917","null","","null","","","","","","","","./tasks/HMM-beads/Images/WhiteBeadChoice.png","","","","","","","","","","","","","","","","","","","","","","","",""
"image-keyboard-response","229","308524","0.0-4.0-6.0-1.0-2.50","5d3222f5d7ca2e00161bda18","63690f60c96a0a9a64b48fbc","63691fd854f4c9fbbb0c6917","null","","null","","","","","","","","./tasks/HMM-beads/Images/WhiteBeadChoiceWrong.png","","","","","","","","","","","","","","","","","","","","","","","",""
"image-keyboard-response","230","308833","0.0-4.0-6.0-1.0-0.51","5d3222f5d7ca2e00161bda18","63690f60c96a0a9a64b48fbc","63691fd854f4c9fbbb0c6917","308","","j","","","","","","","","./tasks/HMM-beads/Images/NewTrialBC.png","lowH","51","2","1","1","2","false","","","","","","","","","","","","","","","","",""
"image-keyboard-response","231","309142","0.0-4.0-6.0-1.0-1.51","5d3222f5d7ca2e00161bda18","63690f60c96a0a9a64b48fbc","63691fd854f4c9fbbb0c6917","null","","null","","","","","","","","./tasks/HMM-beads/Images/WhiteBeadChoice.png","","","","","","","","","","","","","","","","","","","","","","","",""
"image-keyboard-response","232","309653","0.0-4.0-6.0-1.0-2.51","5d3222f5d7ca2e00161bda18","63690f60c96a0a9a64b48fbc","63691fd854f4c9fbbb0c6917","null","","null","","","","","","","","./tasks/HMM-beads/Images/WhiteBeadChoiceWrong.png","","","","","","","","","","","","","","","","","","","","","","","",""
"image-keyboard-response","233","309927","0.0-4.0-6.0-1.0-0.52","5d3222f5d7ca2e00161bda18","63690f60c96a0a9a64b48fbc","63691fd854f4c9fbbb0c6917","273","","j","","","","","","","","./tasks/HMM-beads/Images/NewTrialBC.png","lowH","52","2","2","1","2","true","","","","","","","","","","","","","","","","",""
"image-keyboard-response","234","310241","0.0-4.0-6.0-1.0-1.52","5d3222f5d7ca2e00161bda18","63690f60c96a0a9a64b48fbc","63691fd854f4c9fbbb0c6917","null","","null","","","","","","","","./tasks/HMM-beads/Images/WhiteBeadChoice.png","","","","","","","","","","","","","","","","","","","","","","","",""
"image-keyboard-response","235","310743","0.0-4.0-6.0-1.0-2.52","5d3222f5d7ca2e00161bda18","63690f60c96a0a9a64b48fbc","63691fd854f4c9fbbb0c6917","null","","null","","","","","","","","./tasks/HMM-beads/Images/WhiteBeadChoiceCorrect.png","","","","","","","","","","","","","","","","","","","","","","","",""
"image-keyboard-response","236","311069","0.0-4.0-6.0-1.0-0.53","5d3222f5d7ca2e00161bda18","63690f60c96a0a9a64b48fbc","63691fd854f4c9fbbb0c6917","325","","j","","","","","","","","./tasks/HMM-beads/Images/NewTrialWC.png","lowH","53","2","2","2","2","true","","","","","","","","","","","","","","","","",""
"image-keyboard-response","237","311388","0.0-4.0-6.0-1.0-1.53","5d3222f5d7ca2e00161bda18","63690f60c96a0a9a64b48fbc","63691fd854f4c9fbbb0c6917","null","","null","","","","","","","","./tasks/HMM-beads/Images/WhiteBeadChoice.png","","","","","","","","","","","","","","","","","","","","","","","",""
"image-keyboard-response","238","311907","0.0-4.0-6.0-1.0-2.53","5d3222f5d7ca2e00161bda18","63690f60c96a0a9a64b48fbc","63691fd854f4c9fbbb0c6917","null","","null","","","","","","","","./tasks/HMM-beads/Images/WhiteBeadChoiceCorrect.png","","","","","","","","","","","","","","","","","","","","","","","",""
"image-keyboard-response","239","312217","0.0-4.0-6.0-1.0-0.54","5d3222f5d7ca2e00161bda18","63690f60c96a0a9a64b48fbc","63691fd854f4c9fbbb0c6917","310","","j","","","","","","","","./tasks/HMM-beads/Images/NewTrialWC.png","lowH","54","2","2","2","2","true","","","","","","","","","","","","","","","","",""
"image-keyboard-response","240","312526","0.0-4.0-6.0-1.0-1.54","5d3222f5d7ca2e00161bda18","63690f60c96a0a9a64b48fbc","63691fd854f4c9fbbb0c6917","null","","null","","","","","","","","./tasks/HMM-beads/Images/WhiteBeadChoice.png","","","","","","","","","","","","","","","","","","","","","","","",""
"image-keyboard-response","241","313034","0.0-4.0-6.0-1.0-2.54","5d3222f5d7ca2e00161bda18","63690f60c96a0a9a64b48fbc","63691fd854f4c9fbbb0c6917","null","","null","","","","","","","","./tasks/HMM-beads/Images/WhiteBeadChoiceCorrect.png","","","","","","","","","","","","","","","","","","","","","","","",""
"image-keyboard-response","242","313310","0.0-4.0-6.0-1.0-0.55","5d3222f5d7ca2e00161bda18","63690f60c96a0a9a64b48fbc","63691fd854f4c9fbbb0c6917","275","","j","","","","","","","","./tasks/HMM-beads/Images/NewTrialWC.png","lowH","55","2","2","2","2","true","","","","","","","","","","","","","","","","",""
"image-keyboard-response","243","313626","0.0-4.0-6.0-1.0-1.55","5d3222f5d7ca2e00161bda18","63690f60c96a0a9a64b48fbc","63691fd854f4c9fbbb0c6917","null","","null","","","","","","","","./tasks/HMM-beads/Images/WhiteBeadChoice.png","","","","","","","","","","","","","","","","","","","","","","","",""
"image-keyboard-response","244","314141","0.0-4.0-6.0-1.0-2.55","5d3222f5d7ca2e00161bda18","63690f60c96a0a9a64b48fbc","63691fd854f4c9fbbb0c6917","null","","null","","","","","","","","./tasks/HMM-beads/Images/WhiteBeadChoiceCorrect.png","","","","","","","","","","","","","","","","","","","","","","","",""
"image-keyboard-response","245","314450","0.0-4.0-6.0-1.0-0.56","5d3222f5d7ca2e00161bda18","63690f60c96a0a9a64b48fbc","63691fd854f4c9fbbb0c6917","308","","j","","","","","","","","./tasks/HMM-beads/Images/NewTrialWC.png","lowH","56","2","1","2","2","false","","","","","","","","","","","","","","","","",""
"image-keyboard-response","246","314760","0.0-4.0-6.0-1.0-1.56","5d3222f5d7ca2e00161bda18","63690f60c96a0a9a64b48fbc","63691fd854f4c9fbbb0c6917","null","","null","","","","","","","","./tasks/HMM-beads/Images/WhiteBeadChoice.png","","","","","","","","","","","","","","","","","","","","","","","",""
"image-keyboard-response","247","315273","0.0-4.0-6.0-1.0-2.56","5d3222f5d7ca2e00161bda18","63690f60c96a0a9a64b48fbc","63691fd854f4c9fbbb0c6917","null","","null","","","","","","","","./tasks/HMM-beads/Images/WhiteBeadChoiceWrong.png","","","","","","","","","","","","","","","","","","","","","","","",""
"image-keyboard-response","248","316051","0.0-4.0-6.0-1.0-0.57","5d3222f5d7ca2e00161bda18","63690f60c96a0a9a64b48fbc","63691fd854f4c9fbbb0c6917","777","","j","","","","","","","","./tasks/HMM-beads/Images/NewTrialBC.png","lowH","57","2","2","1","2","true","","","","","","","","","","","","","","","","",""
"image-keyboard-response","249","316374","0.0-4.0-6.0-1.0-1.57","5d3222f5d7ca2e00161bda18","63690f60c96a0a9a64b48fbc","63691fd854f4c9fbbb0c6917","null","","null","","","","","","","","./tasks/HMM-beads/Images/WhiteBeadChoice.png","","","","","","","","","","","","","","","","","","","","","","","",""
"image-keyboard-response","250","316891","0.0-4.0-6.0-1.0-2.57","5d3222f5d7ca2e00161bda18","63690f60c96a0a9a64b48fbc","63691fd854f4c9fbbb0c6917","null","","null","","","","","","","","./tasks/HMM-beads/Images/WhiteBeadChoiceCorrect.png","","","","","","","","","","","","","","","","","","","","","","","",""
"image-keyboard-response","251","317006","0.0-4.0-6.0-1.0-0.58","5d3222f5d7ca2e00161bda18","63690f60c96a0a9a64b48fbc","63691fd854f4c9fbbb0c6917","113","","j","","","","","","","","./tasks/HMM-beads/Images/NewTrialWC.png","lowH","58","2","1","2","2","false","","","","","","","","","","","","","","","","",""
"image-keyboard-response","252","317327","0.0-4.0-6.0-1.0-1.58","5d3222f5d7ca2e00161bda18","63690f60c96a0a9a64b48fbc","63691fd854f4c9fbbb0c6917","null","","null","","","","","","","","./tasks/HMM-beads/Images/WhiteBeadChoice.png","","","","","","","","","","","","","","","","","","","","","","","",""
"image-keyboard-response","253","317831","0.0-4.0-6.0-1.0-2.58","5d3222f5d7ca2e00161bda18","63690f60c96a0a9a64b48fbc","63691fd854f4c9fbbb0c6917","null","","null","","","","","","","","./tasks/HMM-beads/Images/WhiteBeadChoiceWrong.png","","","","","","","","","","","","","","","","","","","","","","","",""
"image-keyboard-response","254","317916","0.0-4.0-6.0-1.0-0.59","5d3222f5d7ca2e00161bda18","63690f60c96a0a9a64b48fbc","63691fd854f4c9fbbb0c6917","84","","j","","","","","","","","./tasks/HMM-beads/Images/NewTrialBC.png","lowH","59","2","1","1","2","false","","","","","","","","","","","","","","","","",""
"image-keyboard-response","255","318239","0.0-4.0-6.0-1.0-1.59","5d3222f5d7ca2e00161bda18","63690f60c96a0a9a64b48fbc","63691fd854f4c9fbbb0c6917","null","","null","","","","","","","","./tasks/HMM-beads/Images/WhiteBeadChoice.png","","","","","","","","","","","","","","","","","","","","","","","",""
"image-keyboard-response","256","318758","0.0-4.0-6.0-1.0-2.59","5d3222f5d7ca2e00161bda18","63690f60c96a0a9a64b48fbc","63691fd854f4c9fbbb0c6917","null","","null","","","","","","","","./tasks/HMM-beads/Images/WhiteBeadChoiceWrong.png","","","","","","","","","","","","","","","","","","","","","","","",""
"image-keyboard-response","257","318801","0.0-4.0-6.0-1.0-0.60","5d3222f5d7ca2e00161bda18","63690f60c96a0a9a64b48fbc","63691fd854f4c9fbbb0c6917","42","","j","","","","","","","","./tasks/HMM-beads/Images/NewTrialBC.png","lowH","60","2","2","1","2","true","","","","","","","","","","","","","","","","",""
"image-keyboard-response","258","319120","0.0-4.0-6.0-1.0-1.60","5d3222f5d7ca2e00161bda18","63690f60c96a0a9a64b48fbc","63691fd854f4c9fbbb0c6917","null","","null","","","","","","","","./tasks/HMM-beads/Images/WhiteBeadChoice.png","","","","","","","","","","","","","","","","","","","","","","","",""
"image-keyboard-response","259","319630","0.0-4.0-6.0-1.0-2.60","5d3222f5d7ca2e00161bda18","63690f60c96a0a9a64b48fbc","63691fd854f4c9fbbb0c6917","null","","null","","","","","","","","./tasks/HMM-beads/Images/WhiteBeadChoiceCorrect.png","","","","","","","","","","","","","","","","","","","","","","","",""
"image-keyboard-response","260","319980","0.0-4.0-6.0-1.0-0.61","5d3222f5d7ca2e00161bda18","63690f60c96a0a9a64b48fbc","63691fd854f4c9fbbb0c6917","348","","j","","","","","","","","./tasks/HMM-beads/Images/NewTrialWC.png","lowH","61","2","2","2","2","true","","","","","","","","","","","","","","","","",""
"image-keyboard-response","261","320294","0.0-4.0-6.0-1.0-1.61","5d3222f5d7ca2e00161bda18","63690f60c96a0a9a64b48fbc","63691fd854f4c9fbbb0c6917","null","","null","","","","","","","","./tasks/HMM-beads/Images/WhiteBeadChoice.png","","","","","","","","","","","","","","","","","","","","","","","",""
"image-keyboard-response","262","320817","0.0-4.0-6.0-1.0-2.61","5d3222f5d7ca2e00161bda18","63690f60c96a0a9a64b48fbc","63691fd854f4c9fbbb0c6917","null","","null","","","","","","","","./tasks/HMM-beads/Images/WhiteBeadChoiceCorrect.png","","","","","","","","","","","","","","","","","","","","","","","",""
"image-keyboard-response","263","321108","0.0-4.0-6.0-1.0-0.62","5d3222f5d7ca2e00161bda18","63690f60c96a0a9a64b48fbc","63691fd854f4c9fbbb0c6917","290","","j","","","","","","","","./tasks/HMM-beads/Images/NewTrialWC.png","lowH","62","2","2","2","2","true","","","","","","","","","","","","","","","","",""
"image-keyboard-response","264","321423","0.0-4.0-6.0-1.0-1.62","5d3222f5d7ca2e00161bda18","63690f60c96a0a9a64b48fbc","63691fd854f4c9fbbb0c6917","null","","null","","","","","","","","./tasks/HMM-beads/Images/WhiteBeadChoice.png","","","","","","","","","","","","","","","","","","","","","","","",""
"image-keyboard-response","265","321930","0.0-4.0-6.0-1.0-2.62","5d3222f5d7ca2e00161bda18","63690f60c96a0a9a64b48fbc","63691fd854f4c9fbbb0c6917","null","","null","","","","","","","","./tasks/HMM-beads/Images/WhiteBeadChoiceCorrect.png","","","","","","","","","","","","","","","","","","","","","","","",""
"image-keyboard-response","266","322117","0.0-4.0-6.0-1.0-0.63","5d3222f5d7ca2e00161bda18","63690f60c96a0a9a64b48fbc","63691fd854f4c9fbbb0c6917","185","","j","","","","","","","","./tasks/HMM-beads/Images/NewTrialWC.png","lowH","63","2","1","2","2","false","","","","","","","","","","","","","","","","",""
"image-keyboard-response","267","322427","0.0-4.0-6.0-1.0-1.63","5d3222f5d7ca2e00161bda18","63690f60c96a0a9a64b48fbc","63691fd854f4c9fbbb0c6917","null","","null","","","","","","","","./tasks/HMM-beads/Images/WhiteBeadChoice.png","","","","","","","","","","","","","","","","","","","","","","","",""
"image-keyboard-response","268","322943","0.0-4.0-6.0-1.0-2.63","5d3222f5d7ca2e00161bda18","63690f60c96a0a9a64b48fbc","63691fd854f4c9fbbb0c6917","null","","null","","","","","","","","./tasks/HMM-beads/Images/WhiteBeadChoiceWrong.png","","","","","","","","","","","","","","","","","","","","","","","",""
"image-keyboard-response","269","323064","0.0-4.0-6.0-1.0-0.64","5d3222f5d7ca2e00161bda18","63690f60c96a0a9a64b48fbc","63691fd854f4c9fbbb0c6917","120","","j","","","","","","","","./tasks/HMM-beads/Images/NewTrialBC.png","lowH","64","2","2","1","2","true","","","","","","","","","","","","","","","","",""
"image-keyboard-response","270","323377","0.0-4.0-6.0-1.0-1.64","5d3222f5d7ca2e00161bda18","63690f60c96a0a9a64b48fbc","63691fd854f4c9fbbb0c6917","null","","null","","","","","","","","./tasks/HMM-beads/Images/WhiteBeadChoice.png","","","","","","","","","","","","","","","","","","","","","","","",""
"image-keyboard-response","271","323895","0.0-4.0-6.0-1.0-2.64","5d3222f5d7ca2e00161bda18","63690f60c96a0a9a64b48fbc","63691fd854f4c9fbbb0c6917","null","","null","","","","","","","","./tasks/HMM-beads/Images/WhiteBeadChoiceCorrect.png","","","","","","","","","","","","","","","","","","","","","","","",""
"image-keyboard-response","272","323994","0.0-4.0-6.0-1.0-0.65","5d3222f5d7ca2e00161bda18","63690f60c96a0a9a64b48fbc","63691fd854f4c9fbbb0c6917","97","","j","","","","","","","","./tasks/HMM-beads/Images/NewTrialWC.png","lowH","65","2","2","2","2","true","","","","","","","","","","","","","","","","",""
"image-keyboard-response","273","324298","0.0-4.0-6.0-1.0-1.65","5d3222f5d7ca2e00161bda18","63690f60c96a0a9a64b48fbc","63691fd854f4c9fbbb0c6917","null","","null","","","","","","","","./tasks/HMM-beads/Images/WhiteBeadChoice.png","","","","","","","","","","","","","","","","","","","","","","","",""
"image-keyboard-response","274","324814","0.0-4.0-6.0-1.0-2.65","5d3222f5d7ca2e00161bda18","63690f60c96a0a9a64b48fbc","63691fd854f4c9fbbb0c6917","null","","null","","","","","","","","./tasks/HMM-beads/Images/WhiteBeadChoiceCorrect.png","","","","","","","","","","","","","","","","","","","","","","","",""
"image-keyboard-response","275","324924","0.0-4.0-6.0-1.0-0.66","5d3222f5d7ca2e00161bda18","63690f60c96a0a9a64b48fbc","63691fd854f4c9fbbb0c6917","108","","j","","","","","","","","./tasks/HMM-beads/Images/NewTrialWC.png","lowH","66","2","1","2","2","false","","","","","","","","","","","","","","","","",""
"image-keyboard-response","276","325229","0.0-4.0-6.0-1.0-1.66","5d3222f5d7ca2e00161bda18","63690f60c96a0a9a64b48fbc","63691fd854f4c9fbbb0c6917","null","","null","","","","","","","","./tasks/HMM-beads/Images/WhiteBeadChoice.png","","","","","","","","","","","","","","","","","","","","","","","",""
"image-keyboard-response","277","325737","0.0-4.0-6.0-1.0-2.66","5d3222f5d7ca2e00161bda18","63690f60c96a0a9a64b48fbc","63691fd854f4c9fbbb0c6917","null","","null","","","","","","","","./tasks/HMM-beads/Images/WhiteBeadChoiceWrong.png","","","","","","","","","","","","","","","","","","","","","","","",""
"image-keyboard-response","278","325787","0.0-4.0-6.0-1.0-0.67","5d3222f5d7ca2e00161bda18","63690f60c96a0a9a64b48fbc","63691fd854f4c9fbbb0c6917","49","","j","","","","","","","","./tasks/HMM-beads/Images/NewTrialBC.png","lowH","67","2","2","1","2","true","","","","","","","","","","","","","","","","",""
"image-keyboard-response","279","326105","0.0-4.0-6.0-1.0-1.67","5d3222f5d7ca2e00161bda18","63690f60c96a0a9a64b48fbc","63691fd854f4c9fbbb0c6917","null","","null","","","","","","","","./tasks/HMM-beads/Images/WhiteBeadChoice.png","","","","","","","","","","","","","","","","","","","","","","","",""
"image-keyboard-response","280","326610","0.0-4.0-6.0-1.0-2.67","5d3222f5d7ca2e00161bda18","63690f60c96a0a9a64b48fbc","63691fd854f4c9fbbb0c6917","null","","null","","","","","","","","./tasks/HMM-beads/Images/WhiteBeadChoiceCorrect.png","","","","","","","","","","","","","","","","","","","","","","","",""
"image-keyboard-response","281","326863","0.0-4.0-6.0-1.0-0.68","5d3222f5d7ca2e00161bda18","63690f60c96a0a9a64b48fbc","63691fd854f4c9fbbb0c6917","252","","j","","","","","","","","./tasks/HMM-beads/Images/NewTrialWC.png","lowH","68","2","2","2","2","true","","","","","","","","","","","","","","","","",""
"image-keyboard-response","282","327182","0.0-4.0-6.0-1.0-1.68","5d3222f5d7ca2e00161bda18","63690f60c96a0a9a64b48fbc","63691fd854f4c9fbbb0c6917","null","","null","","","","","","","","./tasks/HMM-beads/Images/WhiteBeadChoice.png","","","","","","","","","","","","","","","","","","","","","","","",""
"image-keyboard-response","283","327704","0.0-4.0-6.0-1.0-2.68","5d3222f5d7ca2e00161bda18","63690f60c96a0a9a64b48fbc","63691fd854f4c9fbbb0c6917","null","","null","","","","","","","","./tasks/HMM-beads/Images/WhiteBeadChoiceCorrect.png","","","","","","","","","","","","","","","","","","","","","","","",""
"image-keyboard-response","284","327716","0.0-4.0-6.0-1.0-0.69","5d3222f5d7ca2e00161bda18","63690f60c96a0a9a64b48fbc","63691fd854f4c9fbbb0c6917","11","","j","","","","","","","","./tasks/HMM-beads/Images/NewTrialWC.png","lowH","69","2","2","2","2","true","","","","","","","","","","","","","","","","",""
"image-keyboard-response","285","328037","0.0-4.0-6.0-1.0-1.69","5d3222f5d7ca2e00161bda18","63690f60c96a0a9a64b48fbc","63691fd854f4c9fbbb0c6917","null","","null","","","","","","","","./tasks/HMM-beads/Images/WhiteBeadChoice.png","","","","","","","","","","","","","","","","","","","","","","","",""
"image-keyboard-response","286","328545","0.0-4.0-6.0-1.0-2.69","5d3222f5d7ca2e00161bda18","63690f60c96a0a9a64b48fbc","63691fd854f4c9fbbb0c6917","null","","null","","","","","","","","./tasks/HMM-beads/Images/WhiteBeadChoiceCorrect.png","","","","","","","","","","","","","","","","","","","","","","","",""
"image-keyboard-response","287","328732","0.0-4.0-6.0-1.0-0.70","5d3222f5d7ca2e00161bda18","63690f60c96a0a9a64b48fbc","63691fd854f4c9fbbb0c6917","185","","j","","","","","","","","./tasks/HMM-beads/Images/NewTrialWC.png","lowH","70","2","2","2","2","true","","","","","","","","","","","","","","","","",""
"image-keyboard-response","288","329044","0.0-4.0-6.0-1.0-1.70","5d3222f5d7ca2e00161bda18","63690f60c96a0a9a64b48fbc","63691fd854f4c9fbbb0c6917","null","","null","","","","","","","","./tasks/HMM-beads/Images/WhiteBeadChoice.png","","","","","","","","","","","","","","","","","","","","","","","",""
"image-keyboard-response","289","329567","0.0-4.0-6.0-1.0-2.70","5d3222f5d7ca2e00161bda18","63690f60c96a0a9a64b48fbc","63691fd854f4c9fbbb0c6917","null","","null","","","","","","","","./tasks/HMM-beads/Images/WhiteBeadChoiceCorrect.png","","","","","","","","","","","","","","","","","","","","","","","",""
"image-keyboard-response","290","329717","0.0-4.0-6.0-1.0-0.71","5d3222f5d7ca2e00161bda18","63690f60c96a0a9a64b48fbc","63691fd854f4c9fbbb0c6917","148","","j","","","","","","","","./tasks/HMM-beads/Images/NewTrialWC.png","lowH","71","2","2","2","2","true","","","","","","","","","","","","","","","","",""
"image-keyboard-response","291","330029","0.0-4.0-6.0-1.0-1.71","5d3222f5d7ca2e00161bda18","63690f60c96a0a9a64b48fbc","63691fd854f4c9fbbb0c6917","null","","null","","","","","","","","./tasks/HMM-beads/Images/WhiteBeadChoice.png","","","","","","","","","","","","","","","","","","","","","","","",""
"image-keyboard-response","292","330548","0.0-4.0-6.0-1.0-2.71","5d3222f5d7ca2e00161bda18","63690f60c96a0a9a64b48fbc","63691fd854f4c9fbbb0c6917","null","","null","","","","","","","","./tasks/HMM-beads/Images/WhiteBeadChoiceCorrect.png","","","","","","","","","","","","","","","","","","","","","","","",""
"image-keyboard-response","293","330670","0.0-4.0-6.0-1.0-0.72","5d3222f5d7ca2e00161bda18","63690f60c96a0a9a64b48fbc","63691fd854f4c9fbbb0c6917","122","","j","","","","","","","","./tasks/HMM-beads/Images/NewTrialWC.png","lowH","72","2","1","2","2","false","","","","","","","","","","","","","","","","",""
"image-keyboard-response","294","330989","0.0-4.0-6.0-1.0-1.72","5d3222f5d7ca2e00161bda18","63690f60c96a0a9a64b48fbc","63691fd854f4c9fbbb0c6917","null","","null","","","","","","","","./tasks/HMM-beads/Images/WhiteBeadChoice.png","","","","","","","","","","","","","","","","","","","","","","","",""
"image-keyboard-response","295","331509","0.0-4.0-6.0-1.0-2.72","5d3222f5d7ca2e00161bda18","63690f60c96a0a9a64b48fbc","63691fd854f4c9fbbb0c6917","null","","null","","","","","","","","./tasks/HMM-beads/Images/WhiteBeadChoiceWrong.png","","","","","","","","","","","","","","","","","","","","","","","",""
"image-keyboard-response","296","331590","0.0-4.0-6.0-1.0-0.73","5d3222f5d7ca2e00161bda18","63690f60c96a0a9a64b48fbc","63691fd854f4c9fbbb0c6917","81","","j","","","","","","","","./tasks/HMM-beads/Images/NewTrialBC.png","lowH","73","2","2","1","2","true","","","","","","","","","","","","","","","","",""
"image-keyboard-response","297","331901","0.0-4.0-6.0-1.0-1.73","5d3222f5d7ca2e00161bda18","63690f60c96a0a9a64b48fbc","63691fd854f4c9fbbb0c6917","null","","null","","","","","","","","./tasks/HMM-beads/Images/WhiteBeadChoice.png","","","","","","","","","","","","","","","","","","","","","","","",""
"image-keyboard-response","298","332418","0.0-4.0-6.0-1.0-2.73","5d3222f5d7ca2e00161bda18","63690f60c96a0a9a64b48fbc","63691fd854f4c9fbbb0c6917","null","","null","","","","","","","","./tasks/HMM-beads/Images/WhiteBeadChoiceCorrect.png","","","","","","","","","","","","","","","","","","","","","","","",""
"image-keyboard-response","299","332529","0.0-4.0-6.0-1.0-0.74","5d3222f5d7ca2e00161bda18","63690f60c96a0a9a64b48fbc","63691fd854f4c9fbbb0c6917","109","","j","","","","","","","","./tasks/HMM-beads/Images/NewTrialWC.png","lowH","74","2","1","2","2","false","","","","","","","","","","","","","","","","",""
"image-keyboard-response","300","332833","0.0-4.0-6.0-1.0-1.74","5d3222f5d7ca2e00161bda18","63690f60c96a0a9a64b48fbc","63691fd854f4c9fbbb0c6917","null","","null","","","","","","","","./tasks/HMM-beads/Images/WhiteBeadChoice.png","","","","","","","","","","","","","","","","","","","","","","","",""
"image-keyboard-response","301","333350","0.0-4.0-6.0-1.0-2.74","5d3222f5d7ca2e00161bda18","63690f60c96a0a9a64b48fbc","63691fd854f4c9fbbb0c6917","null","","null","","","","","","","","./tasks/HMM-beads/Images/WhiteBeadChoiceWrong.png","","","","","","","","","","","","","","","","","","","","","","","",""
"image-keyboard-response","302","333435","0.0-4.0-6.0-1.0-0.75","5d3222f5d7ca2e00161bda18","63690f60c96a0a9a64b48fbc","63691fd854f4c9fbbb0c6917","83","","j","","","","","","","","./tasks/HMM-beads/Images/NewTrialBC.png","lowH","75","2","2","1","2","true","","","","","","","","","","","","","","","","",""
"image-keyboard-response","303","333750","0.0-4.0-6.0-1.0-1.75","5d3222f5d7ca2e00161bda18","63690f60c96a0a9a64b48fbc","63691fd854f4c9fbbb0c6917","null","","null","","","","","","","","./tasks/HMM-beads/Images/WhiteBeadChoice.png","","","","","","","","","","","","","","","","","","","","","","","",""
"image-keyboard-response","304","334267","0.0-4.0-6.0-1.0-2.75","5d3222f5d7ca2e00161bda18","63690f60c96a0a9a64b48fbc","63691fd854f4c9fbbb0c6917","null","","null","","","","","","","","./tasks/HMM-beads/Images/WhiteBeadChoiceCorrect.png","","","","","","","","","","","","","","","","","","","","","","","",""
"image-keyboard-response","305","334394","0.0-4.0-6.0-1.0-0.76","5d3222f5d7ca2e00161bda18","63690f60c96a0a9a64b48fbc","63691fd854f4c9fbbb0c6917","125","","j","","","","","","","","./tasks/HMM-beads/Images/NewTrialWC.png","lowH","76","2","1","2","2","false","","","","","","","","","","","","","","","","",""
"image-keyboard-response","306","334701","0.0-4.0-6.0-1.0-1.76","5d3222f5d7ca2e00161bda18","63690f60c96a0a9a64b48fbc","63691fd854f4c9fbbb0c6917","null","","null","","","","","","","","./tasks/HMM-beads/Images/WhiteBeadChoice.png","","","","","","","","","","","","","","","","","","","","","","","",""
"image-keyboard-response","307","335207","0.0-4.0-6.0-1.0-2.76","5d3222f5d7ca2e00161bda18","63690f60c96a0a9a64b48fbc","63691fd854f4c9fbbb0c6917","null","","null","","","","","","","","./tasks/HMM-beads/Images/WhiteBeadChoiceWrong.png","","","","","","","","","","","","","","","","","","","","","","","",""
"image-keyboard-response","308","335290","0.0-4.0-6.0-1.0-0.77","5d3222f5d7ca2e00161bda18","63690f60c96a0a9a64b48fbc","63691fd854f4c9fbbb0c6917","82","","j","","","","","","","","./tasks/HMM-beads/Images/NewTrialBC.png","lowH","77","2","2","1","2","true","","","","","","","","","","","","","","","","",""
"image-keyboard-response","309","335594","0.0-4.0-6.0-1.0-1.77","5d3222f5d7ca2e00161bda18","63690f60c96a0a9a64b48fbc","63691fd854f4c9fbbb0c6917","null","","null","","","","","","","","./tasks/HMM-beads/Images/WhiteBeadChoice.png","","","","","","","","","","","","","","","","","","","","","","","",""
"image-keyboard-response","310","336105","0.0-4.0-6.0-1.0-2.77","5d3222f5d7ca2e00161bda18","63690f60c96a0a9a64b48fbc","63691fd854f4c9fbbb0c6917","null","","null","","","","","","","","./tasks/HMM-beads/Images/WhiteBeadChoiceCorrect.png","","","","","","","","","","","","","","","","","","","","","","","",""
"image-keyboard-response","311","336170","0.0-4.0-6.0-1.0-0.78","5d3222f5d7ca2e00161bda18","63690f60c96a0a9a64b48fbc","63691fd854f4c9fbbb0c6917","64","","j","","","","","","","","./tasks/HMM-beads/Images/NewTrialWC.png","lowH","78","2","2","2","2","true","","","","","","","","","","","","","","","","",""
"image-keyboard-response","312","336485","0.0-4.0-6.0-1.0-1.78","5d3222f5d7ca2e00161bda18","63690f60c96a0a9a64b48fbc","63691fd854f4c9fbbb0c6917","null","","null","","","","","","","","./tasks/HMM-beads/Images/WhiteBeadChoice.png","","","","","","","","","","","","","","","","","","","","","","","",""
"image-keyboard-response","313","336993","0.0-4.0-6.0-1.0-2.78","5d3222f5d7ca2e00161bda18","63690f60c96a0a9a64b48fbc","63691fd854f4c9fbbb0c6917","null","","null","","","","","","","","./tasks/HMM-beads/Images/WhiteBeadChoiceCorrect.png","","","","","","","","","","","","","","","","","","","","","","","",""
"image-keyboard-response","314","337140","0.0-4.0-6.0-1.0-0.79","5d3222f5d7ca2e00161bda18","63690f60c96a0a9a64b48fbc","63691fd854f4c9fbbb0c6917","146","","j","","","","","","","","./tasks/HMM-beads/Images/NewTrialWC.png","lowH","79","2","2","2","2","true","","","","","","","","","","","","","","","","",""
"image-keyboard-response","315","337450","0.0-4.0-6.0-1.0-1.79","5d3222f5d7ca2e00161bda18","63690f60c96a0a9a64b48fbc","63691fd854f4c9fbbb0c6917","null","","null","","","","","","","","./tasks/HMM-beads/Images/WhiteBeadChoice.png","","","","","","","","","","","","","","","","","","","","","","","",""
"image-keyboard-response","316","337966","0.0-4.0-6.0-1.0-2.79","5d3222f5d7ca2e00161bda18","63690f60c96a0a9a64b48fbc","63691fd854f4c9fbbb0c6917","null","","null","","","","","","","","./tasks/HMM-beads/Images/WhiteBeadChoiceCorrect.png","","","","","","","","","","","","","","","","","","","","","","","",""
"image-keyboard-response","317","338067","0.0-4.0-6.0-1.0-0.80","5d3222f5d7ca2e00161bda18","63690f60c96a0a9a64b48fbc","63691fd854f4c9fbbb0c6917","100","","j","","","","","","","","./tasks/HMM-beads/Images/NewTrialWC.png","lowH","80","2","2","2","2","true","","","","","","","","","","","","","","","","",""
"image-keyboard-response","318","338384","0.0-4.0-6.0-1.0-1.80","5d3222f5d7ca2e00161bda18","63690f60c96a0a9a64b48fbc","63691fd854f4c9fbbb0c6917","null","","null","","","","","","","","./tasks/HMM-beads/Images/WhiteBeadChoice.png","","","","","","","","","","","","","","","","","","","","","","","",""
"image-keyboard-response","319","338907","0.0-4.0-6.0-1.0-2.80","5d3222f5d7ca2e00161bda18","63690f60c96a0a9a64b48fbc","63691fd854f4c9fbbb0c6917","null","","null","","","","","","","","./tasks/HMM-beads/Images/WhiteBeadChoiceCorrect.png","","","","","","","","","","","","","","","","","","","","","","","",""
"image-keyboard-response","320","338912","0.0-4.0-6.0-1.0-0.81","5d3222f5d7ca2e00161bda18","63690f60c96a0a9a64b48fbc","63691fd854f4c9fbbb0c6917","4","","j","","","","","","","","./tasks/HMM-beads/Images/NewTrialWC.png","lowH","81","2","2","2","2","true","","","","","","","","","","","","","","","","",""
"image-keyboard-response","321","339232","0.0-4.0-6.0-1.0-1.81","5d3222f5d7ca2e00161bda18","63690f60c96a0a9a64b48fbc","63691fd854f4c9fbbb0c6917","null","","null","","","","","","","","./tasks/HMM-beads/Images/WhiteBeadChoice.png","","","","","","","","","","","","","","","","","","","","","","","",""
