"trial_type","trial_index","time_elapsed","internal_node_id","subject_id","study_id","session_id","rt","url","response","question_order","view_history","success","timeout","failed_images","failed_audio","failed_video","stimulus","block","trial_number","jar","bead","previous_bead","choice","correct","lowH_score","highH_score","state","rewarded","state1_action","state2_visited","state1_key","state2_key","state1_rt","state2_rt","two_arm_score","total_bonus"
"pavlovia","0","1544","0.0-0.0","5c35132e48ad2900017e535e","635ab8fc87ce89828e04cd4e","635abec4b86960c1ce0b684f","","","","","","","","","","","","","","","","","","","","","","","","","","","","","",""
"external-html","1","23021","0.0-1.0-0.0","5c35132e48ad2900017e535e","635ab8fc87ce89828e04cd4e","635abec4b86960c1ce0b684f","21299","new_consent.html","","","","","","","","","","","","","","","","","","","","","","","","","","","",""
"survey-multi-choice","2","26254","0.0-1.0-1.0","5c35132e48ad2900017e535e","635ab8fc87ce89828e04cd4e","635abec4b86960c1ce0b684f","3227","","{""Q0"":""Female"",""Q1"":""Asian""}","[0,1]","","","","","","","","","","","","","","","","","","","","","","","","","",""
"survey-text","3","28860","0.0-1.0-2.0","5c35132e48ad2900017e535e","635ab8fc87ce89828e04cd4e","635abec4b86960c1ce0b684f","2600","","{""Q0"":""26""}","","","","","","","","","","","","","","","","","","","","","","","","","","",""
"instructions","4","39706","0.0-2.0","5c35132e48ad2900017e535e","635ab8fc87ce89828e04cd4e","635abec4b86960c1ce0b684f","10740","","","","[{""page_index"":0,""viewing_time"":9621},{""page_index"":1,""viewing_time"":1118}]","","","","","","","","","","","","","","","","","","","","","","","","",""
"instructions","5","40445","0.0-3.0","5c35132e48ad2900017e535e","635ab8fc87ce89828e04cd4e","635abec4b86960c1ce0b684f","739","","","","[{""page_index"":0,""viewing_time"":738}]","","","","","","","","","","","","","","","","","","","","","","","","",""
"preload","6","41994","0.0-4.0-0.0","5c35132e48ad2900017e535e","635ab8fc87ce89828e04cd4e","635abec4b86960c1ce0b684f","","","","","","true","false","[]","[]","[]","","","","","","","","","","","","","","","","","","","",""
"instructions","7","111396","0.0-4.0-1.0","5c35132e48ad2900017e535e","635ab8fc87ce89828e04cd4e","635abec4b86960c1ce0b684f","69403","","","","[{""page_index"":0,""viewing_time"":7998},{""page_index"":1,""viewing_time"":4098},{""page_index"":2,""viewing_time"":3140},{""page_index"":3,""viewing_time"":2400},{""page_index"":4,""viewing_time"":6182},{""page_index"":5,""viewing_time"":16764},{""page_index"":6,""viewing_time"":6790},{""page_index"":7,""viewing_time"":4420},{""page_index"":8,""viewing_time"":6190},{""page_index"":9,""viewing_time"":2984},{""page_index"":10,""viewing_time"":6666},{""page_index"":11,""viewing_time"":1770}]","","","","","","","","","","","","","","","","","","","","","","","","",""
"html-button-response","8","114584","0.0-4.0-2.0-0.0-0.0","5c35132e48ad2900017e535e","635ab8fc87ce89828e04cd4e","635abec4b86960c1ce0b684f","3186","","1","","","","","","","","<div align=center>Your goal is to predict…?<br><br></div>","","","","","","","","","","","","","","","","","","",""
"html-button-response","9","120797","0.0-4.0-2.0-1.0-0.0","5c35132e48ad2900017e535e","635ab8fc87ce89828e04cd4e","635abec4b86960c1ce0b684f","4722","","2","","","","","","","","<div align=center>In the jar with mostly white beads, there are ___% white beads and ___% black beads?<br><br></div>","","","","","","","","","","","","","","","","","","",""
"html-button-response","10","131833","0.0-4.0-2.0-2.0-0.0","5c35132e48ad2900017e535e","635ab8fc87ce89828e04cd4e","635abec4b86960c1ce0b684f","9839","","0","","","","","","","","<div align=center>When there is a 1% probability that the jars will switch, the next bead will most likely be drawn from the…<br><br></div>","","","","","","","","","","","","","","","","","","",""
"html-button-response","11","136525","0.0-4.0-2.0-3.0-0.0","5c35132e48ad2900017e535e","635ab8fc87ce89828e04cd4e","635abec4b86960c1ce0b684f","3565","","1","","","","","","","","<div align=center>When there is a 99% probability that the jars will switch, the next bead will most likely be drawn from the…<br><br></div>","","","","","","","","","","","","","","","","","","",""
"instructions","12","141673","0.0-4.0-3.0","5c35132e48ad2900017e535e","635ab8fc87ce89828e04cd4e","635abec4b86960c1ce0b684f","4123","","","","[{""page_index"":0,""viewing_time"":4123}]","","","","","","","","","","","","","","","","","","","","","","","","",""
"html-keyboard-response","13","145095","0.0-4.0-4.0-0.0","5c35132e48ad2900017e535e","635ab8fc87ce89828e04cd4e","635abec4b86960c1ce0b684f","3420",""," ","","","","","","","","<div align=center>In this practice block, there will be a <b>10% chance</b> that the jar on the next trial will be different from the jar on the current trial.<br><br></div>","","","","","","","","","","","","","","","","","","",""
"image-keyboard-response","14","147428","0.0-4.0-4.0-1.0-0.0","5c35132e48ad2900017e535e","635ab8fc87ce89828e04cd4e","635abec4b86960c1ce0b684f","2298","","f","","","","","","","","./tasks/HMM-beads/Images/NoChoice.png","practice","0","1","1","0","1","true","","","","","","","","","","","",""
"image-keyboard-response","15","147734","0.0-4.0-4.0-1.0-1.0","5c35132e48ad2900017e535e","635ab8fc87ce89828e04cd4e","635abec4b86960c1ce0b684f","null","","null","","","","","","","","./tasks/HMM-beads/Images/BlackBeadChoice.png","","","","","","","","","","","","","","","","","","",""
"image-keyboard-response","16","148236","0.0-4.0-4.0-1.0-2.0","5c35132e48ad2900017e535e","635ab8fc87ce89828e04cd4e","635abec4b86960c1ce0b684f","null","","null","","","","","","","","./tasks/HMM-beads/Images/BlackBeadChoiceCorrect.png","","","","","","","","","","","","","","","","","","",""
"image-keyboard-response","17","150364","0.0-4.0-4.0-1.0-0.1","5c35132e48ad2900017e535e","635ab8fc87ce89828e04cd4e","635abec4b86960c1ce0b684f","2126","","f","","","","","","","","./tasks/HMM-beads/Images/NewTrialBC.png","practice","1","1","1","1","1","true","","","","","","","","","","","",""
"image-keyboard-response","18","150675","0.0-4.0-4.0-1.0-1.1","5c35132e48ad2900017e535e","635ab8fc87ce89828e04cd4e","635abec4b86960c1ce0b684f","null","","null","","","","","","","","./tasks/HMM-beads/Images/BlackBeadChoice.png","","","","","","","","","","","","","","","","","","",""
"image-keyboard-response","19","151181","0.0-4.0-4.0-1.0-2.1","5c35132e48ad2900017e535e","635ab8fc87ce89828e04cd4e","635abec4b86960c1ce0b684f","null","","null","","","","","","","","./tasks/HMM-beads/Images/BlackBeadChoiceCorrect.png","","","","","","","","","","","","","","","","","","",""
"image-keyboard-response","20","151828","0.0-4.0-4.0-1.0-0.2","5c35132e48ad2900017e535e","635ab8fc87ce89828e04cd4e","635abec4b86960c1ce0b684f","645","","f","","","","","","","","./tasks/HMM-beads/Images/NewTrialBC.png","practice","2","1","2","1","1","false","","","","","","","","","","","",""
"image-keyboard-response","21","152133","0.0-4.0-4.0-1.0-1.2","5c35132e48ad2900017e535e","635ab8fc87ce89828e04cd4e","635abec4b86960c1ce0b684f","null","","null","","","","","","","","./tasks/HMM-beads/Images/BlackBeadChoice.png","","","","","","","","","","","","","","","","","","",""
"image-keyboard-response","22","152635","0.0-4.0-4.0-1.0-2.2","5c35132e48ad2900017e535e","635ab8fc87ce89828e04cd4e","635abec4b86960c1ce0b684f","null","","null","","","","","","","","./tasks/HMM-beads/Images/BlackBeadChoiceWrong.png","","","","","","","","","","","","","","","","","","",""
"image-keyboard-response","23","152908","0.0-4.0-4.0-1.0-0.3","5c35132e48ad2900017e535e","635ab8fc87ce89828e04cd4e","635abec4b86960c1ce0b684f","272","","j","","","","","","","","./tasks/HMM-beads/Images/NewTrialWC.png","practice","3","1","1","2","2","false","","","","","","","","","","","",""
"image-keyboard-response","24","153214","0.0-4.0-4.0-1.0-1.3","5c35132e48ad2900017e535e","635ab8fc87ce89828e04cd4e","635abec4b86960c1ce0b684f","null","","null","","","","","","","","./tasks/HMM-beads/Images/WhiteBeadChoice.png","","","","","","","","","","","","","","","","","","",""
"image-keyboard-response","25","153718","0.0-4.0-4.0-1.0-2.3","5c35132e48ad2900017e535e","635ab8fc87ce89828e04cd4e","635abec4b86960c1ce0b684f","null","","null","","","","","","","","./tasks/HMM-beads/Images/WhiteBeadChoiceWrong.png","","","","","","","","","","","","","","","","","","",""
"image-keyboard-response","26","153878","0.0-4.0-4.0-1.0-0.4","5c35132e48ad2900017e535e","635ab8fc87ce89828e04cd4e","635abec4b86960c1ce0b684f","158","","f","","","","","","","","./tasks/HMM-beads/Images/NewTrialBC.png","practice","4","1","2","1","1","false","","","","","","","","","","","",""
"image-keyboard-response","27","154180","0.0-4.0-4.0-1.0-1.4","5c35132e48ad2900017e535e","635ab8fc87ce89828e04cd4e","635abec4b86960c1ce0b684f","null","","null","","","","","","","","./tasks/HMM-beads/Images/BlackBeadChoice.png","","","","","","","","","","","","","","","","","","",""
"image-keyboard-response","28","154682","0.0-4.0-4.0-1.0-2.4","5c35132e48ad2900017e535e","635ab8fc87ce89828e04cd4e","635abec4b86960c1ce0b684f","null","","null","","","","","","","","./tasks/HMM-beads/Images/BlackBeadChoiceWrong.png","","","","","","","","","","","","","","","","","","",""
"image-keyboard-response","29","155005","0.0-4.0-4.0-1.0-0.5","5c35132e48ad2900017e535e","635ab8fc87ce89828e04cd4e","635abec4b86960c1ce0b684f","321","","j","","","","","","","","./tasks/HMM-beads/Images/NewTrialWC.png","practice","5","1","1","2","2","false","","","","","","","","","","","",""
"image-keyboard-response","30","155310","0.0-4.0-4.0-1.0-1.5","5c35132e48ad2900017e535e","635ab8fc87ce89828e04cd4e","635abec4b86960c1ce0b684f","null","","null","","","","","","","","./tasks/HMM-beads/Images/WhiteBeadChoice.png","","","","","","","","","","","","","","","","","","",""
"image-keyboard-response","31","155813","0.0-4.0-4.0-1.0-2.5","5c35132e48ad2900017e535e","635ab8fc87ce89828e04cd4e","635abec4b86960c1ce0b684f","null","","null","","","","","","","","./tasks/HMM-beads/Images/WhiteBeadChoiceWrong.png","","","","","","","","","","","","","","","","","","",""
"image-keyboard-response","32","156068","0.0-4.0-4.0-1.0-0.6","5c35132e48ad2900017e535e","635ab8fc87ce89828e04cd4e","635abec4b86960c1ce0b684f","254","","f","","","","","","","","./tasks/HMM-beads/Images/NewTrialBC.png","practice","6","1","2","1","1","false","","","","","","","","","","","",""
"image-keyboard-response","33","156378","0.0-4.0-4.0-1.0-1.6","5c35132e48ad2900017e535e","635ab8fc87ce89828e04cd4e","635abec4b86960c1ce0b684f","null","","null","","","","","","","","./tasks/HMM-beads/Images/BlackBeadChoice.png","","","","","","","","","","","","","","","","","","",""
"image-keyboard-response","34","156884","0.0-4.0-4.0-1.0-2.6","5c35132e48ad2900017e535e","635ab8fc87ce89828e04cd4e","635abec4b86960c1ce0b684f","null","","null","","","","","","","","./tasks/HMM-beads/Images/BlackBeadChoiceWrong.png","","","","","","","","","","","","","","","","","","",""
"image-keyboard-response","35","157221","0.0-4.0-4.0-1.0-0.7","5c35132e48ad2900017e535e","635ab8fc87ce89828e04cd4e","635abec4b86960c1ce0b684f","335","","f","","","","","","","","./tasks/HMM-beads/Images/NewTrialWC.png","practice","7","1","1","2","1","true","","","","","","","","","","","",""
"image-keyboard-response","36","157526","0.0-4.0-4.0-1.0-1.7","5c35132e48ad2900017e535e","635ab8fc87ce89828e04cd4e","635abec4b86960c1ce0b684f","null","","null","","","","","","","","./tasks/HMM-beads/Images/BlackBeadChoice.png","","","","","","","","","","","","","","","","","","",""
"image-keyboard-response","37","158028","0.0-4.0-4.0-1.0-2.7","5c35132e48ad2900017e535e","635ab8fc87ce89828e04cd4e","635abec4b86960c1ce0b684f","null","","null","","","","","","","","./tasks/HMM-beads/Images/BlackBeadChoiceCorrect.png","","","","","","","","","","","","","","","","","","",""
"image-keyboard-response","38","158542","0.0-4.0-4.0-1.0-0.8","5c35132e48ad2900017e535e","635ab8fc87ce89828e04cd4e","635abec4b86960c1ce0b684f","512","","j","","","","","","","","./tasks/HMM-beads/Images/NewTrialBC.png","practice","8","1","1","1","2","false","","","","","","","","","","","",""
"image-keyboard-response","39","158847","0.0-4.0-4.0-1.0-1.8","5c35132e48ad2900017e535e","635ab8fc87ce89828e04cd4e","635abec4b86960c1ce0b684f","null","","null","","","","","","","","./tasks/HMM-beads/Images/WhiteBeadChoice.png","","","","","","","","","","","","","","","","","","",""
"image-keyboard-response","40","159353","0.0-4.0-4.0-1.0-2.8","5c35132e48ad2900017e535e","635ab8fc87ce89828e04cd4e","635abec4b86960c1ce0b684f","null","","null","","","","","","","","./tasks/HMM-beads/Images/WhiteBeadChoiceWrong.png","","","","","","","","","","","","","","","","","","",""
"image-keyboard-response","41","159547","0.0-4.0-4.0-1.0-0.9","5c35132e48ad2900017e535e","635ab8fc87ce89828e04cd4e","635abec4b86960c1ce0b684f","193","","f","","","","","","","","./tasks/HMM-beads/Images/NewTrialBC.png","practice","9","2","2","1","1","false","","","","","","","","","","","",""
"image-keyboard-response","42","159856","0.0-4.0-4.0-1.0-1.9","5c35132e48ad2900017e535e","635ab8fc87ce89828e04cd4e","635abec4b86960c1ce0b684f","null","","null","","","","","","","","./tasks/HMM-beads/Images/BlackBeadChoice.png","","","","","","","","","","","","","","","","","","",""
"image-keyboard-response","43","160357","0.0-4.0-4.0-1.0-2.9","5c35132e48ad2900017e535e","635ab8fc87ce89828e04cd4e","635abec4b86960c1ce0b684f","null","","null","","","","","","","","./tasks/HMM-beads/Images/BlackBeadChoiceWrong.png","","","","","","","","","","","","","","","","","","",""
"image-keyboard-response","44","160777","0.0-4.0-4.0-1.0-0.10","5c35132e48ad2900017e535e","635ab8fc87ce89828e04cd4e","635abec4b86960c1ce0b684f","419","","j","","","","","","","","./tasks/HMM-beads/Images/NewTrialWC.png","practice","10","2","1","2","2","false","","","","","","","","","","","",""
"image-keyboard-response","45","161078","0.0-4.0-4.0-1.0-1.10","5c35132e48ad2900017e535e","635ab8fc87ce89828e04cd4e","635abec4b86960c1ce0b684f","null","","null","","","","","","","","./tasks/HMM-beads/Images/WhiteBeadChoice.png","","","","","","","","","","","","","","","","","","",""
"image-keyboard-response","46","161580","0.0-4.0-4.0-1.0-2.10","5c35132e48ad2900017e535e","635ab8fc87ce89828e04cd4e","635abec4b86960c1ce0b684f","null","","null","","","","","","","","./tasks/HMM-beads/Images/WhiteBeadChoiceWrong.png","","","","","","","","","","","","","","","","","","",""
"image-keyboard-response","47","161808","0.0-4.0-4.0-1.0-0.11","5c35132e48ad2900017e535e","635ab8fc87ce89828e04cd4e","635abec4b86960c1ce0b684f","227","","f","","","","","","","","./tasks/HMM-beads/Images/NewTrialBC.png","practice","11","2","2","1","1","false","","","","","","","","","","","",""
"image-keyboard-response","48","162115","0.0-4.0-4.0-1.0-1.11","5c35132e48ad2900017e535e","635ab8fc87ce89828e04cd4e","635abec4b86960c1ce0b684f","null","","null","","","","","","","","./tasks/HMM-beads/Images/BlackBeadChoice.png","","","","","","","","","","","","","","","","","","",""
"image-keyboard-response","49","162616","0.0-4.0-4.0-1.0-2.11","5c35132e48ad2900017e535e","635ab8fc87ce89828e04cd4e","635abec4b86960c1ce0b684f","null","","null","","","","","","","","./tasks/HMM-beads/Images/BlackBeadChoiceWrong.png","","","","","","","","","","","","","","","","","","",""
"image-keyboard-response","50","162905","0.0-4.0-4.0-1.0-0.12","5c35132e48ad2900017e535e","635ab8fc87ce89828e04cd4e","635abec4b86960c1ce0b684f","288","","j","","","","","","","","./tasks/HMM-beads/Images/NewTrialWC.png","practice","12","2","2","2","2","true","","","","","","","","","","","",""
"image-keyboard-response","51","163210","0.0-4.0-4.0-1.0-1.12","5c35132e48ad2900017e535e","635ab8fc87ce89828e04cd4e","635abec4b86960c1ce0b684f","null","","null","","","","","","","","./tasks/HMM-beads/Images/WhiteBeadChoice.png","","","","","","","","","","","","","","","","","","",""
"image-keyboard-response","52","163712","0.0-4.0-4.0-1.0-2.12","5c35132e48ad2900017e535e","635ab8fc87ce89828e04cd4e","635abec4b86960c1ce0b684f","null","","null","","","","","","","","./tasks/HMM-beads/Images/WhiteBeadChoiceCorrect.png","","","","","","","","","","","","","","","","","","",""
"image-keyboard-response","53","163967","0.0-4.0-4.0-1.0-0.13","5c35132e48ad2900017e535e","635ab8fc87ce89828e04cd4e","635abec4b86960c1ce0b684f","254","","f","","","","","","","","./tasks/HMM-beads/Images/NewTrialWC.png","practice","13","2","2","2","1","false","","","","","","","","","","","",""
"image-keyboard-response","54","164271","0.0-4.0-4.0-1.0-1.13","5c35132e48ad2900017e535e","635ab8fc87ce89828e04cd4e","635abec4b86960c1ce0b684f","null","","null","","","","","","","","./tasks/HMM-beads/Images/BlackBeadChoice.png","","","","","","","","","","","","","","","","","","",""
"image-keyboard-response","55","164775","0.0-4.0-4.0-1.0-2.13","5c35132e48ad2900017e535e","635ab8fc87ce89828e04cd4e","635abec4b86960c1ce0b684f","null","","null","","","","","","","","./tasks/HMM-beads/Images/BlackBeadChoiceWrong.png","","","","","","","","","","","","","","","","","","",""
"image-keyboard-response","56","165089","0.0-4.0-4.0-1.0-0.14","5c35132e48ad2900017e535e","635ab8fc87ce89828e04cd4e","635abec4b86960c1ce0b684f","313","","j","","","","","","","","./tasks/HMM-beads/Images/NewTrialWC.png","practice","14","2","2","2","2","true","","","","","","","","","","","",""
"image-keyboard-response","57","165391","0.0-4.0-4.0-1.0-1.14","5c35132e48ad2900017e535e","635ab8fc87ce89828e04cd4e","635abec4b86960c1ce0b684f","null","","null","","","","","","","","./tasks/HMM-beads/Images/WhiteBeadChoice.png","","","","","","","","","","","","","","","","","","",""
"image-keyboard-response","58","165894","0.0-4.0-4.0-1.0-2.14","5c35132e48ad2900017e535e","635ab8fc87ce89828e04cd4e","635abec4b86960c1ce0b684f","null","","null","","","","","","","","./tasks/HMM-beads/Images/WhiteBeadChoiceCorrect.png","","","","","","","","","","","","","","","","","","",""
"image-keyboard-response","59","166191","0.0-4.0-4.0-1.0-0.15","5c35132e48ad2900017e535e","635ab8fc87ce89828e04cd4e","635abec4b86960c1ce0b684f","296","","f","","","","","","","","./tasks/HMM-beads/Images/NewTrialWC.png","practice","15","1","1","2","1","true","","","","","","","","","","","",""
"image-keyboard-response","60","166493","0.0-4.0-4.0-1.0-1.15","5c35132e48ad2900017e535e","635ab8fc87ce89828e04cd4e","635abec4b86960c1ce0b684f","null","","null","","","","","","","","./tasks/HMM-beads/Images/BlackBeadChoice.png","","","","","","","","","","","","","","","","","","",""
"image-keyboard-response","61","166999","0.0-4.0-4.0-1.0-2.15","5c35132e48ad2900017e535e","635ab8fc87ce89828e04cd4e","635abec4b86960c1ce0b684f","null","","null","","","","","","","","./tasks/HMM-beads/Images/BlackBeadChoiceCorrect.png","","","","","","","","","","","","","","","","","","",""
"image-keyboard-response","62","167220","0.0-4.0-4.0-1.0-0.16","5c35132e48ad2900017e535e","635ab8fc87ce89828e04cd4e","635abec4b86960c1ce0b684f","220","","j","","","","","","","","./tasks/HMM-beads/Images/NewTrialBC.png","practice","16","1","2","1","2","true","","","","","","","","","","","",""
"image-keyboard-response","63","167529","0.0-4.0-4.0-1.0-1.16","5c35132e48ad2900017e535e","635ab8fc87ce89828e04cd4e","635abec4b86960c1ce0b684f","null","","null","","","","","","","","./tasks/HMM-beads/Images/WhiteBeadChoice.png","","","","","","","","","","","","","","","","","","",""
"image-keyboard-response","64","168031","0.0-4.0-4.0-1.0-2.16","5c35132e48ad2900017e535e","635ab8fc87ce89828e04cd4e","635abec4b86960c1ce0b684f","null","","null","","","","","","","","./tasks/HMM-beads/Images/WhiteBeadChoiceCorrect.png","","","","","","","","","","","","","","","","","","",""
"image-keyboard-response","65","168329","0.0-4.0-4.0-1.0-0.17","5c35132e48ad2900017e535e","635ab8fc87ce89828e04cd4e","635abec4b86960c1ce0b684f","297","","f","","","","","","","","./tasks/HMM-beads/Images/NewTrialWC.png","practice","17","1","1","2","1","true","","","","","","","","","","","",""
"image-keyboard-response","66","168633","0.0-4.0-4.0-1.0-1.17","5c35132e48ad2900017e535e","635ab8fc87ce89828e04cd4e","635abec4b86960c1ce0b684f","null","","null","","","","","","","","./tasks/HMM-beads/Images/BlackBeadChoice.png","","","","","","","","","","","","","","","","","","",""
"image-keyboard-response","67","169139","0.0-4.0-4.0-1.0-2.17","5c35132e48ad2900017e535e","635ab8fc87ce89828e04cd4e","635abec4b86960c1ce0b684f","null","","null","","","","","","","","./tasks/HMM-beads/Images/BlackBeadChoiceCorrect.png","","","","","","","","","","","","","","","","","","",""
"image-keyboard-response","68","169472","0.0-4.0-4.0-1.0-0.18","5c35132e48ad2900017e535e","635ab8fc87ce89828e04cd4e","635abec4b86960c1ce0b684f","332","","j","","","","","","","","./tasks/HMM-beads/Images/NewTrialBC.png","practice","18","1","1","1","2","false","","","","","","","","","","","",""
"image-keyboard-response","69","169779","0.0-4.0-4.0-1.0-1.18","5c35132e48ad2900017e535e","635ab8fc87ce89828e04cd4e","635abec4b86960c1ce0b684f","null","","null","","","","","","","","./tasks/HMM-beads/Images/WhiteBeadChoice.png","","","","","","","","","","","","","","","","","","",""
"image-keyboard-response","70","170284","0.0-4.0-4.0-1.0-2.18","5c35132e48ad2900017e535e","635ab8fc87ce89828e04cd4e","635abec4b86960c1ce0b684f","null","","null","","","","","","","","./tasks/HMM-beads/Images/WhiteBeadChoiceWrong.png","","","","","","","","","","","","","","","","","","",""
"image-keyboard-response","71","170309","0.0-4.0-4.0-1.0-0.19","5c35132e48ad2900017e535e","635ab8fc87ce89828e04cd4e","635abec4b86960c1ce0b684f","24","","f","","","","","","","","./tasks/HMM-beads/Images/NewTrialBC.png","practice","19","1","1","1","1","true","","","","","","","","","","","",""
"image-keyboard-response","72","170611","0.0-4.0-4.0-1.0-1.19","5c35132e48ad2900017e535e","635ab8fc87ce89828e04cd4e","635abec4b86960c1ce0b684f","null","","null","","","","","","","","./tasks/HMM-beads/Images/BlackBeadChoice.png","","","","","","","","","","","","","","","","","","",""
"image-keyboard-response","73","171117","0.0-4.0-4.0-1.0-2.19","5c35132e48ad2900017e535e","635ab8fc87ce89828e04cd4e","635abec4b86960c1ce0b684f","null","","null","","","","","","","","./tasks/HMM-beads/Images/BlackBeadChoiceCorrect.png","","","","","","","","","","","","","","","","","","",""
"html-keyboard-response","74","173947","0.0-4.0-4.0-2.0","5c35132e48ad2900017e535e","635ab8fc87ce89828e04cd4e","635abec4b86960c1ce0b684f","2815",""," ","","","","","","","","","","","","","","","","","","","","","","","","","","",""
"instructions","75","182169","0.0-4.0-5.0","5c35132e48ad2900017e535e","635ab8fc87ce89828e04cd4e","635abec4b86960c1ce0b684f","8221","","","","[{""page_index"":0,""viewing_time"":5798},{""page_index"":1,""viewing_time"":2423}]","","","","","","","","","","","","","","","","","","","","","","","","",""
"html-keyboard-response","76","183059","0.0-4.0-6.0-0.0","5c35132e48ad2900017e535e","635ab8fc87ce89828e04cd4e","635abec4b86960c1ce0b684f","883",""," ","","","","","","","","<div align=center>In this block, there will be a <b>1% chance</b> that the jar on the next trial will be different from the jar on the current trial.<br><br></div>","","","","","","","","","","","","","","","","","","",""
"image-keyboard-response","77","183826","0.0-4.0-6.0-1.0-0.0","5c35132e48ad2900017e535e","635ab8fc87ce89828e04cd4e","635abec4b86960c1ce0b684f","766","","f","","","","","","","","./tasks/HMM-beads/Images/NoChoice.png","lowH","0","2","2","0","1","false","","","","","","","","","","","",""
"image-keyboard-response","78","184131","0.0-4.0-6.0-1.0-1.0","5c35132e48ad2900017e535e","635ab8fc87ce89828e04cd4e","635abec4b86960c1ce0b684f","null","","null","","","","","","","","./tasks/HMM-beads/Images/BlackBeadChoice.png","","","","","","","","","","","","","","","","","","",""
"image-keyboard-response","79","184634","0.0-4.0-6.0-1.0-2.0","5c35132e48ad2900017e535e","635ab8fc87ce89828e04cd4e","635abec4b86960c1ce0b684f","null","","null","","","","","","","","./tasks/HMM-beads/Images/BlackBeadChoiceWrong.png","","","","","","","","","","","","","","","","","","",""
"image-keyboard-response","80","184995","0.0-4.0-6.0-1.0-0.1","5c35132e48ad2900017e535e","635ab8fc87ce89828e04cd4e","635abec4b86960c1ce0b684f","360","","f","","","","","","","","./tasks/HMM-beads/Images/NewTrialWC.png","lowH","1","2","2","2","1","false","","","","","","","","","","","",""
"image-keyboard-response","81","185297","0.0-4.0-6.0-1.0-1.1","5c35132e48ad2900017e535e","635ab8fc87ce89828e04cd4e","635abec4b86960c1ce0b684f","null","","null","","","","","","","","./tasks/HMM-beads/Images/BlackBeadChoice.png","","","","","","","","","","","","","","","","","","",""
"image-keyboard-response","82","185799","0.0-4.0-6.0-1.0-2.1","5c35132e48ad2900017e535e","635ab8fc87ce89828e04cd4e","635abec4b86960c1ce0b684f","null","","null","","","","","","","","./tasks/HMM-beads/Images/BlackBeadChoiceWrong.png","","","","","","","","","","","","","","","","","","",""
"image-keyboard-response","83","185858","0.0-4.0-6.0-1.0-0.2","5c35132e48ad2900017e535e","635ab8fc87ce89828e04cd4e","635abec4b86960c1ce0b684f","58","","f","","","","","","","","./tasks/HMM-beads/Images/NewTrialWC.png","lowH","2","2","2","2","1","false","","","","","","","","","","","",""
"image-keyboard-response","84","186162","0.0-4.0-6.0-1.0-1.2","5c35132e48ad2900017e535e","635ab8fc87ce89828e04cd4e","635abec4b86960c1ce0b684f","null","","null","","","","","","","","./tasks/HMM-beads/Images/BlackBeadChoice.png","","","","","","","","","","","","","","","","","","",""
"image-keyboard-response","85","186664","0.0-4.0-6.0-1.0-2.2","5c35132e48ad2900017e535e","635ab8fc87ce89828e04cd4e","635abec4b86960c1ce0b684f","null","","null","","","","","","","","./tasks/HMM-beads/Images/BlackBeadChoiceWrong.png","","","","","","","","","","","","","","","","","","",""
"image-keyboard-response","86","187423","0.0-4.0-6.0-1.0-0.3","5c35132e48ad2900017e535e","635ab8fc87ce89828e04cd4e","635abec4b86960c1ce0b684f","759","","j","","","","","","","","./tasks/HMM-beads/Images/NewTrialWC.png","lowH","3","2","2","2","2","true","","","","","","","","","","","",""
"image-keyboard-response","87","187729","0.0-4.0-6.0-1.0-1.3","5c35132e48ad2900017e535e","635ab8fc87ce89828e04cd4e","635abec4b86960c1ce0b684f","null","","null","","","","","","","","./tasks/HMM-beads/Images/WhiteBeadChoice.png","","","","","","","","","","","","","","","","","","",""
"image-keyboard-response","88","188233","0.0-4.0-6.0-1.0-2.3","5c35132e48ad2900017e535e","635ab8fc87ce89828e04cd4e","635abec4b86960c1ce0b684f","null","","null","","","","","","","","./tasks/HMM-beads/Images/WhiteBeadChoiceCorrect.png","","","","","","","","","","","","","","","","","","",""
"image-keyboard-response","89","188502","0.0-4.0-6.0-1.0-0.4","5c35132e48ad2900017e535e","635ab8fc87ce89828e04cd4e","635abec4b86960c1ce0b684f","268","","f","","","","","","","","./tasks/HMM-beads/Images/NewTrialWC.png","lowH","4","2","1","2","1","true","","","","","","","","","","","",""
"image-keyboard-response","90","188806","0.0-4.0-6.0-1.0-1.4","5c35132e48ad2900017e535e","635ab8fc87ce89828e04cd4e","635abec4b86960c1ce0b684f","null","","null","","","","","","","","./tasks/HMM-beads/Images/BlackBeadChoice.png","","","","","","","","","","","","","","","","","","",""
"image-keyboard-response","91","189311","0.0-4.0-6.0-1.0-2.4","5c35132e48ad2900017e535e","635ab8fc87ce89828e04cd4e","635abec4b86960c1ce0b684f","null","","null","","","","","","","","./tasks/HMM-beads/Images/BlackBeadChoiceCorrect.png","","","","","","","","","","","","","","","","","","",""
"image-keyboard-response","92","189952","0.0-4.0-6.0-1.0-0.5","5c35132e48ad2900017e535e","635ab8fc87ce89828e04cd4e","635abec4b86960c1ce0b684f","640","","j","","","","","","","","./tasks/HMM-beads/Images/NewTrialBC.png","lowH","5","2","2","1","2","true","","","","","","","","","","","",""
"image-keyboard-response","93","190258","0.0-4.0-6.0-1.0-1.5","5c35132e48ad2900017e535e","635ab8fc87ce89828e04cd4e","635abec4b86960c1ce0b684f","null","","null","","","","","","","","./tasks/HMM-beads/Images/WhiteBeadChoice.png","","","","","","","","","","","","","","","","","","",""
"image-keyboard-response","94","190764","0.0-4.0-6.0-1.0-2.5","5c35132e48ad2900017e535e","635ab8fc87ce89828e04cd4e","635abec4b86960c1ce0b684f","null","","null","","","","","","","","./tasks/HMM-beads/Images/WhiteBeadChoiceCorrect.png","","","","","","","","","","","","","","","","","","",""
"image-keyboard-response","95","191046","0.0-4.0-6.0-1.0-0.6","5c35132e48ad2900017e535e","635ab8fc87ce89828e04cd4e","635abec4b86960c1ce0b684f","281","","f","","","","","","","","./tasks/HMM-beads/Images/NewTrialWC.png","lowH","6","2","2","2","1","false","","","","","","","","","","","",""
"image-keyboard-response","96","191349","0.0-4.0-6.0-1.0-1.6","5c35132e48ad2900017e535e","635ab8fc87ce89828e04cd4e","635abec4b86960c1ce0b684f","null","","null","","","","","","","","./tasks/HMM-beads/Images/BlackBeadChoice.png","","","","","","","","","","","","","","","","","","",""
"image-keyboard-response","97","191853","0.0-4.0-6.0-1.0-2.6","5c35132e48ad2900017e535e","635ab8fc87ce89828e04cd4e","635abec4b86960c1ce0b684f","null","","null","","","","","","","","./tasks/HMM-beads/Images/BlackBeadChoiceWrong.png","","","","","","","","","","","","","","","","","","",""
"image-keyboard-response","98","191923","0.0-4.0-6.0-1.0-0.7","5c35132e48ad2900017e535e","635ab8fc87ce89828e04cd4e","635abec4b86960c1ce0b684f","68","","f","","","","","","","","./tasks/HMM-beads/Images/NewTrialWC.png","lowH","7","2","2","2","1","false","","","","","","","","","","","",""
"image-keyboard-response","99","192229","0.0-4.0-6.0-1.0-1.7","5c35132e48ad2900017e535e","635ab8fc87ce89828e04cd4e","635abec4b86960c1ce0b684f","null","","null","","","","","","","","./tasks/HMM-beads/Images/BlackBeadChoice.png","","","","","","","","","","","","","","","","","","",""
"image-keyboard-response","100","192736","0.0-4.0-6.0-1.0-2.7","5c35132e48ad2900017e535e","635ab8fc87ce89828e04cd4e","635abec4b86960c1ce0b684f","null","","null","","","","","","","","./tasks/HMM-beads/Images/BlackBeadChoiceWrong.png","","","","","","","","","","","","","","","","","","",""
"image-keyboard-response","101","193024","0.0-4.0-6.0-1.0-0.8","5c35132e48ad2900017e535e","635ab8fc87ce89828e04cd4e","635abec4b86960c1ce0b684f","287","","f","","","","","","","","./tasks/HMM-beads/Images/NewTrialWC.png","lowH","8","2","2","2","1","false","","","","","","","","","","","",""
"image-keyboard-response","102","193326","0.0-4.0-6.0-1.0-1.8","5c35132e48ad2900017e535e","635ab8fc87ce89828e04cd4e","635abec4b86960c1ce0b684f","null","","null","","","","","","","","./tasks/HMM-beads/Images/BlackBeadChoice.png","","","","","","","","","","","","","","","","","","",""
"image-keyboard-response","103","193829","0.0-4.0-6.0-1.0-2.8","5c35132e48ad2900017e535e","635ab8fc87ce89828e04cd4e","635abec4b86960c1ce0b684f","null","","null","","","","","","","","./tasks/HMM-beads/Images/BlackBeadChoiceWrong.png","","","","","","","","","","","","","","","","","","",""
"image-keyboard-response","104","193978","0.0-4.0-6.0-1.0-0.9","5c35132e48ad2900017e535e","635ab8fc87ce89828e04cd4e","635abec4b86960c1ce0b684f","148","","j","","","","","","","","./tasks/HMM-beads/Images/NewTrialWC.png","lowH","9","2","2","2","2","true","","","","","","","","","","","",""
"image-keyboard-response","105","194281","0.0-4.0-6.0-1.0-1.9","5c35132e48ad2900017e535e","635ab8fc87ce89828e04cd4e","635abec4b86960c1ce0b684f","null","","null","","","","","","","","./tasks/HMM-beads/Images/WhiteBeadChoice.png","","","","","","","","","","","","","","","","","","",""
"image-keyboard-response","106","194783","0.0-4.0-6.0-1.0-2.9","5c35132e48ad2900017e535e","635ab8fc87ce89828e04cd4e","635abec4b86960c1ce0b684f","null","","null","","","","","","","","./tasks/HMM-beads/Images/WhiteBeadChoiceCorrect.png","","","","","","","","","","","","","","","","","","",""
"image-keyboard-response","107","194827","0.0-4.0-6.0-1.0-0.10","5c35132e48ad2900017e535e","635ab8fc87ce89828e04cd4e","635abec4b86960c1ce0b684f","44","","j","","","","","","","","./tasks/HMM-beads/Images/NewTrialWC.png","lowH","10","2","2","2","2","true","","","","","","","","","","","",""
"image-keyboard-response","108","195129","0.0-4.0-6.0-1.0-1.10","5c35132e48ad2900017e535e","635ab8fc87ce89828e04cd4e","635abec4b86960c1ce0b684f","null","","null","","","","","","","","./tasks/HMM-beads/Images/WhiteBeadChoice.png","","","","","","","","","","","","","","","","","","",""
"image-keyboard-response","109","195633","0.0-4.0-6.0-1.0-2.10","5c35132e48ad2900017e535e","635ab8fc87ce89828e04cd4e","635abec4b86960c1ce0b684f","null","","null","","","","","","","","./tasks/HMM-beads/Images/WhiteBeadChoiceCorrect.png","","","","","","","","","","","","","","","","","","",""
"image-keyboard-response","110","195706","0.0-4.0-6.0-1.0-0.11","5c35132e48ad2900017e535e","635ab8fc87ce89828e04cd4e","635abec4b86960c1ce0b684f","72","","j","","","","","","","","./tasks/HMM-beads/Images/NewTrialWC.png","lowH","11","2","2","2","2","true","","","","","","","","","","","",""
"image-keyboard-response","111","196011","0.0-4.0-6.0-1.0-1.11","5c35132e48ad2900017e535e","635ab8fc87ce89828e04cd4e","635abec4b86960c1ce0b684f","null","","null","","","","","","","","./tasks/HMM-beads/Images/WhiteBeadChoice.png","","","","","","","","","","","","","","","","","","",""
"image-keyboard-response","112","196514","0.0-4.0-6.0-1.0-2.11","5c35132e48ad2900017e535e","635ab8fc87ce89828e04cd4e","635abec4b86960c1ce0b684f","null","","null","","","","","","","","./tasks/HMM-beads/Images/WhiteBeadChoiceCorrect.png","","","","","","","","","","","","","","","","","","",""
"image-keyboard-response","113","196675","0.0-4.0-6.0-1.0-0.12","5c35132e48ad2900017e535e","635ab8fc87ce89828e04cd4e","635abec4b86960c1ce0b684f","160","","f","","","","","","","","./tasks/HMM-beads/Images/NewTrialWC.png","lowH","12","2","2","2","1","false","","","","","","","","","","","",""
"image-keyboard-response","114","196979","0.0-4.0-6.0-1.0-1.12","5c35132e48ad2900017e535e","635ab8fc87ce89828e04cd4e","635abec4b86960c1ce0b684f","null","","null","","","","","","","","./tasks/HMM-beads/Images/BlackBeadChoice.png","","","","","","","","","","","","","","","","","","",""
"image-keyboard-response","115","197483","0.0-4.0-6.0-1.0-2.12","5c35132e48ad2900017e535e","635ab8fc87ce89828e04cd4e","635abec4b86960c1ce0b684f","null","","null","","","","","","","","./tasks/HMM-beads/Images/BlackBeadChoiceWrong.png","","","","","","","","","","","","","","","","","","",""
"image-keyboard-response","116","197785","0.0-4.0-6.0-1.0-0.13","5c35132e48ad2900017e535e","635ab8fc87ce89828e04cd4e","635abec4b86960c1ce0b684f","302","","j","","","","","","","","./tasks/HMM-beads/Images/NewTrialWC.png","lowH","13","2","2","2","2","true","","","","","","","","","","","",""
"image-keyboard-response","117","198089","0.0-4.0-6.0-1.0-1.13","5c35132e48ad2900017e535e","635ab8fc87ce89828e04cd4e","635abec4b86960c1ce0b684f","null","","null","","","","","","","","./tasks/HMM-beads/Images/WhiteBeadChoice.png","","","","","","","","","","","","","","","","","","",""
"image-keyboard-response","118","198593","0.0-4.0-6.0-1.0-2.13","5c35132e48ad2900017e535e","635ab8fc87ce89828e04cd4e","635abec4b86960c1ce0b684f","null","","null","","","","","","","","./tasks/HMM-beads/Images/WhiteBeadChoiceCorrect.png","","","","","","","","","","","","","","","","","","",""
"image-keyboard-response","119","198663","0.0-4.0-6.0-1.0-0.14","5c35132e48ad2900017e535e","635ab8fc87ce89828e04cd4e","635abec4b86960c1ce0b684f","69","","f","","","","","","","","./tasks/HMM-beads/Images/NewTrialWC.png","lowH","14","2","2","2","1","false","","","","","","","","","","","",""
"image-keyboard-response","120","198965","0.0-4.0-6.0-1.0-1.14","5c35132e48ad2900017e535e","635ab8fc87ce89828e04cd4e","635abec4b86960c1ce0b684f","null","","null","","","","","","","","./tasks/HMM-beads/Images/BlackBeadChoice.png","","","","","","","","","","","","","","","","","","",""
"image-keyboard-response","121","199467","0.0-4.0-6.0-1.0-2.14","5c35132e48ad2900017e535e","635ab8fc87ce89828e04cd4e","635abec4b86960c1ce0b684f","null","","null","","","","","","","","./tasks/HMM-beads/Images/BlackBeadChoiceWrong.png","","","","","","","","","","","","","","","","","","",""
"image-keyboard-response","122","199671","0.0-4.0-6.0-1.0-0.15","5c35132e48ad2900017e535e","635ab8fc87ce89828e04cd4e","635abec4b86960c1ce0b684f","203","","f","","","","","","","","./tasks/HMM-beads/Images/NewTrialWC.png","lowH","15","2","1","2","1","true","","","","","","","","","","","",""
"image-keyboard-response","123","199974","0.0-4.0-6.0-1.0-1.15","5c35132e48ad2900017e535e","635ab8fc87ce89828e04cd4e","635abec4b86960c1ce0b684f","null","","null","","","","","","","","./tasks/HMM-beads/Images/BlackBeadChoice.png","","","","","","","","","","","","","","","","","","",""
"image-keyboard-response","124","200476","0.0-4.0-6.0-1.0-2.15","5c35132e48ad2900017e535e","635ab8fc87ce89828e04cd4e","635abec4b86960c1ce0b684f","null","","null","","","","","","","","./tasks/HMM-beads/Images/BlackBeadChoiceCorrect.png","","","","","","","","","","","","","","","","","","",""
"image-keyboard-response","125","200503","0.0-4.0-6.0-1.0-0.16","5c35132e48ad2900017e535e","635ab8fc87ce89828e04cd4e","635abec4b86960c1ce0b684f","25","","f","","","","","","","","./tasks/HMM-beads/Images/NewTrialBC.png","lowH","16","2","1","1","1","true","","","","","","","","","","","",""
"image-keyboard-response","126","200805","0.0-4.0-6.0-1.0-1.16","5c35132e48ad2900017e535e","635ab8fc87ce89828e04cd4e","635abec4b86960c1ce0b684f","null","","null","","","","","","","","./tasks/HMM-beads/Images/BlackBeadChoice.png","","","","","","","","","","","","","","","","","","",""
"image-keyboard-response","127","201309","0.0-4.0-6.0-1.0-2.16","5c35132e48ad2900017e535e","635ab8fc87ce89828e04cd4e","635abec4b86960c1ce0b684f","null","","null","","","","","","","","./tasks/HMM-beads/Images/BlackBeadChoiceCorrect.png","","","","","","","","","","","","","","","","","","",""
"image-keyboard-response","128","201428","0.0-4.0-6.0-1.0-0.17","5c35132e48ad2900017e535e","635ab8fc87ce89828e04cd4e","635abec4b86960c1ce0b684f","118","","j","","","","","","","","./tasks/HMM-beads/Images/NewTrialBC.png","lowH","17","2","2","1","2","true","","","","","","","","","","","",""
"image-keyboard-response","129","201732","0.0-4.0-6.0-1.0-1.17","5c35132e48ad2900017e535e","635ab8fc87ce89828e04cd4e","635abec4b86960c1ce0b684f","null","","null","","","","","","","","./tasks/HMM-beads/Images/WhiteBeadChoice.png","","","","","","","","","","","","","","","","","","",""
"image-keyboard-response","130","202238","0.0-4.0-6.0-1.0-2.17","5c35132e48ad2900017e535e","635ab8fc87ce89828e04cd4e","635abec4b86960c1ce0b684f","null","","null","","","","","","","","./tasks/HMM-beads/Images/WhiteBeadChoiceCorrect.png","","","","","","","","","","","","","","","","","","",""
"image-keyboard-response","131","202500","0.0-4.0-6.0-1.0-0.18","5c35132e48ad2900017e535e","635ab8fc87ce89828e04cd4e","635abec4b86960c1ce0b684f","261","","f","","","","","","","","./tasks/HMM-beads/Images/NewTrialWC.png","lowH","18","2","2","2","1","false","","","","","","","","","","","",""
"image-keyboard-response","132","202806","0.0-4.0-6.0-1.0-1.18","5c35132e48ad2900017e535e","635ab8fc87ce89828e04cd4e","635abec4b86960c1ce0b684f","null","","null","","","","","","","","./tasks/HMM-beads/Images/BlackBeadChoice.png","","","","","","","","","","","","","","","","","","",""
"image-keyboard-response","133","203308","0.0-4.0-6.0-1.0-2.18","5c35132e48ad2900017e535e","635ab8fc87ce89828e04cd4e","635abec4b86960c1ce0b684f","null","","null","","","","","","","","./tasks/HMM-beads/Images/BlackBeadChoiceWrong.png","","","","","","","","","","","","","","","","","","",""
"image-keyboard-response","134","203482","0.0-4.0-6.0-1.0-0.19","5c35132e48ad2900017e535e","635ab8fc87ce89828e04cd4e","635abec4b86960c1ce0b684f","172","","f","","","","","","","","./tasks/HMM-beads/Images/NewTrialWC.png","lowH","19","2","2","2","1","false","","","","","","","","","","","",""
"image-keyboard-response","135","203788","0.0-4.0-6.0-1.0-1.19","5c35132e48ad2900017e535e","635ab8fc87ce89828e04cd4e","635abec4b86960c1ce0b684f","null","","null","","","","","","","","./tasks/HMM-beads/Images/BlackBeadChoice.png","","","","","","","","","","","","","","","","","","",""
"image-keyboard-response","136","204294","0.0-4.0-6.0-1.0-2.19","5c35132e48ad2900017e535e","635ab8fc87ce89828e04cd4e","635abec4b86960c1ce0b684f","null","","null","","","","","","","","./tasks/HMM-beads/Images/BlackBeadChoiceWrong.png","","","","","","","","","","","","","","","","","","",""
"image-keyboard-response","137","204305","0.0-4.0-6.0-1.0-0.20","5c35132e48ad2900017e535e","635ab8fc87ce89828e04cd4e","635abec4b86960c1ce0b684f","11","","f","","","","","","","","./tasks/HMM-beads/Images/NewTrialWC.png","lowH","20","2","2","2","1","false","","","","","","","","","","","",""
"image-keyboard-response","138","204607","0.0-4.0-6.0-1.0-1.20","5c35132e48ad2900017e535e","635ab8fc87ce89828e04cd4e","635abec4b86960c1ce0b684f","null","","null","","","","","","","","./tasks/HMM-beads/Images/BlackBeadChoice.png","","","","","","","","","","","","","","","","","","",""
"image-keyboard-response","139","205119","0.0-4.0-6.0-1.0-2.20","5c35132e48ad2900017e535e","635ab8fc87ce89828e04cd4e","635abec4b86960c1ce0b684f","null","","null","","","","","","","","./tasks/HMM-beads/Images/BlackBeadChoiceWrong.png","","","","","","","","","","","","","","","","","","",""
"image-keyboard-response","140","205468","0.0-4.0-6.0-1.0-0.21","5c35132e48ad2900017e535e","635ab8fc87ce89828e04cd4e","635abec4b86960c1ce0b684f","348","","j","","","","","","","","./tasks/HMM-beads/Images/NewTrialWC.png","lowH","21","2","2","2","2","true","","","","","","","","","","","",""
"image-keyboard-response","141","205772","0.0-4.0-6.0-1.0-1.21","5c35132e48ad2900017e535e","635ab8fc87ce89828e04cd4e","635abec4b86960c1ce0b684f","null","","null","","","","","","","","./tasks/HMM-beads/Images/WhiteBeadChoice.png","","","","","","","","","","","","","","","","","","",""
"image-keyboard-response","142","206276","0.0-4.0-6.0-1.0-2.21","5c35132e48ad2900017e535e","635ab8fc87ce89828e04cd4e","635abec4b86960c1ce0b684f","null","","null","","","","","","","","./tasks/HMM-beads/Images/WhiteBeadChoiceCorrect.png","","","","","","","","","","","","","","","","","","",""
"image-keyboard-response","143","206378","0.0-4.0-6.0-1.0-0.22","5c35132e48ad2900017e535e","635ab8fc87ce89828e04cd4e","635abec4b86960c1ce0b684f","101","","j","","","","","","","","./tasks/HMM-beads/Images/NewTrialWC.png","lowH","22","2","2","2","2","true","","","","","","","","","","","",""
"image-keyboard-response","144","206680","0.0-4.0-6.0-1.0-1.22","5c35132e48ad2900017e535e","635ab8fc87ce89828e04cd4e","635abec4b86960c1ce0b684f","null","","null","","","","","","","","./tasks/HMM-beads/Images/WhiteBeadChoice.png","","","","","","","","","","","","","","","","","","",""
"image-keyboard-response","145","207182","0.0-4.0-6.0-1.0-2.22","5c35132e48ad2900017e535e","635ab8fc87ce89828e04cd4e","635abec4b86960c1ce0b684f","null","","null","","","","","","","","./tasks/HMM-beads/Images/WhiteBeadChoiceCorrect.png","","","","","","","","","","","","","","","","","","",""
"image-keyboard-response","146","207227","0.0-4.0-6.0-1.0-0.23","5c35132e48ad2900017e535e","635ab8fc87ce89828e04cd4e","635abec4b86960c1ce0b684f","44","","f","","","","","","","","./tasks/HMM-beads/Images/NewTrialWC.png","lowH","23","2","2","2","1","false","","","","","","","","","","","",""
"image-keyboard-response","147","207530","0.0-4.0-6.0-1.0-1.23","5c35132e48ad2900017e535e","635ab8fc87ce89828e04cd4e","635abec4b86960c1ce0b684f","null","","null","","","","","","","","./tasks/HMM-beads/Images/BlackBeadChoice.png","","","","","","","","","","","","","","","","","","",""
"image-keyboard-response","148","208032","0.0-4.0-6.0-1.0-2.23","5c35132e48ad2900017e535e","635ab8fc87ce89828e04cd4e","635abec4b86960c1ce0b684f","null","","null","","","","","","","","./tasks/HMM-beads/Images/BlackBeadChoiceWrong.png","","","","","","","","","","","","","","","","","","",""
"image-keyboard-response","149","208133","0.0-4.0-6.0-1.0-0.24","5c35132e48ad2900017e535e","635ab8fc87ce89828e04cd4e","635abec4b86960c1ce0b684f","100","","f","","","","","","","","./tasks/HMM-beads/Images/NewTrialWC.png","lowH","24","2","2","2","1","false","","","","","","","","","","","",""
"image-keyboard-response","150","208434","0.0-4.0-6.0-1.0-1.24","5c35132e48ad2900017e535e","635ab8fc87ce89828e04cd4e","635abec4b86960c1ce0b684f","null","","null","","","","","","","","./tasks/HMM-beads/Images/BlackBeadChoice.png","","","","","","","","","","","","","","","","","","",""
"image-keyboard-response","151","208940","0.0-4.0-6.0-1.0-2.24","5c35132e48ad2900017e535e","635ab8fc87ce89828e04cd4e","635abec4b86960c1ce0b684f","null","","null","","","","","","","","./tasks/HMM-beads/Images/BlackBeadChoiceWrong.png","","","","","","","","","","","","","","","","","","",""
"image-keyboard-response","152","208989","0.0-4.0-6.0-1.0-0.25","5c35132e48ad2900017e535e","635ab8fc87ce89828e04cd4e","635abec4b86960c1ce0b684f","48","","f","","","","","","","","./tasks/HMM-beads/Images/NewTrialWC.png","lowH","25","2","2","2","1","false","","","","","","","","","","","",""
"image-keyboard-response","153","209294","0.0-4.0-6.0-1.0-1.25","5c35132e48ad2900017e535e","635ab8fc87ce89828e04cd4e","635abec4b86960c1ce0b684f","null","","null","","","","","","","","./tasks/HMM-beads/Images/BlackBeadChoice.png","","","","","","","","","","","","","","","","","","",""
"image-keyboard-response","154","209796","0.0-4.0-6.0-1.0-2.25","5c35132e48ad2900017e535e","635ab8fc87ce89828e04cd4e","635abec4b86960c1ce0b684f","null","","null","","","","","","","","./tasks/HMM-beads/Images/BlackBeadChoiceWrong.png","","","","","","","","","","","","","","","","","","",""
"image-keyboard-response","155","209911","0.0-4.0-6.0-1.0-0.26","5c35132e48ad2900017e535e","635ab8fc87ce89828e04cd4e","635abec4b86960c1ce0b684f","115","","f","","","","","","","","./tasks/HMM-beads/Images/NewTrialWC.png","lowH","26","2","2","2","1","false","","","","","","","","","","","",""
"image-keyboard-response","156","210215","0.0-4.0-6.0-1.0-1.26","5c35132e48ad2900017e535e","635ab8fc87ce89828e04cd4e","635abec4b86960c1ce0b684f","null","","null","","","","","","","","./tasks/HMM-beads/Images/BlackBeadChoice.png","","","","","","","","","","","","","","","","","","",""
"image-keyboard-response","157","210720","0.0-4.0-6.0-1.0-2.26","5c35132e48ad2900017e535e","635ab8fc87ce89828e04cd4e","635abec4b86960c1ce0b684f","null","","null","","","","","","","","./tasks/HMM-beads/Images/BlackBeadChoiceWrong.png","","","","","","","","","","","","","","","","","","",""
"image-keyboard-response","158","210750","0.0-4.0-6.0-1.0-0.27","5c35132e48ad2900017e535e","635ab8fc87ce89828e04cd4e","635abec4b86960c1ce0b684f","29","","f","","","","","","","","./tasks/HMM-beads/Images/NewTrialWC.png","lowH","27","2","2","2","1","false","","","","","","","","","","","",""
"image-keyboard-response","159","211055","0.0-4.0-6.0-1.0-1.27","5c35132e48ad2900017e535e","635ab8fc87ce89828e04cd4e","635abec4b86960c1ce0b684f","null","","null","","","","","","","","./tasks/HMM-beads/Images/BlackBeadChoice.png","","","","","","","","","","","","","","","","","","",""
"image-keyboard-response","160","211557","0.0-4.0-6.0-1.0-2.27","5c35132e48ad2900017e535e","635ab8fc87ce89828e04cd4e","635abec4b86960c1ce0b684f","null","","null","","","","","","","","./tasks/HMM-beads/Images/BlackBeadChoiceWrong.png","","","","","","","","","","","","","","","","","","",""
"image-keyboard-response","161","211667","0.0-4.0-6.0-1.0-0.28","5c35132e48ad2900017e535e","635ab8fc87ce89828e04cd4e","635abec4b86960c1ce0b684f","109","","j","","","","","","","","./tasks/HMM-beads/Images/NewTrialWC.png","lowH","28","2","2","2","2","true","","","","","","","","","","","",""
"image-keyboard-response","162","211969","0.0-4.0-6.0-1.0-1.28","5c35132e48ad2900017e535e","635ab8fc87ce89828e04cd4e","635abec4b86960c1ce0b684f","null","","null","","","","","","","","./tasks/HMM-beads/Images/WhiteBeadChoice.png","","","","","","","","","","","","","","","","","","",""
"image-keyboard-response","163","212474","0.0-4.0-6.0-1.0-2.28","5c35132e48ad2900017e535e","635ab8fc87ce89828e04cd4e","635abec4b86960c1ce0b684f","null","","null","","","","","","","","./tasks/HMM-beads/Images/WhiteBeadChoiceCorrect.png","","","","","","","","","","","","","","","","","","",""
"image-keyboard-response","164","212589","0.0-4.0-6.0-1.0-0.29","5c35132e48ad2900017e535e","635ab8fc87ce89828e04cd4e","635abec4b86960c1ce0b684f","114","","f","","","","","","","","./tasks/HMM-beads/Images/NewTrialWC.png","lowH","29","2","1","2","1","true","","","","","","","","","","","",""
"image-keyboard-response","165","212895","0.0-4.0-6.0-1.0-1.29","5c35132e48ad2900017e535e","635ab8fc87ce89828e04cd4e","635abec4b86960c1ce0b684f","null","","null","","","","","","","","./tasks/HMM-beads/Images/BlackBeadChoice.png","","","","","","","","","","","","","","","","","","",""
"image-keyboard-response","166","213401","0.0-4.0-6.0-1.0-2.29","5c35132e48ad2900017e535e","635ab8fc87ce89828e04cd4e","635abec4b86960c1ce0b684f","null","","null","","","","","","","","./tasks/HMM-beads/Images/BlackBeadChoiceCorrect.png","","","","","","","","","","","","","","","","","","",""
"image-keyboard-response","167","213438","0.0-4.0-6.0-1.0-0.30","5c35132e48ad2900017e535e","635ab8fc87ce89828e04cd4e","635abec4b86960c1ce0b684f","36","","f","","","","","","","","./tasks/HMM-beads/Images/NewTrialBC.png","lowH","30","2","2","1","1","false","","","","","","","","","","","",""
"image-keyboard-response","168","213741","0.0-4.0-6.0-1.0-1.30","5c35132e48ad2900017e535e","635ab8fc87ce89828e04cd4e","635abec4b86960c1ce0b684f","null","","null","","","","","","","","./tasks/HMM-beads/Images/BlackBeadChoice.png","","","","","","","","","","","","","","","","","","",""
"image-keyboard-response","169","214244","0.0-4.0-6.0-1.0-2.30","5c35132e48ad2900017e535e","635ab8fc87ce89828e04cd4e","635abec4b86960c1ce0b684f","null","","null","","","","","","","","./tasks/HMM-beads/Images/BlackBeadChoiceWrong.png","","","","","","","","","","","","","","","","","","",""
"image-keyboard-response","170","214710","0.0-4.0-6.0-1.0-0.31","5c35132e48ad2900017e535e","635ab8fc87ce89828e04cd4e","635abec4b86960c1ce0b684f","465","","f","","","","","","","","./tasks/HMM-beads/Images/NewTrialWC.png","lowH","31","2","1","2","1","true","","","","","","","","","","","",""
"image-keyboard-response","171","215016","0.0-4.0-6.0-1.0-1.31","5c35132e48ad2900017e535e","635ab8fc87ce89828e04cd4e","635abec4b86960c1ce0b684f","null","","null","","","","","","","","./tasks/HMM-beads/Images/BlackBeadChoice.png","","","","","","","","","","","","","","","","","","",""
"image-keyboard-response","172","215519","0.0-4.0-6.0-1.0-2.31","5c35132e48ad2900017e535e","635ab8fc87ce89828e04cd4e","635abec4b86960c1ce0b684f","null","","null","","","","","","","","./tasks/HMM-beads/Images/BlackBeadChoiceCorrect.png","","","","","","","","","","","","","","","","","","",""
"image-keyboard-response","173","216056","0.0-4.0-6.0-1.0-0.32","5c35132e48ad2900017e535e","635ab8fc87ce89828e04cd4e","635abec4b86960c1ce0b684f","536","","j","","","","","","","","./tasks/HMM-beads/Images/NewTrialBC.png","lowH","32","2","2","1","2","true","","","","","","","","","","","",""
"image-keyboard-response","174","216357","0.0-4.0-6.0-1.0-1.32","5c35132e48ad2900017e535e","635ab8fc87ce89828e04cd4e","635abec4b86960c1ce0b684f","null","","null","","","","","","","","./tasks/HMM-beads/Images/WhiteBeadChoice.png","","","","","","","","","","","","","","","","","","",""
"image-keyboard-response","175","216861","0.0-4.0-6.0-1.0-2.32","5c35132e48ad2900017e535e","635ab8fc87ce89828e04cd4e","635abec4b86960c1ce0b684f","null","","null","","","","","","","","./tasks/HMM-beads/Images/WhiteBeadChoiceCorrect.png","","","","","","","","","","","","","","","","","","",""
"image-keyboard-response","176","217097","0.0-4.0-6.0-1.0-0.33","5c35132e48ad2900017e535e","635ab8fc87ce89828e04cd4e","635abec4b86960c1ce0b684f","234","","f","","","","","","","","./tasks/HMM-beads/Images/NewTrialWC.png","lowH","33","2","2","2","1","false","","","","","","","","","","","",""
"image-keyboard-response","177","217401","0.0-4.0-6.0-1.0-1.33","5c35132e48ad2900017e535e","635ab8fc87ce89828e04cd4e","635abec4b86960c1ce0b684f","null","","null","","","","","","","","./tasks/HMM-beads/Images/BlackBeadChoice.png","","","","","","","","","","","","","","","","","","",""
"image-keyboard-response","178","217903","0.0-4.0-6.0-1.0-2.33","5c35132e48ad2900017e535e","635ab8fc87ce89828e04cd4e","635abec4b86960c1ce0b684f","null","","null","","","","","","","","./tasks/HMM-beads/Images/BlackBeadChoiceWrong.png","","","","","","","","","","","","","","","","","","",""
"image-keyboard-response","179","218132","0.0-4.0-6.0-1.0-0.34","5c35132e48ad2900017e535e","635ab8fc87ce89828e04cd4e","635abec4b86960c1ce0b684f","228","","f","","","","","","","","./tasks/HMM-beads/Images/NewTrialWC.png","lowH","34","2","2","2","1","false","","","","","","","","","","","",""
"image-keyboard-response","180","218433","0.0-4.0-6.0-1.0-1.34","5c35132e48ad2900017e535e","635ab8fc87ce89828e04cd4e","635abec4b86960c1ce0b684f","null","","null","","","","","","","","./tasks/HMM-beads/Images/BlackBeadChoice.png","","","","","","","","","","","","","","","","","","",""
"image-keyboard-response","181","218936","0.0-4.0-6.0-1.0-2.34","5c35132e48ad2900017e535e","635ab8fc87ce89828e04cd4e","635abec4b86960c1ce0b684f","null","","null","","","","","","","","./tasks/HMM-beads/Images/BlackBeadChoiceWrong.png","","","","","","","","","","","","","","","","","","",""
"image-keyboard-response","182","219106","0.0-4.0-6.0-1.0-0.35","5c35132e48ad2900017e535e","635ab8fc87ce89828e04cd4e","635abec4b86960c1ce0b684f","169","","f","","","","","","","","./tasks/HMM-beads/Images/NewTrialWC.png","lowH","35","2","2","2","1","false","","","","","","","","","","","",""
"image-keyboard-response","183","219408","0.0-4.0-6.0-1.0-1.35","5c35132e48ad2900017e535e","635ab8fc87ce89828e04cd4e","635abec4b86960c1ce0b684f","null","","null","","","","","","","","./tasks/HMM-beads/Images/BlackBeadChoice.png","","","","","","","","","","","","","","","","","","",""
"image-keyboard-response","184","219911","0.0-4.0-6.0-1.0-2.35","5c35132e48ad2900017e535e","635ab8fc87ce89828e04cd4e","635abec4b86960c1ce0b684f","null","","null","","","","","","","","./tasks/HMM-beads/Images/BlackBeadChoiceWrong.png","","","","","","","","","","","","","","","","","","",""
"image-keyboard-response","185","220057","0.0-4.0-6.0-1.0-0.36","5c35132e48ad2900017e535e","635ab8fc87ce89828e04cd4e","635abec4b86960c1ce0b684f","145","","f","","","","","","","","./tasks/HMM-beads/Images/NewTrialWC.png","lowH","36","2","2","2","1","false","","","","","","","","","","","",""
"image-keyboard-response","186","220361","0.0-4.0-6.0-1.0-1.36","5c35132e48ad2900017e535e","635ab8fc87ce89828e04cd4e","635abec4b86960c1ce0b684f","null","","null","","","","","","","","./tasks/HMM-beads/Images/BlackBeadChoice.png","","","","","","","","","","","","","","","","","","",""
"image-keyboard-response","187","220863","0.0-4.0-6.0-1.0-2.36","5c35132e48ad2900017e535e","635ab8fc87ce89828e04cd4e","635abec4b86960c1ce0b684f","null","","null","","","","","","","","./tasks/HMM-beads/Images/BlackBeadChoiceWrong.png","","","","","","","","","","","","","","","","","","",""
"image-keyboard-response","188","221021","0.0-4.0-6.0-1.0-0.37","5c35132e48ad2900017e535e","635ab8fc87ce89828e04cd4e","635abec4b86960c1ce0b684f","156","","f","","","","","","","","./tasks/HMM-beads/Images/NewTrialWC.png","lowH","37","2","2","2","1","false","","","","","","","","","","","",""
"image-keyboard-response","189","221328","0.0-4.0-6.0-1.0-1.37","5c35132e48ad2900017e535e","635ab8fc87ce89828e04cd4e","635abec4b86960c1ce0b684f","null","","null","","","","","","","","./tasks/HMM-beads/Images/BlackBeadChoice.png","","","","","","","","","","","","","","","","","","",""
"image-keyboard-response","190","221833","0.0-4.0-6.0-1.0-2.37","5c35132e48ad2900017e535e","635ab8fc87ce89828e04cd4e","635abec4b86960c1ce0b684f","null","","null","","","","","","","","./tasks/HMM-beads/Images/BlackBeadChoiceWrong.png","","","","","","","","","","","","","","","","","","",""
"image-keyboard-response","191","221964","0.0-4.0-6.0-1.0-0.38","5c35132e48ad2900017e535e","635ab8fc87ce89828e04cd4e","635abec4b86960c1ce0b684f","130","","f","","","","","","","","./tasks/HMM-beads/Images/NewTrialWC.png","lowH","38","2","2","2","1","false","","","","","","","","","","","",""
"image-keyboard-response","192","222265","0.0-4.0-6.0-1.0-1.38","5c35132e48ad2900017e535e","635ab8fc87ce89828e04cd4e","635abec4b86960c1ce0b684f","null","","null","","","","","","","","./tasks/HMM-beads/Images/BlackBeadChoice.png","","","","","","","","","","","","","","","","","","",""
"image-keyboard-response","193","222769","0.0-4.0-6.0-1.0-2.38","5c35132e48ad2900017e535e","635ab8fc87ce89828e04cd4e","635abec4b86960c1ce0b684f","null","","null","","","","","","","","./tasks/HMM-beads/Images/BlackBeadChoiceWrong.png","","","","","","","","","","","","","","","","","","",""
"image-keyboard-response","194","222893","0.0-4.0-6.0-1.0-0.39","5c35132e48ad2900017e535e","635ab8fc87ce89828e04cd4e","635abec4b86960c1ce0b684f","123","","f","","","","","","","","./tasks/HMM-beads/Images/NewTrialWC.png","lowH","39","2","1","2","1","true","","","","","","","","","","","",""
"image-keyboard-response","195","223199","0.0-4.0-6.0-1.0-1.39","5c35132e48ad2900017e535e","635ab8fc87ce89828e04cd4e","635abec4b86960c1ce0b684f","null","","null","","","","","","","","./tasks/HMM-beads/Images/BlackBeadChoice.png","","","","","","","","","","","","","","","","","","",""
"image-keyboard-response","196","223701","0.0-4.0-6.0-1.0-2.39","5c35132e48ad2900017e535e","635ab8fc87ce89828e04cd4e","635abec4b86960c1ce0b684f","null","","null","","","","","","","","./tasks/HMM-beads/Images/BlackBeadChoiceCorrect.png","","","","","","","","","","","","","","","","","","",""
"image-keyboard-response","197","223829","0.0-4.0-6.0-1.0-0.40","5c35132e48ad2900017e535e","635ab8fc87ce89828e04cd4e","635abec4b86960c1ce0b684f","127","","j","","","","","","","","./tasks/HMM-beads/Images/NewTrialBC.png","lowH","40","2","2","1","2","true","","","","","","","","","","","",""
"image-keyboard-response","198","224130","0.0-4.0-6.0-1.0-1.40","5c35132e48ad2900017e535e","635ab8fc87ce89828e04cd4e","635abec4b86960c1ce0b684f","null","","null","","","","","","","","./tasks/HMM-beads/Images/WhiteBeadChoice.png","","","","","","","","","","","","","","","","","","",""
"image-keyboard-response","199","224642","0.0-4.0-6.0-1.0-2.40","5c35132e48ad2900017e535e","635ab8fc87ce89828e04cd4e","635abec4b86960c1ce0b684f","null","","null","","","","","","","","./tasks/HMM-beads/Images/WhiteBeadChoiceCorrect.png","","","","","","","","","","","","","","","","","","",""
"image-keyboard-response","200","224724","0.0-4.0-6.0-1.0-0.41","5c35132e48ad2900017e535e","635ab8fc87ce89828e04cd4e","635abec4b86960c1ce0b684f","80","","j","","","","","","","","./tasks/HMM-beads/Images/NewTrialWC.png","lowH","41","2","1","2","2","false","","","","","","","","","","","",""
"image-keyboard-response","201","225029","0.0-4.0-6.0-1.0-1.41","5c35132e48ad2900017e535e","635ab8fc87ce89828e04cd4e","635abec4b86960c1ce0b684f","null","","null","","","","","","","","./tasks/HMM-beads/Images/WhiteBeadChoice.png","","","","","","","","","","","","","","","","","","",""
"image-keyboard-response","202","225532","0.0-4.0-6.0-1.0-2.41","5c35132e48ad2900017e535e","635ab8fc87ce89828e04cd4e","635abec4b86960c1ce0b684f","null","","null","","","","","","","","./tasks/HMM-beads/Images/WhiteBeadChoiceWrong.png","","","","","","","","","","","","","","","","","","",""
"image-keyboard-response","203","225688","0.0-4.0-6.0-1.0-0.42","5c35132e48ad2900017e535e","635ab8fc87ce89828e04cd4e","635abec4b86960c1ce0b684f","155","","j","","","","","","","","./tasks/HMM-beads/Images/NewTrialBC.png","lowH","42","2","1","1","2","false","","","","","","","","","","","",""
"image-keyboard-response","204","225991","0.0-4.0-6.0-1.0-1.42","5c35132e48ad2900017e535e","635ab8fc87ce89828e04cd4e","635abec4b86960c1ce0b684f","null","","null","","","","","","","","./tasks/HMM-beads/Images/WhiteBeadChoice.png","","","","","","","","","","","","","","","","","","",""
"image-keyboard-response","205","226492","0.0-4.0-6.0-1.0-2.42","5c35132e48ad2900017e535e","635ab8fc87ce89828e04cd4e","635abec4b86960c1ce0b684f","null","","null","","","","","","","","./tasks/HMM-beads/Images/WhiteBeadChoiceWrong.png","","","","","","","","","","","","","","","","","","",""
"image-keyboard-response","206","226961","0.0-4.0-6.0-1.0-0.43","5c35132e48ad2900017e535e","635ab8fc87ce89828e04cd4e","635abec4b86960c1ce0b684f","468","","f","","","","","","","","./tasks/HMM-beads/Images/NewTrialBC.png","lowH","43","2","2","1","1","false","","","","","","","","","","","",""
"image-keyboard-response","207","227264","0.0-4.0-6.0-1.0-1.43","5c35132e48ad2900017e535e","635ab8fc87ce89828e04cd4e","635abec4b86960c1ce0b684f","null","","null","","","","","","","","./tasks/HMM-beads/Images/BlackBeadChoice.png","","","","","","","","","","","","","","","","","","",""
"image-keyboard-response","208","227768","0.0-4.0-6.0-1.0-2.43","5c35132e48ad2900017e535e","635ab8fc87ce89828e04cd4e","635abec4b86960c1ce0b684f","null","","null","","","","","","","","./tasks/HMM-beads/Images/BlackBeadChoiceWrong.png","","","","","","","","","","","","","","","","","","",""
"image-keyboard-response","209","228180","0.0-4.0-6.0-1.0-0.44","5c35132e48ad2900017e535e","635ab8fc87ce89828e04cd4e","635abec4b86960c1ce0b684f","411","","j","","","","","","","","./tasks/HMM-beads/Images/NewTrialWC.png","lowH","44","2","2","2","2","true","","","","","","","","","","","",""
"image-keyboard-response","210","228488","0.0-4.0-6.0-1.0-1.44","5c35132e48ad2900017e535e","635ab8fc87ce89828e04cd4e","635abec4b86960c1ce0b684f","null","","null","","","","","","","","./tasks/HMM-beads/Images/WhiteBeadChoice.png","","","","","","","","","","","","","","","","","","",""
"image-keyboard-response","211","228994","0.0-4.0-6.0-1.0-2.44","5c35132e48ad2900017e535e","635ab8fc87ce89828e04cd4e","635abec4b86960c1ce0b684f","null","","null","","","","","","","","./tasks/HMM-beads/Images/WhiteBeadChoiceCorrect.png","","","","","","","","","","","","","","","","","","",""
"image-keyboard-response","212","229025","0.0-4.0-6.0-1.0-0.45","5c35132e48ad2900017e535e","635ab8fc87ce89828e04cd4e","635abec4b86960c1ce0b684f","29","","f","","","","","","","","./tasks/HMM-beads/Images/NewTrialWC.png","lowH","45","2","1","2","1","true","","","","","","","","","","","",""
"image-keyboard-response","213","229329","0.0-4.0-6.0-1.0-1.45","5c35132e48ad2900017e535e","635ab8fc87ce89828e04cd4e","635abec4b86960c1ce0b684f","null","","null","","","","","","","","./tasks/HMM-beads/Images/BlackBeadChoice.png","","","","","","","","","","","","","","","","","","",""
"image-keyboard-response","214","229833","0.0-4.0-6.0-1.0-2.45","5c35132e48ad2900017e535e","635ab8fc87ce89828e04cd4e","635abec4b86960c1ce0b684f","null","","null","","","","","","","","./tasks/HMM-beads/Images/BlackBeadChoiceCorrect.png","","","","","","","","","","","","","","","","","","",""
"image-keyboard-response","215","230410","0.0-4.0-6.0-1.0-0.46","5c35132e48ad2900017e535e","635ab8fc87ce89828e04cd4e","635abec4b86960c1ce0b684f","575","","f","","","","","","","","./tasks/HMM-beads/Images/NewTrialBC.png","lowH","46","2","2","1","1","false","","","","","","","","","","","",""
"image-keyboard-response","216","230712","0.0-4.0-6.0-1.0-1.46","5c35132e48ad2900017e535e","635ab8fc87ce89828e04cd4e","635abec4b86960c1ce0b684f","null","","null","","","","","","","","./tasks/HMM-beads/Images/BlackBeadChoice.png","","","","","","","","","","","","","","","","","","",""
"image-keyboard-response","217","231216","0.0-4.0-6.0-1.0-2.46","5c35132e48ad2900017e535e","635ab8fc87ce89828e04cd4e","635abec4b86960c1ce0b684f","null","","null","","","","","","","","./tasks/HMM-beads/Images/BlackBeadChoiceWrong.png","","","","","","","","","","","","","","","","","","",""
"image-keyboard-response","218","231283","0.0-4.0-6.0-1.0-0.47","5c35132e48ad2900017e535e","635ab8fc87ce89828e04cd4e","635abec4b86960c1ce0b684f","66","","j","","","","","","","","./tasks/HMM-beads/Images/NewTrialWC.png","lowH","47","2","2","2","2","true","","","","","","","","","","","",""
"image-keyboard-response","219","231584","0.0-4.0-6.0-1.0-1.47","5c35132e48ad2900017e535e","635ab8fc87ce89828e04cd4e","635abec4b86960c1ce0b684f","null","","null","","","","","","","","./tasks/HMM-beads/Images/WhiteBeadChoice.png","","","","","","","","","","","","","","","","","","",""
"image-keyboard-response","220","232087","0.0-4.0-6.0-1.0-2.47","5c35132e48ad2900017e535e","635ab8fc87ce89828e04cd4e","635abec4b86960c1ce0b684f","null","","null","","","","","","","","./tasks/HMM-beads/Images/WhiteBeadChoiceCorrect.png","","","","","","","","","","","","","","","","","","",""
"image-keyboard-response","221","232282","0.0-4.0-6.0-1.0-0.48","5c35132e48ad2900017e535e","635ab8fc87ce89828e04cd4e","635abec4b86960c1ce0b684f","194","","j","","","","","","","","./tasks/HMM-beads/Images/NewTrialWC.png","lowH","48","2","2","2","2","true","","","","","","","","","","","",""
"image-keyboard-response","222","232585","0.0-4.0-6.0-1.0-1.48","5c35132e48ad2900017e535e","635ab8fc87ce89828e04cd4e","635abec4b86960c1ce0b684f","null","","null","","","","","","","","./tasks/HMM-beads/Images/WhiteBeadChoice.png","","","","","","","","","","","","","","","","","","",""
"image-keyboard-response","223","233089","0.0-4.0-6.0-1.0-2.48","5c35132e48ad2900017e535e","635ab8fc87ce89828e04cd4e","635abec4b86960c1ce0b684f","null","","null","","","","","","","","./tasks/HMM-beads/Images/WhiteBeadChoiceCorrect.png","","","","","","","","","","","","","","","","","","",""
"image-keyboard-response","224","233493","0.0-4.0-6.0-1.0-0.49","5c35132e48ad2900017e535e","635ab8fc87ce89828e04cd4e","635abec4b86960c1ce0b684f","402","","f","","","","","","","","./tasks/HMM-beads/Images/NewTrialWC.png","lowH","49","2","2","2","1","false","","","","","","","","","","","",""
"image-keyboard-response","225","233798","0.0-4.0-6.0-1.0-1.49","5c35132e48ad2900017e535e","635ab8fc87ce89828e04cd4e","635abec4b86960c1ce0b684f","null","","null","","","","","","","","./tasks/HMM-beads/Images/BlackBeadChoice.png","","","","","","","","","","","","","","","","","","",""
"image-keyboard-response","226","234303","0.0-4.0-6.0-1.0-2.49","5c35132e48ad2900017e535e","635ab8fc87ce89828e04cd4e","635abec4b86960c1ce0b684f","null","","null","","","","","","","","./tasks/HMM-beads/Images/BlackBeadChoiceWrong.png","","","","","","","","","","","","","","","","","","",""
"image-keyboard-response","227","234930","0.0-4.0-6.0-1.0-0.50","5c35132e48ad2900017e535e","635ab8fc87ce89828e04cd4e","635abec4b86960c1ce0b684f","626","","f","","","","","","","","./tasks/HMM-beads/Images/NewTrialWC.png","lowH","50","2","1","2","1","true","","","","","","","","","","","",""
"image-keyboard-response","228","235242","0.0-4.0-6.0-1.0-1.50","5c35132e48ad2900017e535e","635ab8fc87ce89828e04cd4e","635abec4b86960c1ce0b684f","null","","null","","","","","","","","./tasks/HMM-beads/Images/BlackBeadChoice.png","","","","","","","","","","","","","","","","","","",""
"image-keyboard-response","229","235748","0.0-4.0-6.0-1.0-2.50","5c35132e48ad2900017e535e","635ab8fc87ce89828e04cd4e","635abec4b86960c1ce0b684f","null","","null","","","","","","","","./tasks/HMM-beads/Images/BlackBeadChoiceCorrect.png","","","","","","","","","","","","","","","","","","",""
"image-keyboard-response","230","236249","0.0-4.0-6.0-1.0-0.51","5c35132e48ad2900017e535e","635ab8fc87ce89828e04cd4e","635abec4b86960c1ce0b684f","500","","f","","","","","","","","./tasks/HMM-beads/Images/NewTrialBC.png","lowH","51","2","1","1","1","true","","","","","","","","","","","",""
"image-keyboard-response","231","236551","0.0-4.0-6.0-1.0-1.51","5c35132e48ad2900017e535e","635ab8fc87ce89828e04cd4e","635abec4b86960c1ce0b684f","null","","null","","","","","","","","./tasks/HMM-beads/Images/BlackBeadChoice.png","","","","","","","","","","","","","","","","","","",""
"image-keyboard-response","232","237054","0.0-4.0-6.0-1.0-2.51","5c35132e48ad2900017e535e","635ab8fc87ce89828e04cd4e","635abec4b86960c1ce0b684f","null","","null","","","","","","","","./tasks/HMM-beads/Images/BlackBeadChoiceCorrect.png","","","","","","","","","","","","","","","","","","",""
"image-keyboard-response","233","237666","0.0-4.0-6.0-1.0-0.52","5c35132e48ad2900017e535e","635ab8fc87ce89828e04cd4e","635abec4b86960c1ce0b684f","611","","j","","","","","","","","./tasks/HMM-beads/Images/NewTrialBC.png","lowH","52","2","2","1","2","true","","","","","","","","","","","",""
"image-keyboard-response","234","237971","0.0-4.0-6.0-1.0-1.52","5c35132e48ad2900017e535e","635ab8fc87ce89828e04cd4e","635abec4b86960c1ce0b684f","null","","null","","","","","","","","./tasks/HMM-beads/Images/WhiteBeadChoice.png","","","","","","","","","","","","","","","","","","",""
"image-keyboard-response","235","238474","0.0-4.0-6.0-1.0-2.52","5c35132e48ad2900017e535e","635ab8fc87ce89828e04cd4e","635abec4b86960c1ce0b684f","null","","null","","","","","","","","./tasks/HMM-beads/Images/WhiteBeadChoiceCorrect.png","","","","","","","","","","","","","","","","","","",""
"image-keyboard-response","236","239033","0.0-4.0-6.0-1.0-0.53","5c35132e48ad2900017e535e","635ab8fc87ce89828e04cd4e","635abec4b86960c1ce0b684f","558","","j","","","","","","","","./tasks/HMM-beads/Images/NewTrialWC.png","lowH","53","2","2","2","2","true","","","","","","","","","","","",""
"image-keyboard-response","237","239338","0.0-4.0-6.0-1.0-1.53","5c35132e48ad2900017e535e","635ab8fc87ce89828e04cd4e","635abec4b86960c1ce0b684f","null","","null","","","","","","","","./tasks/HMM-beads/Images/WhiteBeadChoice.png","","","","","","","","","","","","","","","","","","",""
"image-keyboard-response","238","239843","0.0-4.0-6.0-1.0-2.53","5c35132e48ad2900017e535e","635ab8fc87ce89828e04cd4e","635abec4b86960c1ce0b684f","null","","null","","","","","","","","./tasks/HMM-beads/Images/WhiteBeadChoiceCorrect.png","","","","","","","","","","","","","","","","","","",""
"image-keyboard-response","239","240193","0.0-4.0-6.0-1.0-0.54","5c35132e48ad2900017e535e","635ab8fc87ce89828e04cd4e","635abec4b86960c1ce0b684f","348","","j","","","","","","","","./tasks/HMM-beads/Images/NewTrialWC.png","lowH","54","2","2","2","2","true","","","","","","","","","","","",""
"image-keyboard-response","240","240503","0.0-4.0-6.0-1.0-1.54","5c35132e48ad2900017e535e","635ab8fc87ce89828e04cd4e","635abec4b86960c1ce0b684f","null","","null","","","","","","","","./tasks/HMM-beads/Images/WhiteBeadChoice.png","","","","","","","","","","","","","","","","","","",""
"image-keyboard-response","241","241007","0.0-4.0-6.0-1.0-2.54","5c35132e48ad2900017e535e","635ab8fc87ce89828e04cd4e","635abec4b86960c1ce0b684f","null","","null","","","","","","","","./tasks/HMM-beads/Images/WhiteBeadChoiceCorrect.png","","","","","","","","","","","","","","","","","","",""
"image-keyboard-response","242","241243","0.0-4.0-6.0-1.0-0.55","5c35132e48ad2900017e535e","635ab8fc87ce89828e04cd4e","635abec4b86960c1ce0b684f","235","","f","","","","","","","","./tasks/HMM-beads/Images/NewTrialWC.png","lowH","55","2","2","2","1","false","","","","","","","","","","","",""
"image-keyboard-response","243","241547","0.0-4.0-6.0-1.0-1.55","5c35132e48ad2900017e535e","635ab8fc87ce89828e04cd4e","635abec4b86960c1ce0b684f","null","","null","","","","","","","","./tasks/HMM-beads/Images/BlackBeadChoice.png","","","","","","","","","","","","","","","","","","",""
"image-keyboard-response","244","242048","0.0-4.0-6.0-1.0-2.55","5c35132e48ad2900017e535e","635ab8fc87ce89828e04cd4e","635abec4b86960c1ce0b684f","null","","null","","","","","","","","./tasks/HMM-beads/Images/BlackBeadChoiceWrong.png","","","","","","","","","","","","","","","","","","",""
"image-keyboard-response","245","242202","0.0-4.0-6.0-1.0-0.56","5c35132e48ad2900017e535e","635ab8fc87ce89828e04cd4e","635abec4b86960c1ce0b684f","153","","f","","","","","","","","./tasks/HMM-beads/Images/NewTrialWC.png","lowH","56","2","1","2","1","true","","","","","","","","","","","",""
"image-keyboard-response","246","242504","0.0-4.0-6.0-1.0-1.56","5c35132e48ad2900017e535e","635ab8fc87ce89828e04cd4e","635abec4b86960c1ce0b684f","null","","null","","","","","","","","./tasks/HMM-beads/Images/BlackBeadChoice.png","","","","","","","","","","","","","","","","","","",""
"image-keyboard-response","247","243009","0.0-4.0-6.0-1.0-2.56","5c35132e48ad2900017e535e","635ab8fc87ce89828e04cd4e","635abec4b86960c1ce0b684f","null","","null","","","","","","","","./tasks/HMM-beads/Images/BlackBeadChoiceCorrect.png","","","","","","","","","","","","","","","","","","",""
"image-keyboard-response","248","243245","0.0-4.0-6.0-1.0-0.57","5c35132e48ad2900017e535e","635ab8fc87ce89828e04cd4e","635abec4b86960c1ce0b684f","235","","j","","","","","","","","./tasks/HMM-beads/Images/NewTrialBC.png","lowH","57","2","2","1","2","true","","","","","","","","","","","",""
"image-keyboard-response","249","243550","0.0-4.0-6.0-1.0-1.57","5c35132e48ad2900017e535e","635ab8fc87ce89828e04cd4e","635abec4b86960c1ce0b684f","null","","null","","","","","","","","./tasks/HMM-beads/Images/WhiteBeadChoice.png","","","","","","","","","","","","","","","","","","",""
"image-keyboard-response","250","244057","0.0-4.0-6.0-1.0-2.57","5c35132e48ad2900017e535e","635ab8fc87ce89828e04cd4e","635abec4b86960c1ce0b684f","null","","null","","","","","","","","./tasks/HMM-beads/Images/WhiteBeadChoiceCorrect.png","","","","","","","","","","","","","","","","","","",""
"image-keyboard-response","251","244270","0.0-4.0-6.0-1.0-0.58","5c35132e48ad2900017e535e","635ab8fc87ce89828e04cd4e","635abec4b86960c1ce0b684f","206","","j","","","","","","","","./tasks/HMM-beads/Images/NewTrialWC.png","lowH","58","2","1","2","2","false","","","","","","","","","","","",""
"image-keyboard-response","252","244572","0.0-4.0-6.0-1.0-1.58","5c35132e48ad2900017e535e","635ab8fc87ce89828e04cd4e","635abec4b86960c1ce0b684f","null","","null","","","","","","","","./tasks/HMM-beads/Images/WhiteBeadChoice.png","","","","","","","","","","","","","","","","","","",""
"image-keyboard-response","253","245074","0.0-4.0-6.0-1.0-2.58","5c35132e48ad2900017e535e","635ab8fc87ce89828e04cd4e","635abec4b86960c1ce0b684f","null","","null","","","","","","","","./tasks/HMM-beads/Images/WhiteBeadChoiceWrong.png","","","","","","","","","","","","","","","","","","",""
"image-keyboard-response","254","245245","0.0-4.0-6.0-1.0-0.59","5c35132e48ad2900017e535e","635ab8fc87ce89828e04cd4e","635abec4b86960c1ce0b684f","170","","j","","","","","","","","./tasks/HMM-beads/Images/NewTrialBC.png","lowH","59","2","1","1","2","false","","","","","","","","","","","",""
"image-keyboard-response","255","245551","0.0-4.0-6.0-1.0-1.59","5c35132e48ad2900017e535e","635ab8fc87ce89828e04cd4e","635abec4b86960c1ce0b684f","null","","null","","","","","","","","./tasks/HMM-beads/Images/WhiteBeadChoice.png","","","","","","","","","","","","","","","","","","",""
"image-keyboard-response","256","246057","0.0-4.0-6.0-1.0-2.59","5c35132e48ad2900017e535e","635ab8fc87ce89828e04cd4e","635abec4b86960c1ce0b684f","null","","null","","","","","","","","./tasks/HMM-beads/Images/WhiteBeadChoiceWrong.png","","","","","","","","","","","","","","","","","","",""
"image-keyboard-response","257","246956","0.0-4.0-6.0-1.0-0.60","5c35132e48ad2900017e535e","635ab8fc87ce89828e04cd4e","635abec4b86960c1ce0b684f","898","","j","","","","","","","","./tasks/HMM-beads/Images/NewTrialBC.png","lowH","60","2","2","1","2","true","","","","","","","","","","","",""
"image-keyboard-response","258","247260","0.0-4.0-6.0-1.0-1.60","5c35132e48ad2900017e535e","635ab8fc87ce89828e04cd4e","635abec4b86960c1ce0b684f","null","","null","","","","","","","","./tasks/HMM-beads/Images/WhiteBeadChoice.png","","","","","","","","","","","","","","","","","","",""
"image-keyboard-response","259","247762","0.0-4.0-6.0-1.0-2.60","5c35132e48ad2900017e535e","635ab8fc87ce89828e04cd4e","635abec4b86960c1ce0b684f","null","","null","","","","","","","","./tasks/HMM-beads/Images/WhiteBeadChoiceCorrect.png","","","","","","","","","","","","","","","","","","",""
"image-keyboard-response","260","248726","0.0-4.0-6.0-1.0-0.61","5c35132e48ad2900017e535e","635ab8fc87ce89828e04cd4e","635abec4b86960c1ce0b684f","963","","f","","","","","","","","./tasks/HMM-beads/Images/NewTrialWC.png","lowH","61","2","2","2","1","false","","","","","","","","","","","",""
"image-keyboard-response","261","249029","0.0-4.0-6.0-1.0-1.61","5c35132e48ad2900017e535e","635ab8fc87ce89828e04cd4e","635abec4b86960c1ce0b684f","null","","null","","","","","","","","./tasks/HMM-beads/Images/BlackBeadChoice.png","","","","","","","","","","","","","","","","","","",""
"image-keyboard-response","262","249531","0.0-4.0-6.0-1.0-2.61","5c35132e48ad2900017e535e","635ab8fc87ce89828e04cd4e","635abec4b86960c1ce0b684f","null","","null","","","","","","","","./tasks/HMM-beads/Images/BlackBeadChoiceWrong.png","","","","","","","","","","","","","","","","","","",""
"image-keyboard-response","263","249545","0.0-4.0-6.0-1.0-0.62","5c35132e48ad2900017e535e","635ab8fc87ce89828e04cd4e","635abec4b86960c1ce0b684f","13","","j","","","","","","","","./tasks/HMM-beads/Images/NewTrialWC.png","lowH","62","2","2","2","2","true","","","","","","","","","","","",""
"image-keyboard-response","264","249851","0.0-4.0-6.0-1.0-1.62","5c35132e48ad2900017e535e","635ab8fc87ce89828e04cd4e","635abec4b86960c1ce0b684f","null","","null","","","","","","","","./tasks/HMM-beads/Images/WhiteBeadChoice.png","","","","","","","","","","","","","","","","","","",""
"image-keyboard-response","265","250355","0.0-4.0-6.0-1.0-2.62","5c35132e48ad2900017e535e","635ab8fc87ce89828e04cd4e","635abec4b86960c1ce0b684f","null","","null","","","","","","","","./tasks/HMM-beads/Images/WhiteBeadChoiceCorrect.png","","","","","","","","","","","","","","","","","","",""
"image-keyboard-response","266","250850","0.0-4.0-6.0-1.0-0.63","5c35132e48ad2900017e535e","635ab8fc87ce89828e04cd4e","635abec4b86960c1ce0b684f","494","","j","","","","","","","","./tasks/HMM-beads/Images/NewTrialWC.png","lowH","63","2","1","2","2","false","","","","","","","","","","","",""
"image-keyboard-response","267","251155","0.0-4.0-6.0-1.0-1.63","5c35132e48ad2900017e535e","635ab8fc87ce89828e04cd4e","635abec4b86960c1ce0b684f","null","","null","","","","","","","","./tasks/HMM-beads/Images/WhiteBeadChoice.png","","","","","","","","","","","","","","","","","","",""
"image-keyboard-response","268","251658","0.0-4.0-6.0-1.0-2.63","5c35132e48ad2900017e535e","635ab8fc87ce89828e04cd4e","635abec4b86960c1ce0b684f","null","","null","","","","","","","","./tasks/HMM-beads/Images/WhiteBeadChoiceWrong.png","","","","","","","","","","","","","","","","","","",""
"image-keyboard-response","269","251743","0.0-4.0-6.0-1.0-0.64","5c35132e48ad2900017e535e","635ab8fc87ce89828e04cd4e","635abec4b86960c1ce0b684f","84","","f","","","","","","","","./tasks/HMM-beads/Images/NewTrialBC.png","lowH","64","2","2","1","1","false","","","","","","","","","","","",""
"image-keyboard-response","270","252047","0.0-4.0-6.0-1.0-1.64","5c35132e48ad2900017e535e","635ab8fc87ce89828e04cd4e","635abec4b86960c1ce0b684f","null","","null","","","","","","","","./tasks/HMM-beads/Images/BlackBeadChoice.png","","","","","","","","","","","","","","","","","","",""
"image-keyboard-response","271","252549","0.0-4.0-6.0-1.0-2.64","5c35132e48ad2900017e535e","635ab8fc87ce89828e04cd4e","635abec4b86960c1ce0b684f","null","","null","","","","","","","","./tasks/HMM-beads/Images/BlackBeadChoiceWrong.png","","","","","","","","","","","","","","","","","","",""
"image-keyboard-response","272","252682","0.0-4.0-6.0-1.0-0.65","5c35132e48ad2900017e535e","635ab8fc87ce89828e04cd4e","635abec4b86960c1ce0b684f","132","","j","","","","","","","","./tasks/HMM-beads/Images/NewTrialWC.png","lowH","65","2","2","2","2","true","","","","","","","","","","","",""
"image-keyboard-response","273","252992","0.0-4.0-6.0-1.0-1.65","5c35132e48ad2900017e535e","635ab8fc87ce89828e04cd4e","635abec4b86960c1ce0b684f","null","","null","","","","","","","","./tasks/HMM-beads/Images/WhiteBeadChoice.png","","","","","","","","","","","","","","","","","","",""
"image-keyboard-response","274","253496","0.0-4.0-6.0-1.0-2.65","5c35132e48ad2900017e535e","635ab8fc87ce89828e04cd4e","635abec4b86960c1ce0b684f","null","","null","","","","","","","","./tasks/HMM-beads/Images/WhiteBeadChoiceCorrect.png","","","","","","","","","","","","","","","","","","",""
"image-keyboard-response","275","255325","0.0-4.0-6.0-1.0-0.66","5c35132e48ad2900017e535e","635ab8fc87ce89828e04cd4e","635abec4b86960c1ce0b684f","1828","","f","","","","","","","","./tasks/HMM-beads/Images/NewTrialWC.png","lowH","66","2","1","2","1","true","","","","","","","","","","","",""
"image-keyboard-response","276","255627","0.0-4.0-6.0-1.0-1.66","5c35132e48ad2900017e535e","635ab8fc87ce89828e04cd4e","635abec4b86960c1ce0b684f","null","","null","","","","","","","","./tasks/HMM-beads/Images/BlackBeadChoice.png","","","","","","","","","","","","","","","","","","",""
"image-keyboard-response","277","256132","0.0-4.0-6.0-1.0-2.66","5c35132e48ad2900017e535e","635ab8fc87ce89828e04cd4e","635abec4b86960c1ce0b684f","null","","null","","","","","","","","./tasks/HMM-beads/Images/BlackBeadChoiceCorrect.png","","","","","","","","","","","","","","","","","","",""
"image-keyboard-response","278","256564","0.0-4.0-6.0-1.0-0.67","5c35132e48ad2900017e535e","635ab8fc87ce89828e04cd4e","635abec4b86960c1ce0b684f","430","","j","","","","","","","","./tasks/HMM-beads/Images/NewTrialBC.png","lowH","67","2","2","1","2","true","","","","","","","","","","","",""
"image-keyboard-response","279","256866","0.0-4.0-6.0-1.0-1.67","5c35132e48ad2900017e535e","635ab8fc87ce89828e04cd4e","635abec4b86960c1ce0b684f","null","","null","","","","","","","","./tasks/HMM-beads/Images/WhiteBeadChoice.png","","","","","","","","","","","","","","","","","","",""
"image-keyboard-response","280","257370","0.0-4.0-6.0-1.0-2.67","5c35132e48ad2900017e535e","635ab8fc87ce89828e04cd4e","635abec4b86960c1ce0b684f","null","","null","","","","","","","","./tasks/HMM-beads/Images/WhiteBeadChoiceCorrect.png","","","","","","","","","","","","","","","","","","",""
"image-keyboard-response","281","257658","0.0-4.0-6.0-1.0-0.68","5c35132e48ad2900017e535e","635ab8fc87ce89828e04cd4e","635abec4b86960c1ce0b684f","287","","j","","","","","","","","./tasks/HMM-beads/Images/NewTrialWC.png","lowH","68","2","2","2","2","true","","","","","","","","","","","",""
"image-keyboard-response","282","257960","0.0-4.0-6.0-1.0-1.68","5c35132e48ad2900017e535e","635ab8fc87ce89828e04cd4e","635abec4b86960c1ce0b684f","null","","null","","","","","","","","./tasks/HMM-beads/Images/WhiteBeadChoice.png","","","","","","","","","","","","","","","","","","",""
"image-keyboard-response","283","258462","0.0-4.0-6.0-1.0-2.68","5c35132e48ad2900017e535e","635ab8fc87ce89828e04cd4e","635abec4b86960c1ce0b684f","null","","null","","","","","","","","./tasks/HMM-beads/Images/WhiteBeadChoiceCorrect.png","","","","","","","","","","","","","","","","","","",""
"image-keyboard-response","284","258734","0.0-4.0-6.0-1.0-0.69","5c35132e48ad2900017e535e","635ab8fc87ce89828e04cd4e","635abec4b86960c1ce0b684f","270","","j","","","","","","","","./tasks/HMM-beads/Images/NewTrialWC.png","lowH","69","2","2","2","2","true","","","","","","","","","","","",""
"image-keyboard-response","285","259036","0.0-4.0-6.0-1.0-1.69","5c35132e48ad2900017e535e","635ab8fc87ce89828e04cd4e","635abec4b86960c1ce0b684f","null","","null","","","","","","","","./tasks/HMM-beads/Images/WhiteBeadChoice.png","","","","","","","","","","","","","","","","","","",""
"image-keyboard-response","286","259540","0.0-4.0-6.0-1.0-2.69","5c35132e48ad2900017e535e","635ab8fc87ce89828e04cd4e","635abec4b86960c1ce0b684f","null","","null","","","","","","","","./tasks/HMM-beads/Images/WhiteBeadChoiceCorrect.png","","","","","","","","","","","","","","","","","","",""
"image-keyboard-response","287","259989","0.0-4.0-6.0-1.0-0.70","5c35132e48ad2900017e535e","635ab8fc87ce89828e04cd4e","635abec4b86960c1ce0b684f","448","","j","","","","","","","","./tasks/HMM-beads/Images/NewTrialWC.png","lowH","70","2","2","2","2","true","","","","","","","","","","","",""
"image-keyboard-response","288","260295","0.0-4.0-6.0-1.0-1.70","5c35132e48ad2900017e535e","635ab8fc87ce89828e04cd4e","635abec4b86960c1ce0b684f","null","","null","","","","","","","","./tasks/HMM-beads/Images/WhiteBeadChoice.png","","","","","","","","","","","","","","","","","","",""
"image-keyboard-response","289","260797","0.0-4.0-6.0-1.0-2.70","5c35132e48ad2900017e535e","635ab8fc87ce89828e04cd4e","635abec4b86960c1ce0b684f","null","","null","","","","","","","","./tasks/HMM-beads/Images/WhiteBeadChoiceCorrect.png","","","","","","","","","","","","","","","","","","",""
"image-keyboard-response","290","261975","0.0-4.0-6.0-1.0-0.71","5c35132e48ad2900017e535e","635ab8fc87ce89828e04cd4e","635abec4b86960c1ce0b684f","1177","","f","","","","","","","","./tasks/HMM-beads/Images/NewTrialWC.png","lowH","71","2","2","2","1","false","","","","","","","","","","","",""
"image-keyboard-response","291","262279","0.0-4.0-6.0-1.0-1.71","5c35132e48ad2900017e535e","635ab8fc87ce89828e04cd4e","635abec4b86960c1ce0b684f","null","","null","","","","","","","","./tasks/HMM-beads/Images/BlackBeadChoice.png","","","","","","","","","","","","","","","","","","",""
"image-keyboard-response","292","262783","0.0-4.0-6.0-1.0-2.71","5c35132e48ad2900017e535e","635ab8fc87ce89828e04cd4e","635abec4b86960c1ce0b684f","null","","null","","","","","","","","./tasks/HMM-beads/Images/BlackBeadChoiceWrong.png","","","","","","","","","","","","","","","","","","",""
"image-keyboard-response","293","263294","0.0-4.0-6.0-1.0-0.72","5c35132e48ad2900017e535e","635ab8fc87ce89828e04cd4e","635abec4b86960c1ce0b684f","510","","f","","","","","","","","./tasks/HMM-beads/Images/NewTrialWC.png","lowH","72","2","1","2","1","true","","","","","","","","","","","",""
"image-keyboard-response","294","263599","0.0-4.0-6.0-1.0-1.72","5c35132e48ad2900017e535e","635ab8fc87ce89828e04cd4e","635abec4b86960c1ce0b684f","null","","null","","","","","","","","./tasks/HMM-beads/Images/BlackBeadChoice.png","","","","","","","","","","","","","","","","","","",""
"image-keyboard-response","295","264102","0.0-4.0-6.0-1.0-2.72","5c35132e48ad2900017e535e","635ab8fc87ce89828e04cd4e","635abec4b86960c1ce0b684f","null","","null","","","","","","","","./tasks/HMM-beads/Images/BlackBeadChoiceCorrect.png","","","","","","","","","","","","","","","","","","",""
"image-keyboard-response","296","264627","0.0-4.0-6.0-1.0-0.73","5c35132e48ad2900017e535e","635ab8fc87ce89828e04cd4e","635abec4b86960c1ce0b684f","525","","f","","","","","","","","./tasks/HMM-beads/Images/NewTrialBC.png","lowH","73","2","2","1","1","false","","","","","","","","","","","",""
"image-keyboard-response","297","264930","0.0-4.0-6.0-1.0-1.73","5c35132e48ad2900017e535e","635ab8fc87ce89828e04cd4e","635abec4b86960c1ce0b684f","null","","null","","","","","","","","./tasks/HMM-beads/Images/BlackBeadChoice.png","","","","","","","","","","","","","","","","","","",""
"image-keyboard-response","298","265435","0.0-4.0-6.0-1.0-2.73","5c35132e48ad2900017e535e","635ab8fc87ce89828e04cd4e","635abec4b86960c1ce0b684f","null","","null","","","","","","","","./tasks/HMM-beads/Images/BlackBeadChoiceWrong.png","","","","","","","","","","","","","","","","","","",""
"image-keyboard-response","299","265934","0.0-4.0-6.0-1.0-0.74","5c35132e48ad2900017e535e","635ab8fc87ce89828e04cd4e","635abec4b86960c1ce0b684f","498","","f","","","","","","","","./tasks/HMM-beads/Images/NewTrialWC.png","lowH","74","2","1","2","1","true","","","","","","","","","","","",""
"image-keyboard-response","300","266236","0.0-4.0-6.0-1.0-1.74","5c35132e48ad2900017e535e","635ab8fc87ce89828e04cd4e","635abec4b86960c1ce0b684f","null","","null","","","","","","","","./tasks/HMM-beads/Images/BlackBeadChoice.png","","","","","","","","","","","","","","","","","","",""
"image-keyboard-response","301","266741","0.0-4.0-6.0-1.0-2.74","5c35132e48ad2900017e535e","635ab8fc87ce89828e04cd4e","635abec4b86960c1ce0b684f","null","","null","","","","","","","","./tasks/HMM-beads/Images/BlackBeadChoiceCorrect.png","","","","","","","","","","","","","","","","","","",""
"image-keyboard-response","302","267084","0.0-4.0-6.0-1.0-0.75","5c35132e48ad2900017e535e","635ab8fc87ce89828e04cd4e","635abec4b86960c1ce0b684f","342","","f","","","","","","","","./tasks/HMM-beads/Images/NewTrialBC.png","lowH","75","2","2","1","1","false","","","","","","","","","","","",""
"image-keyboard-response","303","267394","0.0-4.0-6.0-1.0-1.75","5c35132e48ad2900017e535e","635ab8fc87ce89828e04cd4e","635abec4b86960c1ce0b684f","null","","null","","","","","","","","./tasks/HMM-beads/Images/BlackBeadChoice.png","","","","","","","","","","","","","","","","","","",""
"image-keyboard-response","304","267898","0.0-4.0-6.0-1.0-2.75","5c35132e48ad2900017e535e","635ab8fc87ce89828e04cd4e","635abec4b86960c1ce0b684f","null","","null","","","","","","","","./tasks/HMM-beads/Images/BlackBeadChoiceWrong.png","","","","","","","","","","","","","","","","","","",""
"image-keyboard-response","305","268230","0.0-4.0-6.0-1.0-0.76","5c35132e48ad2900017e535e","635ab8fc87ce89828e04cd4e","635abec4b86960c1ce0b684f","331","","f","","","","","","","","./tasks/HMM-beads/Images/NewTrialWC.png","lowH","76","2","1","2","1","true","","","","","","","","","","","",""
"image-keyboard-response","306","268536","0.0-4.0-6.0-1.0-1.76","5c35132e48ad2900017e535e","635ab8fc87ce89828e04cd4e","635abec4b86960c1ce0b684f","null","","null","","","","","","","","./tasks/HMM-beads/Images/BlackBeadChoice.png","","","","","","","","","","","","","","","","","","",""
"image-keyboard-response","307","269040","0.0-4.0-6.0-1.0-2.76","5c35132e48ad2900017e535e","635ab8fc87ce89828e04cd4e","635abec4b86960c1ce0b684f","null","","null","","","","","","","","./tasks/HMM-beads/Images/BlackBeadChoiceCorrect.png","","","","","","","","","","","","","","","","","","",""
"image-keyboard-response","308","269677","0.0-4.0-6.0-1.0-0.77","5c35132e48ad2900017e535e","635ab8fc87ce89828e04cd4e","635abec4b86960c1ce0b684f","636","","f","","","","","","","","./tasks/HMM-beads/Images/NewTrialBC.png","lowH","77","2","2","1","1","false","","","","","","","","","","","",""
"image-keyboard-response","309","269978","0.0-4.0-6.0-1.0-1.77","5c35132e48ad2900017e535e","635ab8fc87ce89828e04cd4e","635abec4b86960c1ce0b684f","null","","null","","","","","","","","./tasks/HMM-beads/Images/BlackBeadChoice.png","","","","","","","","","","","","","","","","","","",""
"image-keyboard-response","310","270481","0.0-4.0-6.0-1.0-2.77","5c35132e48ad2900017e535e","635ab8fc87ce89828e04cd4e","635abec4b86960c1ce0b684f","null","","null","","","","","","","","./tasks/HMM-beads/Images/BlackBeadChoiceWrong.png","","","","","","","","","","","","","","","","","","",""
"image-keyboard-response","311","270845","0.0-4.0-6.0-1.0-0.78","5c35132e48ad2900017e535e","635ab8fc87ce89828e04cd4e","635abec4b86960c1ce0b684f","362","","f","","","","","","","","./tasks/HMM-beads/Images/NewTrialWC.png","lowH","78","2","2","2","1","false","","","","","","","","","","","",""
"image-keyboard-response","312","271150","0.0-4.0-6.0-1.0-1.78","5c35132e48ad2900017e535e","635ab8fc87ce89828e04cd4e","635abec4b86960c1ce0b684f","null","","null","","","","","","","","./tasks/HMM-beads/Images/BlackBeadChoice.png","","","","","","","","","","","","","","","","","","",""
"image-keyboard-response","313","271654","0.0-4.0-6.0-1.0-2.78","5c35132e48ad2900017e535e","635ab8fc87ce89828e04cd4e","635abec4b86960c1ce0b684f","null","","null","","","","","","","","./tasks/HMM-beads/Images/BlackBeadChoiceWrong.png","","","","","","","","","","","","","","","","","","",""
"image-keyboard-response","314","271965","0.0-4.0-6.0-1.0-0.79","5c35132e48ad2900017e535e","635ab8fc87ce89828e04cd4e","635abec4b86960c1ce0b684f","310","","f","","","","","","","","./tasks/HMM-beads/Images/NewTrialWC.png","lowH","79","2","2","2","1","false","","","","","","","","","","","",""
"image-keyboard-response","315","272268","0.0-4.0-6.0-1.0-1.79","5c35132e48ad2900017e535e","635ab8fc87ce89828e04cd4e","635abec4b86960c1ce0b684f","null","","null","","","","","","","","./tasks/HMM-beads/Images/BlackBeadChoice.png","","","","","","","","","","","","","","","","","","",""
"image-keyboard-response","316","272779","0.0-4.0-6.0-1.0-2.79","5c35132e48ad2900017e535e","635ab8fc87ce89828e04cd4e","635abec4b86960c1ce0b684f","null","","null","","","","","","","","./tasks/HMM-beads/Images/BlackBeadChoiceWrong.png","","","","","","","","","","","","","","","","","","",""
"image-keyboard-response","317","272999","0.0-4.0-6.0-1.0-0.80","5c35132e48ad2900017e535e","635ab8fc87ce89828e04cd4e","635abec4b86960c1ce0b684f","219","","f","","","","","","","","./tasks/HMM-beads/Images/NewTrialWC.png","lowH","80","2","2","2","1","false","","","","","","","","","","","",""
"image-keyboard-response","318","273300","0.0-4.0-6.0-1.0-1.80","5c35132e48ad2900017e535e","635ab8fc87ce89828e04cd4e","635abec4b86960c1ce0b684f","null","","null","","","","","","","","./tasks/HMM-beads/Images/BlackBeadChoice.png","","","","","","","","","","","","","","","","","","",""
"image-keyboard-response","319","273805","0.0-4.0-6.0-1.0-2.80","5c35132e48ad2900017e535e","635ab8fc87ce89828e04cd4e","635abec4b86960c1ce0b684f","null","","null","","","","","","","","./tasks/HMM-beads/Images/BlackBeadChoiceWrong.png","","","","","","","","","","","","","","","","","","",""
"image-keyboard-response","320","274028","0.0-4.0-6.0-1.0-0.81","5c35132e48ad2900017e535e","635ab8fc87ce89828e04cd4e","635abec4b86960c1ce0b684f","222","","f","","","","","","","","./tasks/HMM-beads/Images/NewTrialWC.png","lowH","81","2","2","2","1","false","","","","","","","","","","","",""
"image-keyboard-response","321","274329","0.0-4.0-6.0-1.0-1.81","5c35132e48ad2900017e535e","635ab8fc87ce89828e04cd4e","635abec4b86960c1ce0b684f","null","","null","","","","","","","","./tasks/HMM-beads/Images/BlackBeadChoice.png","","","","","","","","","","","","","","","","","","",""
"image-keyboard-response","322","274831","0.0-4.0-6.0-1.0-2.81","5c35132e48ad2900017e535e","635ab8fc87ce89828e04cd4e","635abec4b86960c1ce0b684f","null","","null","","","","","","","","./tasks/HMM-beads/Images/BlackBeadChoiceWrong.png","","","","","","","","","","","","","","","","","","",""
"image-keyboard-response","323","274900","0.0-4.0-6.0-1.0-0.82","5c35132e48ad2900017e535e","635ab8fc87ce89828e04cd4e","635abec4b86960c1ce0b684f","68","","f","","","","","","","","./tasks/HMM-beads/Images/NewTrialWC.png","lowH","82","2","2","2","1","false","","","","","","","","","","","",""
"image-keyboard-response","324","275203","0.0-4.0-6.0-1.0-1.82","5c35132e48ad2900017e535e","635ab8fc87ce89828e04cd4e","635abec4b86960c1ce0b684f","null","","null","","","","","","","","./tasks/HMM-beads/Images/BlackBeadChoice.png","","","","","","","","","","","","","","","","","","",""
"image-keyboard-response","325","275706","0.0-4.0-6.0-1.0-2.82","5c35132e48ad2900017e535e","635ab8fc87ce89828e04cd4e","635abec4b86960c1ce0b684f","null","","null","","","","","","","","./tasks/HMM-beads/Images/BlackBeadChoiceWrong.png","","","","","","","","","","","","","","","","","","",""
"image-keyboard-response","326","275746","0.0-4.0-6.0-1.0-0.83","5c35132e48ad2900017e535e","635ab8fc87ce89828e04cd4e","635abec4b86960c1ce0b684f","38","","f","","","","","","","","./tasks/HMM-beads/Images/NewTrialWC.png","lowH","83","2","2","2","1","false","","","","","","","","","","","",""
"image-keyboard-response","327","276047","0.0-4.0-6.0-1.0-1.83","5c35132e48ad2900017e535e","635ab8fc87ce89828e04cd4e","635abec4b86960c1ce0b684f","null","","null","","","","","","","","./tasks/HMM-beads/Images/BlackBeadChoice.png","","","","","","","","","","","","","","","","","","",""
"image-keyboard-response","328","276548","0.0-4.0-6.0-1.0-2.83","5c35132e48ad2900017e535e","635ab8fc87ce89828e04cd4e","635abec4b86960c1ce0b684f","null","","null","","","","","","","","./tasks/HMM-beads/Images/BlackBeadChoiceWrong.png","","","","","","","","","","","","","","","","","","",""
"image-keyboard-response","329","276557","0.0-4.0-6.0-1.0-0.84","5c35132e48ad2900017e535e","635ab8fc87ce89828e04cd4e","635abec4b86960c1ce0b684f","0","","f","","","","","","","","./tasks/HMM-beads/Images/NewTrialWC.png","lowH","84","2","2","2","1","false","","","","","","","","","","","",""
"image-keyboard-response","330","276858","0.0-4.0-6.0-1.0-1.84","5c35132e48ad2900017e535e","635ab8fc87ce89828e04cd4e","635abec4b86960c1ce0b684f","null","","null","","","","","","","","./tasks/HMM-beads/Images/BlackBeadChoice.png","","","","","","","","","","","","","","","","","","",""
"image-keyboard-response","331","277360","0.0-4.0-6.0-1.0-2.84","5c35132e48ad2900017e535e","635ab8fc87ce89828e04cd4e","635abec4b86960c1ce0b684f","null","","null","","","","","","","","./tasks/HMM-beads/Images/BlackBeadChoiceWrong.png","","","","","","","","","","","","","","","","","","",""
"image-keyboard-response","332","277872","0.0-4.0-6.0-1.0-0.85","5c35132e48ad2900017e535e","635ab8fc87ce89828e04cd4e","635abec4b86960c1ce0b684f","511","","f","","","","","","","","./tasks/HMM-beads/Images/NewTrialWC.png","lowH","85","2","2","2","1","false","","","","","","","","","","","",""
"image-keyboard-response","333","278173","0.0-4.0-6.0-1.0-1.85","5c35132e48ad2900017e535e","635ab8fc87ce89828e04cd4e","635abec4b86960c1ce0b684f","null","","null","","","","","","","","./tasks/HMM-beads/Images/BlackBeadChoice.png","","","","","","","","","","","","","","","","","","",""
"image-keyboard-response","334","278679","0.0-4.0-6.0-1.0-2.85","5c35132e48ad2900017e535e","635ab8fc87ce89828e04cd4e","635abec4b86960c1ce0b684f","null","","null","","","","","","","","./tasks/HMM-beads/Images/BlackBeadChoiceWrong.png","","","","","","","","","","","","","","","","","","",""
"image-keyboard-response","335","278839","0.0-4.0-6.0-1.0-0.86","5c35132e48ad2900017e535e","635ab8fc87ce89828e04cd4e","635abec4b86960c1ce0b684f","160","","f","","","","","","","","./tasks/HMM-beads/Images/NewTrialWC.png","lowH","86","2","2","2","1","false","","","","","","","","","","","",""
"image-keyboard-response","336","279141","0.0-4.0-6.0-1.0-1.86","5c35132e48ad2900017e535e","635ab8fc87ce89828e04cd4e","635abec4b86960c1ce0b684f","null","","null","","","","","","","","./tasks/HMM-beads/Images/BlackBeadChoice.png","","","","","","","","","","","","","","","","","","",""
"image-keyboard-response","337","279645","0.0-4.0-6.0-1.0-2.86","5c35132e48ad2900017e535e","635ab8fc87ce89828e04cd4e","635abec4b86960c1ce0b684f","null","","null","","","","","","","","./tasks/HMM-beads/Images/BlackBeadChoiceWrong.png","","","","","","","","","","","","","","","","","","",""
"image-keyboard-response","338","279786","0.0-4.0-6.0-1.0-0.87","5c35132e48ad2900017e535e","635ab8fc87ce89828e04cd4e","635abec4b86960c1ce0b684f","140","","f","","","","","","","","./tasks/HMM-beads/Images/NewTrialWC.png","lowH","87","2","2","2","1","false","","","","","","","","","","","",""
