"trial_type","trial_index","time_elapsed","internal_node_id","subject_id","study_id","session_id","rt","url","response","question_order","view_history","success","timeout","failed_images","failed_audio","failed_video","stimulus","block","trial_number","jar","bead","previous_bead","choice","correct","highH_score","lowH_score","state","rewarded","state1_action","state2_visited","state1_key","state2_key","state1_rt","state2_rt","two_arm_score_block1","block_num","seq_file","trial_seq_info","two_arm_score_block2","two_arm_score_total","total_bonus"
"pavlovia","0","1512","0.0-0.0","5fd6ebe9b77a3d65df0c0674","63690f60c96a0a9a64b48fbd","63691953923e988ada92a355","","","","","","","","","","","","","","","","","","","","","","","","","","","","","","","","","","",""
"external-html","1","34748","0.0-1.0-0.0","5fd6ebe9b77a3d65df0c0674","63690f60c96a0a9a64b48fbd","63691953923e988ada92a355","32823","new_consent.html","","","","","","","","","","","","","","","","","","","","","","","","","","","","","","","","",""
"survey-multi-choice","2","43432","0.0-1.0-1.0","5fd6ebe9b77a3d65df0c0674","63690f60c96a0a9a64b48fbd","63691953923e988ada92a355","8678","","{""Q0"":""Female"",""Q1"":""Hispanic or Latino""}","[0,1]","","","","","","","","","","","","","","","","","","","","","","","","","","","","","","",""
"survey-text","3","47666","0.0-1.0-2.0","5fd6ebe9b77a3d65df0c0674","63690f60c96a0a9a64b48fbd","63691953923e988ada92a355","4226","","{""Q0"":""26""}","","","","","","","","","","","","","","","","","","","","","","","","","","","","","","","",""
"instructions","4","71489","0.0-2.0","5fd6ebe9b77a3d65df0c0674","63690f60c96a0a9a64b48fbd","63691953923e988ada92a355","23720","","","","[{""page_index"":0,""viewing_time"":21818},{""page_index"":1,""viewing_time"":1899}]","","","","","","","","","","","","","","","","","","","","","","","","","","","","","",""
"instructions","5","73456","0.0-3.0","5fd6ebe9b77a3d65df0c0674","63690f60c96a0a9a64b48fbd","63691953923e988ada92a355","1966","","","","[{""page_index"":0,""viewing_time"":1965}]","","","","","","","","","","","","","","","","","","","","","","","","","","","","","",""
"preload","6","75668","0.0-4.0-0.0","5fd6ebe9b77a3d65df0c0674","63690f60c96a0a9a64b48fbd","63691953923e988ada92a355","","","","","","true","false","[]","[]","[]","","","","","","","","","","","","","","","","","","","","","","","","",""
"instructions","7","263584","0.0-4.0-1.0","5fd6ebe9b77a3d65df0c0674","63690f60c96a0a9a64b48fbd","63691953923e988ada92a355","187916","","","","[{""page_index"":0,""viewing_time"":36719},{""page_index"":1,""viewing_time"":13165},{""page_index"":2,""viewing_time"":20448},{""page_index"":3,""viewing_time"":6969},{""page_index"":4,""viewing_time"":20448},{""page_index"":5,""viewing_time"":36783},{""page_index"":6,""viewing_time"":7610},{""page_index"":7,""viewing_time"":13193},{""page_index"":8,""viewing_time"":12317},{""page_index"":9,""viewing_time"":6329},{""page_index"":10,""viewing_time"":10674},{""page_index"":11,""viewing_time"":3260}]","","","","","","","","","","","","","","","","","","","","","","","","","","","","","",""
"html-button-response","8","269745","0.0-4.0-2.0-0.0-0.0","5fd6ebe9b77a3d65df0c0674","63690f60c96a0a9a64b48fbd","63691953923e988ada92a355","6158","","1","","","","","","","","<div align=center>Your goal is to predict…?<br><br></div>","","","","","","","","","","","","","","","","","","","","","","","",""
"html-button-response","9","279846","0.0-4.0-2.0-1.0-0.0","5fd6ebe9b77a3d65df0c0674","63690f60c96a0a9a64b48fbd","63691953923e988ada92a355","7974","","2","","","","","","","","<div align=center>In the jar with mostly white beads, there are ___% white beads and ___% black beads?<br><br></div>","","","","","","","","","","","","","","","","","","","","","","","",""
"html-button-response","10","290499","0.0-4.0-2.0-2.0-0.0","5fd6ebe9b77a3d65df0c0674","63690f60c96a0a9a64b48fbd","63691953923e988ada92a355","9019","","0","","","","","","","","<div align=center>When there is a 1% probability that the jars will switch, the next bead will most likely be drawn from the…<br><br></div>","","","","","","","","","","","","","","","","","","","","","","","",""
"html-button-response","11","294200","0.0-4.0-2.0-3.0-0.0","5fd6ebe9b77a3d65df0c0674","63690f60c96a0a9a64b48fbd","63691953923e988ada92a355","2048","","1","","","","","","","","<div align=center>When there is a 99% probability that the jars will switch, the next bead will most likely be drawn from the…<br><br></div>","","","","","","","","","","","","","","","","","","","","","","","",""
"instructions","12","315022","0.0-4.0-3.0","5fd6ebe9b77a3d65df0c0674","63690f60c96a0a9a64b48fbd","63691953923e988ada92a355","19356","","","","[{""page_index"":0,""viewing_time"":19355}]","","","","","","","","","","","","","","","","","","","","","","","","","","","","","",""
"html-keyboard-response","13","334982","0.0-4.0-4.0-0.0","5fd6ebe9b77a3d65df0c0674","63690f60c96a0a9a64b48fbd","63691953923e988ada92a355","19955",""," ","","","","","","","","<div align=center>In this practice block, there will be a <b>10% chance</b> that the jar on the next trial will be different from the jar on the current trial.<br><br></div>","","","","","","","","","","","","","","","","","","","","","","","",""
"image-keyboard-response","14","341906","0.0-4.0-4.0-1.0-0.0","5fd6ebe9b77a3d65df0c0674","63690f60c96a0a9a64b48fbd","63691953923e988ada92a355","6907","","f","","","","","","","","./tasks/HMM-beads/Images/NoChoice.png","practice","0","1","1","0","1","true","","","","","","","","","","","","","","","","",""
"image-keyboard-response","15","342212","0.0-4.0-4.0-1.0-1.0","5fd6ebe9b77a3d65df0c0674","63690f60c96a0a9a64b48fbd","63691953923e988ada92a355","null","","null","","","","","","","","./tasks/HMM-beads/Images/BlackBeadChoice.png","","","","","","","","","","","","","","","","","","","","","","","",""
"image-keyboard-response","16","342718","0.0-4.0-4.0-1.0-2.0","5fd6ebe9b77a3d65df0c0674","63690f60c96a0a9a64b48fbd","63691953923e988ada92a355","null","","null","","","","","","","","./tasks/HMM-beads/Images/BlackBeadChoiceCorrect.png","","","","","","","","","","","","","","","","","","","","","","","",""
"image-keyboard-response","17","344454","0.0-4.0-4.0-1.0-0.1","5fd6ebe9b77a3d65df0c0674","63690f60c96a0a9a64b48fbd","63691953923e988ada92a355","1732","","f","","","","","","","","./tasks/HMM-beads/Images/NewTrialBC.png","practice","1","1","1","1","1","true","","","","","","","","","","","","","","","","",""
"image-keyboard-response","18","344758","0.0-4.0-4.0-1.0-1.1","5fd6ebe9b77a3d65df0c0674","63690f60c96a0a9a64b48fbd","63691953923e988ada92a355","null","","null","","","","","","","","./tasks/HMM-beads/Images/BlackBeadChoice.png","","","","","","","","","","","","","","","","","","","","","","","",""
"image-keyboard-response","19","345262","0.0-4.0-4.0-1.0-2.1","5fd6ebe9b77a3d65df0c0674","63690f60c96a0a9a64b48fbd","63691953923e988ada92a355","null","","null","","","","","","","","./tasks/HMM-beads/Images/BlackBeadChoiceCorrect.png","","","","","","","","","","","","","","","","","","","","","","","",""
"image-keyboard-response","20","346168","0.0-4.0-4.0-1.0-0.2","5fd6ebe9b77a3d65df0c0674","63690f60c96a0a9a64b48fbd","63691953923e988ada92a355","902","","f","","","","","","","","./tasks/HMM-beads/Images/NewTrialBC.png","practice","2","1","2","1","1","false","","","","","","","","","","","","","","","","",""
"image-keyboard-response","21","346472","0.0-4.0-4.0-1.0-1.2","5fd6ebe9b77a3d65df0c0674","63690f60c96a0a9a64b48fbd","63691953923e988ada92a355","null","","null","","","","","","","","./tasks/HMM-beads/Images/BlackBeadChoice.png","","","","","","","","","","","","","","","","","","","","","","","",""
"image-keyboard-response","22","346976","0.0-4.0-4.0-1.0-2.2","5fd6ebe9b77a3d65df0c0674","63690f60c96a0a9a64b48fbd","63691953923e988ada92a355","null","","null","","","","","","","","./tasks/HMM-beads/Images/BlackBeadChoiceWrong.png","","","","","","","","","","","","","","","","","","","","","","","",""
"image-keyboard-response","23","348319","0.0-4.0-4.0-1.0-0.3","5fd6ebe9b77a3d65df0c0674","63690f60c96a0a9a64b48fbd","63691953923e988ada92a355","1331","","f","","","","","","","","./tasks/HMM-beads/Images/NewTrialWC.png","practice","3","1","1","2","1","true","","","","","","","","","","","","","","","","",""
"image-keyboard-response","24","348624","0.0-4.0-4.0-1.0-1.3","5fd6ebe9b77a3d65df0c0674","63690f60c96a0a9a64b48fbd","63691953923e988ada92a355","null","","null","","","","","","","","./tasks/HMM-beads/Images/BlackBeadChoice.png","","","","","","","","","","","","","","","","","","","","","","","",""
"image-keyboard-response","25","349126","0.0-4.0-4.0-1.0-2.3","5fd6ebe9b77a3d65df0c0674","63690f60c96a0a9a64b48fbd","63691953923e988ada92a355","null","","null","","","","","","","","./tasks/HMM-beads/Images/BlackBeadChoiceCorrect.png","","","","","","","","","","","","","","","","","","","","","","","",""
"image-keyboard-response","26","350396","0.0-4.0-4.0-1.0-0.4","5fd6ebe9b77a3d65df0c0674","63690f60c96a0a9a64b48fbd","63691953923e988ada92a355","1267","","f","","","","","","","","./tasks/HMM-beads/Images/NewTrialBC.png","practice","4","1","2","1","1","false","","","","","","","","","","","","","","","","",""
"image-keyboard-response","27","350699","0.0-4.0-4.0-1.0-1.4","5fd6ebe9b77a3d65df0c0674","63690f60c96a0a9a64b48fbd","63691953923e988ada92a355","null","","null","","","","","","","","./tasks/HMM-beads/Images/BlackBeadChoice.png","","","","","","","","","","","","","","","","","","","","","","","",""
"image-keyboard-response","28","351202","0.0-4.0-4.0-1.0-2.4","5fd6ebe9b77a3d65df0c0674","63690f60c96a0a9a64b48fbd","63691953923e988ada92a355","null","","null","","","","","","","","./tasks/HMM-beads/Images/BlackBeadChoiceWrong.png","","","","","","","","","","","","","","","","","","","","","","","",""
"image-keyboard-response","29","352210","0.0-4.0-4.0-1.0-0.5","5fd6ebe9b77a3d65df0c0674","63690f60c96a0a9a64b48fbd","63691953923e988ada92a355","1005","","f","","","","","","","","./tasks/HMM-beads/Images/NewTrialWC.png","practice","5","1","1","2","1","true","","","","","","","","","","","","","","","","",""
"image-keyboard-response","30","352513","0.0-4.0-4.0-1.0-1.5","5fd6ebe9b77a3d65df0c0674","63690f60c96a0a9a64b48fbd","63691953923e988ada92a355","null","","null","","","","","","","","./tasks/HMM-beads/Images/BlackBeadChoice.png","","","","","","","","","","","","","","","","","","","","","","","",""
"image-keyboard-response","31","353016","0.0-4.0-4.0-1.0-2.5","5fd6ebe9b77a3d65df0c0674","63690f60c96a0a9a64b48fbd","63691953923e988ada92a355","null","","null","","","","","","","","./tasks/HMM-beads/Images/BlackBeadChoiceCorrect.png","","","","","","","","","","","","","","","","","","","","","","","",""
"image-keyboard-response","32","354248","0.0-4.0-4.0-1.0-0.6","5fd6ebe9b77a3d65df0c0674","63690f60c96a0a9a64b48fbd","63691953923e988ada92a355","1229","","f","","","","","","","","./tasks/HMM-beads/Images/NewTrialBC.png","practice","6","1","2","1","1","false","","","","","","","","","","","","","","","","",""
"image-keyboard-response","33","354551","0.0-4.0-4.0-1.0-1.6","5fd6ebe9b77a3d65df0c0674","63690f60c96a0a9a64b48fbd","63691953923e988ada92a355","null","","null","","","","","","","","./tasks/HMM-beads/Images/BlackBeadChoice.png","","","","","","","","","","","","","","","","","","","","","","","",""
"image-keyboard-response","34","355054","0.0-4.0-4.0-1.0-2.6","5fd6ebe9b77a3d65df0c0674","63690f60c96a0a9a64b48fbd","63691953923e988ada92a355","null","","null","","","","","","","","./tasks/HMM-beads/Images/BlackBeadChoiceWrong.png","","","","","","","","","","","","","","","","","","","","","","","",""
"image-keyboard-response","35","355947","0.0-4.0-4.0-1.0-0.7","5fd6ebe9b77a3d65df0c0674","63690f60c96a0a9a64b48fbd","63691953923e988ada92a355","890","","f","","","","","","","","./tasks/HMM-beads/Images/NewTrialWC.png","practice","7","1","1","2","1","true","","","","","","","","","","","","","","","","",""
"image-keyboard-response","36","356250","0.0-4.0-4.0-1.0-1.7","5fd6ebe9b77a3d65df0c0674","63690f60c96a0a9a64b48fbd","63691953923e988ada92a355","null","","null","","","","","","","","./tasks/HMM-beads/Images/BlackBeadChoice.png","","","","","","","","","","","","","","","","","","","","","","","",""
"image-keyboard-response","37","356752","0.0-4.0-4.0-1.0-2.7","5fd6ebe9b77a3d65df0c0674","63690f60c96a0a9a64b48fbd","63691953923e988ada92a355","null","","null","","","","","","","","./tasks/HMM-beads/Images/BlackBeadChoiceCorrect.png","","","","","","","","","","","","","","","","","","","","","","","",""
"image-keyboard-response","38","357584","0.0-4.0-4.0-1.0-0.8","5fd6ebe9b77a3d65df0c0674","63690f60c96a0a9a64b48fbd","63691953923e988ada92a355","829","","j","","","","","","","","./tasks/HMM-beads/Images/NewTrialBC.png","practice","8","1","1","1","2","false","","","","","","","","","","","","","","","","",""
"image-keyboard-response","39","357886","0.0-4.0-4.0-1.0-1.8","5fd6ebe9b77a3d65df0c0674","63690f60c96a0a9a64b48fbd","63691953923e988ada92a355","null","","null","","","","","","","","./tasks/HMM-beads/Images/WhiteBeadChoice.png","","","","","","","","","","","","","","","","","","","","","","","",""
"image-keyboard-response","40","358389","0.0-4.0-4.0-1.0-2.8","5fd6ebe9b77a3d65df0c0674","63690f60c96a0a9a64b48fbd","63691953923e988ada92a355","null","","null","","","","","","","","./tasks/HMM-beads/Images/WhiteBeadChoiceWrong.png","","","","","","","","","","","","","","","","","","","","","","","",""
"image-keyboard-response","41","359226","0.0-4.0-4.0-1.0-0.9","5fd6ebe9b77a3d65df0c0674","63690f60c96a0a9a64b48fbd","63691953923e988ada92a355","834","","f","","","","","","","","./tasks/HMM-beads/Images/NewTrialBC.png","practice","9","2","2","1","1","false","","","","","","","","","","","","","","","","",""
"image-keyboard-response","42","359530","0.0-4.0-4.0-1.0-1.9","5fd6ebe9b77a3d65df0c0674","63690f60c96a0a9a64b48fbd","63691953923e988ada92a355","null","","null","","","","","","","","./tasks/HMM-beads/Images/BlackBeadChoice.png","","","","","","","","","","","","","","","","","","","","","","","",""
"image-keyboard-response","43","360032","0.0-4.0-4.0-1.0-2.9","5fd6ebe9b77a3d65df0c0674","63690f60c96a0a9a64b48fbd","63691953923e988ada92a355","null","","null","","","","","","","","./tasks/HMM-beads/Images/BlackBeadChoiceWrong.png","","","","","","","","","","","","","","","","","","","","","","","",""
"image-keyboard-response","44","361052","0.0-4.0-4.0-1.0-0.10","5fd6ebe9b77a3d65df0c0674","63690f60c96a0a9a64b48fbd","63691953923e988ada92a355","1007","","f","","","","","","","","./tasks/HMM-beads/Images/NewTrialWC.png","practice","10","2","1","2","1","true","","","","","","","","","","","","","","","","",""
"image-keyboard-response","45","361356","0.0-4.0-4.0-1.0-1.10","5fd6ebe9b77a3d65df0c0674","63690f60c96a0a9a64b48fbd","63691953923e988ada92a355","null","","null","","","","","","","","./tasks/HMM-beads/Images/BlackBeadChoice.png","","","","","","","","","","","","","","","","","","","","","","","",""
"image-keyboard-response","46","361859","0.0-4.0-4.0-1.0-2.10","5fd6ebe9b77a3d65df0c0674","63690f60c96a0a9a64b48fbd","63691953923e988ada92a355","null","","null","","","","","","","","./tasks/HMM-beads/Images/BlackBeadChoiceCorrect.png","","","","","","","","","","","","","","","","","","","","","","","",""
"image-keyboard-response","47","362533","0.0-4.0-4.0-1.0-0.11","5fd6ebe9b77a3d65df0c0674","63690f60c96a0a9a64b48fbd","63691953923e988ada92a355","672","","f","","","","","","","","./tasks/HMM-beads/Images/NewTrialBC.png","practice","11","2","2","1","1","false","","","","","","","","","","","","","","","","",""
"image-keyboard-response","48","362836","0.0-4.0-4.0-1.0-1.11","5fd6ebe9b77a3d65df0c0674","63690f60c96a0a9a64b48fbd","63691953923e988ada92a355","null","","null","","","","","","","","./tasks/HMM-beads/Images/BlackBeadChoice.png","","","","","","","","","","","","","","","","","","","","","","","",""
"image-keyboard-response","49","363339","0.0-4.0-4.0-1.0-2.11","5fd6ebe9b77a3d65df0c0674","63690f60c96a0a9a64b48fbd","63691953923e988ada92a355","null","","null","","","","","","","","./tasks/HMM-beads/Images/BlackBeadChoiceWrong.png","","","","","","","","","","","","","","","","","","","","","","","",""
"image-keyboard-response","50","364096","0.0-4.0-4.0-1.0-0.12","5fd6ebe9b77a3d65df0c0674","63690f60c96a0a9a64b48fbd","63691953923e988ada92a355","754","","f","","","","","","","","./tasks/HMM-beads/Images/NewTrialWC.png","practice","12","2","2","2","1","false","","","","","","","","","","","","","","","","",""
"image-keyboard-response","51","364399","0.0-4.0-4.0-1.0-1.12","5fd6ebe9b77a3d65df0c0674","63690f60c96a0a9a64b48fbd","63691953923e988ada92a355","null","","null","","","","","","","","./tasks/HMM-beads/Images/BlackBeadChoice.png","","","","","","","","","","","","","","","","","","","","","","","",""
"image-keyboard-response","52","364902","0.0-4.0-4.0-1.0-2.12","5fd6ebe9b77a3d65df0c0674","63690f60c96a0a9a64b48fbd","63691953923e988ada92a355","null","","null","","","","","","","","./tasks/HMM-beads/Images/BlackBeadChoiceWrong.png","","","","","","","","","","","","","","","","","","","","","","","",""
"image-keyboard-response","53","366980","0.0-4.0-4.0-1.0-0.13","5fd6ebe9b77a3d65df0c0674","63690f60c96a0a9a64b48fbd","63691953923e988ada92a355","2076","","j","","","","","","","","./tasks/HMM-beads/Images/NewTrialWC.png","practice","13","2","2","2","2","true","","","","","","","","","","","","","","","","",""
"image-keyboard-response","54","367292","0.0-4.0-4.0-1.0-1.13","5fd6ebe9b77a3d65df0c0674","63690f60c96a0a9a64b48fbd","63691953923e988ada92a355","null","","null","","","","","","","","./tasks/HMM-beads/Images/WhiteBeadChoice.png","","","","","","","","","","","","","","","","","","","","","","","",""
"image-keyboard-response","55","367795","0.0-4.0-4.0-1.0-2.13","5fd6ebe9b77a3d65df0c0674","63690f60c96a0a9a64b48fbd","63691953923e988ada92a355","null","","null","","","","","","","","./tasks/HMM-beads/Images/WhiteBeadChoiceCorrect.png","","","","","","","","","","","","","","","","","","","","","","","",""
"image-keyboard-response","56","368578","0.0-4.0-4.0-1.0-0.14","5fd6ebe9b77a3d65df0c0674","63690f60c96a0a9a64b48fbd","63691953923e988ada92a355","781","","j","","","","","","","","./tasks/HMM-beads/Images/NewTrialWC.png","practice","14","2","2","2","2","true","","","","","","","","","","","","","","","","",""
"image-keyboard-response","57","368881","0.0-4.0-4.0-1.0-1.14","5fd6ebe9b77a3d65df0c0674","63690f60c96a0a9a64b48fbd","63691953923e988ada92a355","null","","null","","","","","","","","./tasks/HMM-beads/Images/WhiteBeadChoice.png","","","","","","","","","","","","","","","","","","","","","","","",""
"image-keyboard-response","58","369384","0.0-4.0-4.0-1.0-2.14","5fd6ebe9b77a3d65df0c0674","63690f60c96a0a9a64b48fbd","63691953923e988ada92a355","null","","null","","","","","","","","./tasks/HMM-beads/Images/WhiteBeadChoiceCorrect.png","","","","","","","","","","","","","","","","","","","","","","","",""
"image-keyboard-response","59","370013","0.0-4.0-4.0-1.0-0.15","5fd6ebe9b77a3d65df0c0674","63690f60c96a0a9a64b48fbd","63691953923e988ada92a355","627","","j","","","","","","","","./tasks/HMM-beads/Images/NewTrialWC.png","practice","15","1","1","2","2","false","","","","","","","","","","","","","","","","",""
"image-keyboard-response","60","370316","0.0-4.0-4.0-1.0-1.15","5fd6ebe9b77a3d65df0c0674","63690f60c96a0a9a64b48fbd","63691953923e988ada92a355","null","","null","","","","","","","","./tasks/HMM-beads/Images/WhiteBeadChoice.png","","","","","","","","","","","","","","","","","","","","","","","",""
"image-keyboard-response","61","370819","0.0-4.0-4.0-1.0-2.15","5fd6ebe9b77a3d65df0c0674","63690f60c96a0a9a64b48fbd","63691953923e988ada92a355","null","","null","","","","","","","","./tasks/HMM-beads/Images/WhiteBeadChoiceWrong.png","","","","","","","","","","","","","","","","","","","","","","","",""
"image-keyboard-response","62","371586","0.0-4.0-4.0-1.0-0.16","5fd6ebe9b77a3d65df0c0674","63690f60c96a0a9a64b48fbd","63691953923e988ada92a355","764","","f","","","","","","","","./tasks/HMM-beads/Images/NewTrialBC.png","practice","16","1","2","1","1","false","","","","","","","","","","","","","","","","",""
"image-keyboard-response","63","371889","0.0-4.0-4.0-1.0-1.16","5fd6ebe9b77a3d65df0c0674","63690f60c96a0a9a64b48fbd","63691953923e988ada92a355","null","","null","","","","","","","","./tasks/HMM-beads/Images/BlackBeadChoice.png","","","","","","","","","","","","","","","","","","","","","","","",""
"image-keyboard-response","64","372392","0.0-4.0-4.0-1.0-2.16","5fd6ebe9b77a3d65df0c0674","63690f60c96a0a9a64b48fbd","63691953923e988ada92a355","null","","null","","","","","","","","./tasks/HMM-beads/Images/BlackBeadChoiceWrong.png","","","","","","","","","","","","","","","","","","","","","","","",""
"image-keyboard-response","65","373091","0.0-4.0-4.0-1.0-0.17","5fd6ebe9b77a3d65df0c0674","63690f60c96a0a9a64b48fbd","63691953923e988ada92a355","697","","f","","","","","","","","./tasks/HMM-beads/Images/NewTrialWC.png","practice","17","1","1","2","1","true","","","","","","","","","","","","","","","","",""
"image-keyboard-response","66","373395","0.0-4.0-4.0-1.0-1.17","5fd6ebe9b77a3d65df0c0674","63690f60c96a0a9a64b48fbd","63691953923e988ada92a355","null","","null","","","","","","","","./tasks/HMM-beads/Images/BlackBeadChoice.png","","","","","","","","","","","","","","","","","","","","","","","",""
"image-keyboard-response","67","373898","0.0-4.0-4.0-1.0-2.17","5fd6ebe9b77a3d65df0c0674","63690f60c96a0a9a64b48fbd","63691953923e988ada92a355","null","","null","","","","","","","","./tasks/HMM-beads/Images/BlackBeadChoiceCorrect.png","","","","","","","","","","","","","","","","","","","","","","","",""
"image-keyboard-response","68","374645","0.0-4.0-4.0-1.0-0.18","5fd6ebe9b77a3d65df0c0674","63690f60c96a0a9a64b48fbd","63691953923e988ada92a355","745","","f","","","","","","","","./tasks/HMM-beads/Images/NewTrialBC.png","practice","18","1","1","1","1","true","","","","","","","","","","","","","","","","",""
"image-keyboard-response","69","374948","0.0-4.0-4.0-1.0-1.18","5fd6ebe9b77a3d65df0c0674","63690f60c96a0a9a64b48fbd","63691953923e988ada92a355","null","","null","","","","","","","","./tasks/HMM-beads/Images/BlackBeadChoice.png","","","","","","","","","","","","","","","","","","","","","","","",""
"image-keyboard-response","70","375451","0.0-4.0-4.0-1.0-2.18","5fd6ebe9b77a3d65df0c0674","63690f60c96a0a9a64b48fbd","63691953923e988ada92a355","null","","null","","","","","","","","./tasks/HMM-beads/Images/BlackBeadChoiceCorrect.png","","","","","","","","","","","","","","","","","","","","","","","",""
"image-keyboard-response","71","376228","0.0-4.0-4.0-1.0-0.19","5fd6ebe9b77a3d65df0c0674","63690f60c96a0a9a64b48fbd","63691953923e988ada92a355","774","","j","","","","","","","","./tasks/HMM-beads/Images/NewTrialBC.png","practice","19","1","1","1","2","false","","","","","","","","","","","","","","","","",""
"image-keyboard-response","72","376530","0.0-4.0-4.0-1.0-1.19","5fd6ebe9b77a3d65df0c0674","63690f60c96a0a9a64b48fbd","63691953923e988ada92a355","null","","null","","","","","","","","./tasks/HMM-beads/Images/WhiteBeadChoice.png","","","","","","","","","","","","","","","","","","","","","","","",""
"image-keyboard-response","73","377033","0.0-4.0-4.0-1.0-2.19","5fd6ebe9b77a3d65df0c0674","63690f60c96a0a9a64b48fbd","63691953923e988ada92a355","null","","null","","","","","","","","./tasks/HMM-beads/Images/WhiteBeadChoiceWrong.png","","","","","","","","","","","","","","","","","","","","","","","",""
"html-keyboard-response","74","383059","0.0-4.0-4.0-2.0","5fd6ebe9b77a3d65df0c0674","63690f60c96a0a9a64b48fbd","63691953923e988ada92a355","6024",""," ","","","","","","","","","","","","","","","","","","","","","","","","","","","","","","","",""
"instructions","75","495858","0.0-4.0-5.0","5fd6ebe9b77a3d65df0c0674","63690f60c96a0a9a64b48fbd","63691953923e988ada92a355","112797","","","","[{""page_index"":0,""viewing_time"":98125},{""page_index"":1,""viewing_time"":14671}]","","","","","","","","","","","","","","","","","","","","","","","","","","","","","",""
"html-keyboard-response","76","1027919","0.0-4.0-6.0-0.0","5fd6ebe9b77a3d65df0c0674","63690f60c96a0a9a64b48fbd","63691953923e988ada92a355","532059",""," ","","","","","","","","<div align=center>In this block, there will be a <b>99%</b> chance that the jar on the next trial will be different from the jar on the current trial.<br><br></div>","","","","","","","","","","","","","","","","","","","","","","","",""
"image-keyboard-response","77","1029509","0.0-4.0-6.0-1.0-0.0","5fd6ebe9b77a3d65df0c0674","63690f60c96a0a9a64b48fbd","63691953923e988ada92a355","1587","","f","","","","","","","","./tasks/HMM-beads/Images/NoChoice.png","highH","0","1","1","0","1","true","","","","","","","","","","","","","","","","",""
"image-keyboard-response","78","1029813","0.0-4.0-6.0-1.0-1.0","5fd6ebe9b77a3d65df0c0674","63690f60c96a0a9a64b48fbd","63691953923e988ada92a355","null","","null","","","","","","","","./tasks/HMM-beads/Images/BlackBeadChoice.png","","","","","","","","","","","","","","","","","","","","","","","",""
"image-keyboard-response","79","1030316","0.0-4.0-6.0-1.0-2.0","5fd6ebe9b77a3d65df0c0674","63690f60c96a0a9a64b48fbd","63691953923e988ada92a355","null","","null","","","","","","","","./tasks/HMM-beads/Images/BlackBeadChoiceCorrect.png","","","","","","","","","","","","","","","","","","","","","","","",""
"image-keyboard-response","80","1031764","0.0-4.0-6.0-1.0-0.1","5fd6ebe9b77a3d65df0c0674","63690f60c96a0a9a64b48fbd","63691953923e988ada92a355","1446","","f","","","","","","","","./tasks/HMM-beads/Images/NewTrialBC.png","highH","1","2","2","1","1","false","","","","","","","","","","","","","","","","",""
"image-keyboard-response","81","1032068","0.0-4.0-6.0-1.0-1.1","5fd6ebe9b77a3d65df0c0674","63690f60c96a0a9a64b48fbd","63691953923e988ada92a355","null","","null","","","","","","","","./tasks/HMM-beads/Images/BlackBeadChoice.png","","","","","","","","","","","","","","","","","","","","","","","",""
"image-keyboard-response","82","1032571","0.0-4.0-6.0-1.0-2.1","5fd6ebe9b77a3d65df0c0674","63690f60c96a0a9a64b48fbd","63691953923e988ada92a355","null","","null","","","","","","","","./tasks/HMM-beads/Images/BlackBeadChoiceWrong.png","","","","","","","","","","","","","","","","","","","","","","","",""
"image-keyboard-response","83","1034461","0.0-4.0-6.0-1.0-0.2","5fd6ebe9b77a3d65df0c0674","63690f60c96a0a9a64b48fbd","63691953923e988ada92a355","1887","","f","","","","","","","","./tasks/HMM-beads/Images/NewTrialWC.png","highH","2","1","1","2","1","true","","","","","","","","","","","","","","","","",""
"image-keyboard-response","84","1034764","0.0-4.0-6.0-1.0-1.2","5fd6ebe9b77a3d65df0c0674","63690f60c96a0a9a64b48fbd","63691953923e988ada92a355","null","","null","","","","","","","","./tasks/HMM-beads/Images/BlackBeadChoice.png","","","","","","","","","","","","","","","","","","","","","","","",""
"image-keyboard-response","85","1035267","0.0-4.0-6.0-1.0-2.2","5fd6ebe9b77a3d65df0c0674","63690f60c96a0a9a64b48fbd","63691953923e988ada92a355","null","","null","","","","","","","","./tasks/HMM-beads/Images/BlackBeadChoiceCorrect.png","","","","","","","","","","","","","","","","","","","","","","","",""
"image-keyboard-response","86","1036243","0.0-4.0-6.0-1.0-0.3","5fd6ebe9b77a3d65df0c0674","63690f60c96a0a9a64b48fbd","63691953923e988ada92a355","973","","j","","","","","","","","./tasks/HMM-beads/Images/NewTrialBC.png","highH","3","2","2","1","2","true","","","","","","","","","","","","","","","","",""
"image-keyboard-response","87","1036546","0.0-4.0-6.0-1.0-1.3","5fd6ebe9b77a3d65df0c0674","63690f60c96a0a9a64b48fbd","63691953923e988ada92a355","null","","null","","","","","","","","./tasks/HMM-beads/Images/WhiteBeadChoice.png","","","","","","","","","","","","","","","","","","","","","","","",""
"image-keyboard-response","88","1037049","0.0-4.0-6.0-1.0-2.3","5fd6ebe9b77a3d65df0c0674","63690f60c96a0a9a64b48fbd","63691953923e988ada92a355","null","","null","","","","","","","","./tasks/HMM-beads/Images/WhiteBeadChoiceCorrect.png","","","","","","","","","","","","","","","","","","","","","","","",""
"image-keyboard-response","89","1037906","0.0-4.0-6.0-1.0-0.4","5fd6ebe9b77a3d65df0c0674","63690f60c96a0a9a64b48fbd","63691953923e988ada92a355","846","","f","","","","","","","","./tasks/HMM-beads/Images/NewTrialWC.png","highH","4","1","1","2","1","true","","","","","","","","","","","","","","","","",""
"image-keyboard-response","90","1038209","0.0-4.0-6.0-1.0-1.4","5fd6ebe9b77a3d65df0c0674","63690f60c96a0a9a64b48fbd","63691953923e988ada92a355","null","","null","","","","","","","","./tasks/HMM-beads/Images/BlackBeadChoice.png","","","","","","","","","","","","","","","","","","","","","","","",""
"image-keyboard-response","91","1038712","0.0-4.0-6.0-1.0-2.4","5fd6ebe9b77a3d65df0c0674","63690f60c96a0a9a64b48fbd","63691953923e988ada92a355","null","","null","","","","","","","","./tasks/HMM-beads/Images/BlackBeadChoiceCorrect.png","","","","","","","","","","","","","","","","","","","","","","","",""
"image-keyboard-response","92","1039210","0.0-4.0-6.0-1.0-0.5","5fd6ebe9b77a3d65df0c0674","63690f60c96a0a9a64b48fbd","63691953923e988ada92a355","495","","j","","","","","","","","./tasks/HMM-beads/Images/NewTrialBC.png","highH","5","2","2","1","2","true","","","","","","","","","","","","","","","","",""
"image-keyboard-response","93","1039513","0.0-4.0-6.0-1.0-1.5","5fd6ebe9b77a3d65df0c0674","63690f60c96a0a9a64b48fbd","63691953923e988ada92a355","null","","null","","","","","","","","./tasks/HMM-beads/Images/WhiteBeadChoice.png","","","","","","","","","","","","","","","","","","","","","","","",""
"image-keyboard-response","94","1040015","0.0-4.0-6.0-1.0-2.5","5fd6ebe9b77a3d65df0c0674","63690f60c96a0a9a64b48fbd","63691953923e988ada92a355","null","","null","","","","","","","","./tasks/HMM-beads/Images/WhiteBeadChoiceCorrect.png","","","","","","","","","","","","","","","","","","","","","","","",""
"image-keyboard-response","95","1040443","0.0-4.0-6.0-1.0-0.6","5fd6ebe9b77a3d65df0c0674","63690f60c96a0a9a64b48fbd","63691953923e988ada92a355","424","","f","","","","","","","","./tasks/HMM-beads/Images/NewTrialWC.png","highH","6","1","1","2","1","true","","","","","","","","","","","","","","","","",""
"image-keyboard-response","96","1040746","0.0-4.0-6.0-1.0-1.6","5fd6ebe9b77a3d65df0c0674","63690f60c96a0a9a64b48fbd","63691953923e988ada92a355","null","","null","","","","","","","","./tasks/HMM-beads/Images/BlackBeadChoice.png","","","","","","","","","","","","","","","","","","","","","","","",""
"image-keyboard-response","97","1041248","0.0-4.0-6.0-1.0-2.6","5fd6ebe9b77a3d65df0c0674","63690f60c96a0a9a64b48fbd","63691953923e988ada92a355","null","","null","","","","","","","","./tasks/HMM-beads/Images/BlackBeadChoiceCorrect.png","","","","","","","","","","","","","","","","","","","","","","","",""
"image-keyboard-response","98","1041550","0.0-4.0-6.0-1.0-0.7","5fd6ebe9b77a3d65df0c0674","63690f60c96a0a9a64b48fbd","63691953923e988ada92a355","291","","j","","","","","","","","./tasks/HMM-beads/Images/NewTrialBC.png","highH","7","2","1","1","2","false","","","","","","","","","","","","","","","","",""
"image-keyboard-response","99","1041853","0.0-4.0-6.0-1.0-1.7","5fd6ebe9b77a3d65df0c0674","63690f60c96a0a9a64b48fbd","63691953923e988ada92a355","null","","null","","","","","","","","./tasks/HMM-beads/Images/WhiteBeadChoice.png","","","","","","","","","","","","","","","","","","","","","","","",""
"image-keyboard-response","100","1042357","0.0-4.0-6.0-1.0-2.7","5fd6ebe9b77a3d65df0c0674","63690f60c96a0a9a64b48fbd","63691953923e988ada92a355","null","","null","","","","","","","","./tasks/HMM-beads/Images/WhiteBeadChoiceWrong.png","","","","","","","","","","","","","","","","","","","","","","","",""
"image-keyboard-response","101","1043309","0.0-4.0-6.0-1.0-0.8","5fd6ebe9b77a3d65df0c0674","63690f60c96a0a9a64b48fbd","63691953923e988ada92a355","949","","j","","","","","","","","./tasks/HMM-beads/Images/NewTrialBC.png","highH","8","1","1","1","2","false","","","","","","","","","","","","","","","","",""
"image-keyboard-response","102","1043612","0.0-4.0-6.0-1.0-1.8","5fd6ebe9b77a3d65df0c0674","63690f60c96a0a9a64b48fbd","63691953923e988ada92a355","null","","null","","","","","","","","./tasks/HMM-beads/Images/WhiteBeadChoice.png","","","","","","","","","","","","","","","","","","","","","","","",""
"image-keyboard-response","103","1044114","0.0-4.0-6.0-1.0-2.8","5fd6ebe9b77a3d65df0c0674","63690f60c96a0a9a64b48fbd","63691953923e988ada92a355","null","","null","","","","","","","","./tasks/HMM-beads/Images/WhiteBeadChoiceWrong.png","","","","","","","","","","","","","","","","","","","","","","","",""
"image-keyboard-response","104","1044743","0.0-4.0-6.0-1.0-0.9","5fd6ebe9b77a3d65df0c0674","63690f60c96a0a9a64b48fbd","63691953923e988ada92a355","627","","f","","","","","","","","./tasks/HMM-beads/Images/NewTrialBC.png","highH","9","2","2","1","1","false","","","","","","","","","","","","","","","","",""
"image-keyboard-response","105","1045046","0.0-4.0-6.0-1.0-1.9","5fd6ebe9b77a3d65df0c0674","63690f60c96a0a9a64b48fbd","63691953923e988ada92a355","null","","null","","","","","","","","./tasks/HMM-beads/Images/BlackBeadChoice.png","","","","","","","","","","","","","","","","","","","","","","","",""
"image-keyboard-response","106","1045549","0.0-4.0-6.0-1.0-2.9","5fd6ebe9b77a3d65df0c0674","63690f60c96a0a9a64b48fbd","63691953923e988ada92a355","null","","null","","","","","","","","./tasks/HMM-beads/Images/BlackBeadChoiceWrong.png","","","","","","","","","","","","","","","","","","","","","","","",""
"image-keyboard-response","107","1046512","0.0-4.0-6.0-1.0-0.10","5fd6ebe9b77a3d65df0c0674","63690f60c96a0a9a64b48fbd","63691953923e988ada92a355","961","","f","","","","","","","","./tasks/HMM-beads/Images/NewTrialWC.png","highH","10","1","1","2","1","true","","","","","","","","","","","","","","","","",""
"image-keyboard-response","108","1046815","0.0-4.0-6.0-1.0-1.10","5fd6ebe9b77a3d65df0c0674","63690f60c96a0a9a64b48fbd","63691953923e988ada92a355","null","","null","","","","","","","","./tasks/HMM-beads/Images/BlackBeadChoice.png","","","","","","","","","","","","","","","","","","","","","","","",""
"image-keyboard-response","109","1047318","0.0-4.0-6.0-1.0-2.10","5fd6ebe9b77a3d65df0c0674","63690f60c96a0a9a64b48fbd","63691953923e988ada92a355","null","","null","","","","","","","","./tasks/HMM-beads/Images/BlackBeadChoiceCorrect.png","","","","","","","","","","","","","","","","","","","","","","","",""
"image-keyboard-response","110","1047328","0.0-4.0-6.0-1.0-0.11","5fd6ebe9b77a3d65df0c0674","63690f60c96a0a9a64b48fbd","63691953923e988ada92a355","8","","f","","","","","","","","./tasks/HMM-beads/Images/NewTrialBC.png","highH","11","2","2","1","1","false","","","","","","","","","","","","","","","","",""
"image-keyboard-response","111","1047640","0.0-4.0-6.0-1.0-1.11","5fd6ebe9b77a3d65df0c0674","63690f60c96a0a9a64b48fbd","63691953923e988ada92a355","null","","null","","","","","","","","./tasks/HMM-beads/Images/BlackBeadChoice.png","","","","","","","","","","","","","","","","","","","","","","","",""
"image-keyboard-response","112","1048143","0.0-4.0-6.0-1.0-2.11","5fd6ebe9b77a3d65df0c0674","63690f60c96a0a9a64b48fbd","63691953923e988ada92a355","null","","null","","","","","","","","./tasks/HMM-beads/Images/BlackBeadChoiceWrong.png","","","","","","","","","","","","","","","","","","","","","","","",""
"image-keyboard-response","113","1048758","0.0-4.0-6.0-1.0-0.12","5fd6ebe9b77a3d65df0c0674","63690f60c96a0a9a64b48fbd","63691953923e988ada92a355","613","","f","","","","","","","","./tasks/HMM-beads/Images/NewTrialWC.png","highH","12","1","1","2","1","true","","","","","","","","","","","","","","","","",""
"image-keyboard-response","114","1049062","0.0-4.0-6.0-1.0-1.12","5fd6ebe9b77a3d65df0c0674","63690f60c96a0a9a64b48fbd","63691953923e988ada92a355","null","","null","","","","","","","","./tasks/HMM-beads/Images/BlackBeadChoice.png","","","","","","","","","","","","","","","","","","","","","","","",""
"image-keyboard-response","115","1049564","0.0-4.0-6.0-1.0-2.12","5fd6ebe9b77a3d65df0c0674","63690f60c96a0a9a64b48fbd","63691953923e988ada92a355","null","","null","","","","","","","","./tasks/HMM-beads/Images/BlackBeadChoiceCorrect.png","","","","","","","","","","","","","","","","","","","","","","","",""
"image-keyboard-response","116","1050066","0.0-4.0-6.0-1.0-0.13","5fd6ebe9b77a3d65df0c0674","63690f60c96a0a9a64b48fbd","63691953923e988ada92a355","499","","f","","","","","","","","./tasks/HMM-beads/Images/NewTrialBC.png","highH","13","2","1","1","1","true","","","","","","","","","","","","","","","","",""
"image-keyboard-response","117","1050369","0.0-4.0-6.0-1.0-1.13","5fd6ebe9b77a3d65df0c0674","63690f60c96a0a9a64b48fbd","63691953923e988ada92a355","null","","null","","","","","","","","./tasks/HMM-beads/Images/BlackBeadChoice.png","","","","","","","","","","","","","","","","","","","","","","","",""
"image-keyboard-response","118","1050872","0.0-4.0-6.0-1.0-2.13","5fd6ebe9b77a3d65df0c0674","63690f60c96a0a9a64b48fbd","63691953923e988ada92a355","null","","null","","","","","","","","./tasks/HMM-beads/Images/BlackBeadChoiceCorrect.png","","","","","","","","","","","","","","","","","","","","","","","",""
"image-keyboard-response","119","1051315","0.0-4.0-6.0-1.0-0.14","5fd6ebe9b77a3d65df0c0674","63690f60c96a0a9a64b48fbd","63691953923e988ada92a355","441","","j","","","","","","","","./tasks/HMM-beads/Images/NewTrialBC.png","highH","14","1","2","1","2","true","","","","","","","","","","","","","","","","",""
"image-keyboard-response","120","1051618","0.0-4.0-6.0-1.0-1.14","5fd6ebe9b77a3d65df0c0674","63690f60c96a0a9a64b48fbd","63691953923e988ada92a355","null","","null","","","","","","","","./tasks/HMM-beads/Images/WhiteBeadChoice.png","","","","","","","","","","","","","","","","","","","","","","","",""
"image-keyboard-response","121","1052121","0.0-4.0-6.0-1.0-2.14","5fd6ebe9b77a3d65df0c0674","63690f60c96a0a9a64b48fbd","63691953923e988ada92a355","null","","null","","","","","","","","./tasks/HMM-beads/Images/WhiteBeadChoiceCorrect.png","","","","","","","","","","","","","","","","","","","","","","","",""
"image-keyboard-response","122","1052597","0.0-4.0-6.0-1.0-0.15","5fd6ebe9b77a3d65df0c0674","63690f60c96a0a9a64b48fbd","63691953923e988ada92a355","473","","j","","","","","","","","./tasks/HMM-beads/Images/NewTrialWC.png","highH","15","2","2","2","2","true","","","","","","","","","","","","","","","","",""
"image-keyboard-response","123","1052901","0.0-4.0-6.0-1.0-1.15","5fd6ebe9b77a3d65df0c0674","63690f60c96a0a9a64b48fbd","63691953923e988ada92a355","null","","null","","","","","","","","./tasks/HMM-beads/Images/WhiteBeadChoice.png","","","","","","","","","","","","","","","","","","","","","","","",""
"image-keyboard-response","124","1053413","0.0-4.0-6.0-1.0-2.15","5fd6ebe9b77a3d65df0c0674","63690f60c96a0a9a64b48fbd","63691953923e988ada92a355","null","","null","","","","","","","","./tasks/HMM-beads/Images/WhiteBeadChoiceCorrect.png","","","","","","","","","","","","","","","","","","","","","","","",""
"image-keyboard-response","125","1054304","0.0-4.0-6.0-1.0-0.16","5fd6ebe9b77a3d65df0c0674","63690f60c96a0a9a64b48fbd","63691953923e988ada92a355","889","","f","","","","","","","","./tasks/HMM-beads/Images/NewTrialWC.png","highH","16","1","1","2","1","true","","","","","","","","","","","","","","","","",""
"image-keyboard-response","126","1054608","0.0-4.0-6.0-1.0-1.16","5fd6ebe9b77a3d65df0c0674","63690f60c96a0a9a64b48fbd","63691953923e988ada92a355","null","","null","","","","","","","","./tasks/HMM-beads/Images/BlackBeadChoice.png","","","","","","","","","","","","","","","","","","","","","","","",""
"image-keyboard-response","127","1055110","0.0-4.0-6.0-1.0-2.16","5fd6ebe9b77a3d65df0c0674","63690f60c96a0a9a64b48fbd","63691953923e988ada92a355","null","","null","","","","","","","","./tasks/HMM-beads/Images/BlackBeadChoiceCorrect.png","","","","","","","","","","","","","","","","","","","","","","","",""
"image-keyboard-response","128","1056398","0.0-4.0-6.0-1.0-0.17","5fd6ebe9b77a3d65df0c0674","63690f60c96a0a9a64b48fbd","63691953923e988ada92a355","1285","","j","","","","","","","","./tasks/HMM-beads/Images/NewTrialBC.png","highH","17","2","2","1","2","true","","","","","","","","","","","","","","","","",""
"image-keyboard-response","129","1056701","0.0-4.0-6.0-1.0-1.17","5fd6ebe9b77a3d65df0c0674","63690f60c96a0a9a64b48fbd","63691953923e988ada92a355","null","","null","","","","","","","","./tasks/HMM-beads/Images/WhiteBeadChoice.png","","","","","","","","","","","","","","","","","","","","","","","",""
"image-keyboard-response","130","1057204","0.0-4.0-6.0-1.0-2.17","5fd6ebe9b77a3d65df0c0674","63690f60c96a0a9a64b48fbd","63691953923e988ada92a355","null","","null","","","","","","","","./tasks/HMM-beads/Images/WhiteBeadChoiceCorrect.png","","","","","","","","","","","","","","","","","","","","","","","",""
"image-keyboard-response","131","1057731","0.0-4.0-6.0-1.0-0.18","5fd6ebe9b77a3d65df0c0674","63690f60c96a0a9a64b48fbd","63691953923e988ada92a355","524","","f","","","","","","","","./tasks/HMM-beads/Images/NewTrialWC.png","highH","18","1","2","2","1","false","","","","","","","","","","","","","","","","",""
"image-keyboard-response","132","1058034","0.0-4.0-6.0-1.0-1.18","5fd6ebe9b77a3d65df0c0674","63690f60c96a0a9a64b48fbd","63691953923e988ada92a355","null","","null","","","","","","","","./tasks/HMM-beads/Images/BlackBeadChoice.png","","","","","","","","","","","","","","","","","","","","","","","",""
"image-keyboard-response","133","1058536","0.0-4.0-6.0-1.0-2.18","5fd6ebe9b77a3d65df0c0674","63690f60c96a0a9a64b48fbd","63691953923e988ada92a355","null","","null","","","","","","","","./tasks/HMM-beads/Images/BlackBeadChoiceWrong.png","","","","","","","","","","","","","","","","","","","","","","","",""
"image-keyboard-response","134","1059079","0.0-4.0-6.0-1.0-0.19","5fd6ebe9b77a3d65df0c0674","63690f60c96a0a9a64b48fbd","63691953923e988ada92a355","540","","f","","","","","","","","./tasks/HMM-beads/Images/NewTrialWC.png","highH","19","2","2","2","1","false","","","","","","","","","","","","","","","","",""
"image-keyboard-response","135","1059382","0.0-4.0-6.0-1.0-1.19","5fd6ebe9b77a3d65df0c0674","63690f60c96a0a9a64b48fbd","63691953923e988ada92a355","null","","null","","","","","","","","./tasks/HMM-beads/Images/BlackBeadChoice.png","","","","","","","","","","","","","","","","","","","","","","","",""
"image-keyboard-response","136","1059885","0.0-4.0-6.0-1.0-2.19","5fd6ebe9b77a3d65df0c0674","63690f60c96a0a9a64b48fbd","63691953923e988ada92a355","null","","null","","","","","","","","./tasks/HMM-beads/Images/BlackBeadChoiceWrong.png","","","","","","","","","","","","","","","","","","","","","","","",""
"image-keyboard-response","137","1060307","0.0-4.0-6.0-1.0-0.20","5fd6ebe9b77a3d65df0c0674","63690f60c96a0a9a64b48fbd","63691953923e988ada92a355","420","","j","","","","","","","","./tasks/HMM-beads/Images/NewTrialWC.png","highH","20","1","1","2","2","false","","","","","","","","","","","","","","","","",""
"image-keyboard-response","138","1060610","0.0-4.0-6.0-1.0-1.20","5fd6ebe9b77a3d65df0c0674","63690f60c96a0a9a64b48fbd","63691953923e988ada92a355","null","","null","","","","","","","","./tasks/HMM-beads/Images/WhiteBeadChoice.png","","","","","","","","","","","","","","","","","","","","","","","",""
"image-keyboard-response","139","1061113","0.0-4.0-6.0-1.0-2.20","5fd6ebe9b77a3d65df0c0674","63690f60c96a0a9a64b48fbd","63691953923e988ada92a355","null","","null","","","","","","","","./tasks/HMM-beads/Images/WhiteBeadChoiceWrong.png","","","","","","","","","","","","","","","","","","","","","","","",""
"image-keyboard-response","140","1061785","0.0-4.0-6.0-1.0-0.21","5fd6ebe9b77a3d65df0c0674","63690f60c96a0a9a64b48fbd","63691953923e988ada92a355","669","","f","","","","","","","","./tasks/HMM-beads/Images/NewTrialBC.png","highH","21","2","1","1","1","true","","","","","","","","","","","","","","","","",""
"image-keyboard-response","141","1062088","0.0-4.0-6.0-1.0-1.21","5fd6ebe9b77a3d65df0c0674","63690f60c96a0a9a64b48fbd","63691953923e988ada92a355","null","","null","","","","","","","","./tasks/HMM-beads/Images/BlackBeadChoice.png","","","","","","","","","","","","","","","","","","","","","","","",""
"image-keyboard-response","142","1062590","0.0-4.0-6.0-1.0-2.21","5fd6ebe9b77a3d65df0c0674","63690f60c96a0a9a64b48fbd","63691953923e988ada92a355","null","","null","","","","","","","","./tasks/HMM-beads/Images/BlackBeadChoiceCorrect.png","","","","","","","","","","","","","","","","","","","","","","","",""
"image-keyboard-response","143","1062655","0.0-4.0-6.0-1.0-0.22","5fd6ebe9b77a3d65df0c0674","63690f60c96a0a9a64b48fbd","63691953923e988ada92a355","62","","f","","","","","","","","./tasks/HMM-beads/Images/NewTrialBC.png","highH","22","1","1","1","1","true","","","","","","","","","","","","","","","","",""
"image-keyboard-response","144","1062958","0.0-4.0-6.0-1.0-1.22","5fd6ebe9b77a3d65df0c0674","63690f60c96a0a9a64b48fbd","63691953923e988ada92a355","null","","null","","","","","","","","./tasks/HMM-beads/Images/BlackBeadChoice.png","","","","","","","","","","","","","","","","","","","","","","","",""
"image-keyboard-response","145","1063461","0.0-4.0-6.0-1.0-2.22","5fd6ebe9b77a3d65df0c0674","63690f60c96a0a9a64b48fbd","63691953923e988ada92a355","null","","null","","","","","","","","./tasks/HMM-beads/Images/BlackBeadChoiceCorrect.png","","","","","","","","","","","","","","","","","","","","","","","",""
"image-keyboard-response","146","1065116","0.0-4.0-6.0-1.0-0.23","5fd6ebe9b77a3d65df0c0674","63690f60c96a0a9a64b48fbd","63691953923e988ada92a355","1644","","j","","","","","","","","./tasks/HMM-beads/Images/NewTrialBC.png","highH","23","2","2","1","2","true","","","","","","","","","","","","","","","","",""
"image-keyboard-response","147","1065419","0.0-4.0-6.0-1.0-1.23","5fd6ebe9b77a3d65df0c0674","63690f60c96a0a9a64b48fbd","63691953923e988ada92a355","null","","null","","","","","","","","./tasks/HMM-beads/Images/WhiteBeadChoice.png","","","","","","","","","","","","","","","","","","","","","","","",""
"image-keyboard-response","148","1065922","0.0-4.0-6.0-1.0-2.23","5fd6ebe9b77a3d65df0c0674","63690f60c96a0a9a64b48fbd","63691953923e988ada92a355","null","","null","","","","","","","","./tasks/HMM-beads/Images/WhiteBeadChoiceCorrect.png","","","","","","","","","","","","","","","","","","","","","","","",""
"image-keyboard-response","149","1068943","0.0-4.0-6.0-1.0-0.24","5fd6ebe9b77a3d65df0c0674","63690f60c96a0a9a64b48fbd","63691953923e988ada92a355","3019","","j","","","","","","","","./tasks/HMM-beads/Images/NewTrialWC.png","highH","24","1","1","2","2","false","","","","","","","","","","","","","","","","",""
"image-keyboard-response","150","1069246","0.0-4.0-6.0-1.0-1.24","5fd6ebe9b77a3d65df0c0674","63690f60c96a0a9a64b48fbd","63691953923e988ada92a355","null","","null","","","","","","","","./tasks/HMM-beads/Images/WhiteBeadChoice.png","","","","","","","","","","","","","","","","","","","","","","","",""
"image-keyboard-response","151","1069749","0.0-4.0-6.0-1.0-2.24","5fd6ebe9b77a3d65df0c0674","63690f60c96a0a9a64b48fbd","63691953923e988ada92a355","null","","null","","","","","","","","./tasks/HMM-beads/Images/WhiteBeadChoiceWrong.png","","","","","","","","","","","","","","","","","","","","","","","",""
"image-keyboard-response","152","1070409","0.0-4.0-6.0-1.0-0.25","5fd6ebe9b77a3d65df0c0674","63690f60c96a0a9a64b48fbd","63691953923e988ada92a355","657","","j","","","","","","","","./tasks/HMM-beads/Images/NewTrialBC.png","highH","25","2","1","1","2","false","","","","","","","","","","","","","","","","",""
"image-keyboard-response","153","1070712","0.0-4.0-6.0-1.0-1.25","5fd6ebe9b77a3d65df0c0674","63690f60c96a0a9a64b48fbd","63691953923e988ada92a355","null","","null","","","","","","","","./tasks/HMM-beads/Images/WhiteBeadChoice.png","","","","","","","","","","","","","","","","","","","","","","","",""
"image-keyboard-response","154","1071215","0.0-4.0-6.0-1.0-2.25","5fd6ebe9b77a3d65df0c0674","63690f60c96a0a9a64b48fbd","63691953923e988ada92a355","null","","null","","","","","","","","./tasks/HMM-beads/Images/WhiteBeadChoiceWrong.png","","","","","","","","","","","","","","","","","","","","","","","",""
"image-keyboard-response","155","1071562","0.0-4.0-6.0-1.0-0.26","5fd6ebe9b77a3d65df0c0674","63690f60c96a0a9a64b48fbd","63691953923e988ada92a355","345","","f","","","","","","","","./tasks/HMM-beads/Images/NewTrialBC.png","highH","26","1","1","1","1","true","","","","","","","","","","","","","","","","",""
"image-keyboard-response","156","1071865","0.0-4.0-6.0-1.0-1.26","5fd6ebe9b77a3d65df0c0674","63690f60c96a0a9a64b48fbd","63691953923e988ada92a355","null","","null","","","","","","","","./tasks/HMM-beads/Images/BlackBeadChoice.png","","","","","","","","","","","","","","","","","","","","","","","",""
"image-keyboard-response","157","1072368","0.0-4.0-6.0-1.0-2.26","5fd6ebe9b77a3d65df0c0674","63690f60c96a0a9a64b48fbd","63691953923e988ada92a355","null","","null","","","","","","","","./tasks/HMM-beads/Images/BlackBeadChoiceCorrect.png","","","","","","","","","","","","","","","","","","","","","","","",""
"image-keyboard-response","158","1072829","0.0-4.0-6.0-1.0-0.27","5fd6ebe9b77a3d65df0c0674","63690f60c96a0a9a64b48fbd","63691953923e988ada92a355","457","","f","","","","","","","","./tasks/HMM-beads/Images/NewTrialBC.png","highH","27","2","2","1","1","false","","","","","","","","","","","","","","","","",""
"image-keyboard-response","159","1073132","0.0-4.0-6.0-1.0-1.27","5fd6ebe9b77a3d65df0c0674","63690f60c96a0a9a64b48fbd","63691953923e988ada92a355","null","","null","","","","","","","","./tasks/HMM-beads/Images/BlackBeadChoice.png","","","","","","","","","","","","","","","","","","","","","","","",""
"image-keyboard-response","160","1073634","0.0-4.0-6.0-1.0-2.27","5fd6ebe9b77a3d65df0c0674","63690f60c96a0a9a64b48fbd","63691953923e988ada92a355","null","","null","","","","","","","","./tasks/HMM-beads/Images/BlackBeadChoiceWrong.png","","","","","","","","","","","","","","","","","","","","","","","",""
"image-keyboard-response","161","1075062","0.0-4.0-6.0-1.0-0.28","5fd6ebe9b77a3d65df0c0674","63690f60c96a0a9a64b48fbd","63691953923e988ada92a355","1425","","f","","","","","","","","./tasks/HMM-beads/Images/NewTrialWC.png","highH","28","2","1","2","1","true","","","","","","","","","","","","","","","","",""
"image-keyboard-response","162","1075365","0.0-4.0-6.0-1.0-1.28","5fd6ebe9b77a3d65df0c0674","63690f60c96a0a9a64b48fbd","63691953923e988ada92a355","null","","null","","","","","","","","./tasks/HMM-beads/Images/BlackBeadChoice.png","","","","","","","","","","","","","","","","","","","","","","","",""
"image-keyboard-response","163","1075868","0.0-4.0-6.0-1.0-2.28","5fd6ebe9b77a3d65df0c0674","63690f60c96a0a9a64b48fbd","63691953923e988ada92a355","null","","null","","","","","","","","./tasks/HMM-beads/Images/BlackBeadChoiceCorrect.png","","","","","","","","","","","","","","","","","","","","","","","",""
"image-keyboard-response","164","1076779","0.0-4.0-6.0-1.0-0.29","5fd6ebe9b77a3d65df0c0674","63690f60c96a0a9a64b48fbd","63691953923e988ada92a355","909","","f","","","","","","","","./tasks/HMM-beads/Images/NewTrialBC.png","highH","29","1","1","1","1","true","","","","","","","","","","","","","","","","",""
"image-keyboard-response","165","1077082","0.0-4.0-6.0-1.0-1.29","5fd6ebe9b77a3d65df0c0674","63690f60c96a0a9a64b48fbd","63691953923e988ada92a355","null","","null","","","","","","","","./tasks/HMM-beads/Images/BlackBeadChoice.png","","","","","","","","","","","","","","","","","","","","","","","",""
"image-keyboard-response","166","1077585","0.0-4.0-6.0-1.0-2.29","5fd6ebe9b77a3d65df0c0674","63690f60c96a0a9a64b48fbd","63691953923e988ada92a355","null","","null","","","","","","","","./tasks/HMM-beads/Images/BlackBeadChoiceCorrect.png","","","","","","","","","","","","","","","","","","","","","","","",""
"image-keyboard-response","167","1079294","0.0-4.0-6.0-1.0-0.30","5fd6ebe9b77a3d65df0c0674","63690f60c96a0a9a64b48fbd","63691953923e988ada92a355","1706","","j","","","","","","","","./tasks/HMM-beads/Images/NewTrialBC.png","highH","30","2","1","1","2","false","","","","","","","","","","","","","","","","",""
"image-keyboard-response","168","1079597","0.0-4.0-6.0-1.0-1.30","5fd6ebe9b77a3d65df0c0674","63690f60c96a0a9a64b48fbd","63691953923e988ada92a355","null","","null","","","","","","","","./tasks/HMM-beads/Images/WhiteBeadChoice.png","","","","","","","","","","","","","","","","","","","","","","","",""
"image-keyboard-response","169","1080100","0.0-4.0-6.0-1.0-2.30","5fd6ebe9b77a3d65df0c0674","63690f60c96a0a9a64b48fbd","63691953923e988ada92a355","null","","null","","","","","","","","./tasks/HMM-beads/Images/WhiteBeadChoiceWrong.png","","","","","","","","","","","","","","","","","","","","","","","",""
"image-keyboard-response","170","1080804","0.0-4.0-6.0-1.0-0.31","5fd6ebe9b77a3d65df0c0674","63690f60c96a0a9a64b48fbd","63691953923e988ada92a355","701","","j","","","","","","","","./tasks/HMM-beads/Images/NewTrialBC.png","highH","31","1","1","1","2","false","","","","","","","","","","","","","","","","",""
"image-keyboard-response","171","1081107","0.0-4.0-6.0-1.0-1.31","5fd6ebe9b77a3d65df0c0674","63690f60c96a0a9a64b48fbd","63691953923e988ada92a355","null","","null","","","","","","","","./tasks/HMM-beads/Images/WhiteBeadChoice.png","","","","","","","","","","","","","","","","","","","","","","","",""
"image-keyboard-response","172","1081609","0.0-4.0-6.0-1.0-2.31","5fd6ebe9b77a3d65df0c0674","63690f60c96a0a9a64b48fbd","63691953923e988ada92a355","null","","null","","","","","","","","./tasks/HMM-beads/Images/WhiteBeadChoiceWrong.png","","","","","","","","","","","","","","","","","","","","","","","",""
"image-keyboard-response","173","1081818","0.0-4.0-6.0-1.0-0.32","5fd6ebe9b77a3d65df0c0674","63690f60c96a0a9a64b48fbd","63691953923e988ada92a355","206","","f","","","","","","","","./tasks/HMM-beads/Images/NewTrialBC.png","highH","32","2","2","1","1","false","","","","","","","","","","","","","","","","",""
"image-keyboard-response","174","1082121","0.0-4.0-6.0-1.0-1.32","5fd6ebe9b77a3d65df0c0674","63690f60c96a0a9a64b48fbd","63691953923e988ada92a355","null","","null","","","","","","","","./tasks/HMM-beads/Images/BlackBeadChoice.png","","","","","","","","","","","","","","","","","","","","","","","",""
"image-keyboard-response","175","1082625","0.0-4.0-6.0-1.0-2.32","5fd6ebe9b77a3d65df0c0674","63690f60c96a0a9a64b48fbd","63691953923e988ada92a355","null","","null","","","","","","","","./tasks/HMM-beads/Images/BlackBeadChoiceWrong.png","","","","","","","","","","","","","","","","","","","","","","","",""
"image-keyboard-response","176","1083294","0.0-4.0-6.0-1.0-0.33","5fd6ebe9b77a3d65df0c0674","63690f60c96a0a9a64b48fbd","63691953923e988ada92a355","667","","j","","","","","","","","./tasks/HMM-beads/Images/NewTrialWC.png","highH","33","1","1","2","2","false","","","","","","","","","","","","","","","","",""
"image-keyboard-response","177","1083597","0.0-4.0-6.0-1.0-1.33","5fd6ebe9b77a3d65df0c0674","63690f60c96a0a9a64b48fbd","63691953923e988ada92a355","null","","null","","","","","","","","./tasks/HMM-beads/Images/WhiteBeadChoice.png","","","","","","","","","","","","","","","","","","","","","","","",""
"image-keyboard-response","178","1084110","0.0-4.0-6.0-1.0-2.33","5fd6ebe9b77a3d65df0c0674","63690f60c96a0a9a64b48fbd","63691953923e988ada92a355","null","","null","","","","","","","","./tasks/HMM-beads/Images/WhiteBeadChoiceWrong.png","","","","","","","","","","","","","","","","","","","","","","","",""
"image-keyboard-response","179","1084436","0.0-4.0-6.0-1.0-0.34","5fd6ebe9b77a3d65df0c0674","63690f60c96a0a9a64b48fbd","63691953923e988ada92a355","322","","f","","","","","","","","./tasks/HMM-beads/Images/NewTrialBC.png","highH","34","2","2","1","1","false","","","","","","","","","","","","","","","","",""
"image-keyboard-response","180","1084739","0.0-4.0-6.0-1.0-1.34","5fd6ebe9b77a3d65df0c0674","63690f60c96a0a9a64b48fbd","63691953923e988ada92a355","null","","null","","","","","","","","./tasks/HMM-beads/Images/BlackBeadChoice.png","","","","","","","","","","","","","","","","","","","","","","","",""
"image-keyboard-response","181","1085242","0.0-4.0-6.0-1.0-2.34","5fd6ebe9b77a3d65df0c0674","63690f60c96a0a9a64b48fbd","63691953923e988ada92a355","null","","null","","","","","","","","./tasks/HMM-beads/Images/BlackBeadChoiceWrong.png","","","","","","","","","","","","","","","","","","","","","","","",""
"image-keyboard-response","182","1087109","0.0-4.0-6.0-1.0-0.35","5fd6ebe9b77a3d65df0c0674","63690f60c96a0a9a64b48fbd","63691953923e988ada92a355","1865","","f","","","","","","","","./tasks/HMM-beads/Images/NewTrialWC.png","highH","35","1","1","2","1","true","","","","","","","","","","","","","","","","",""
"image-keyboard-response","183","1087412","0.0-4.0-6.0-1.0-1.35","5fd6ebe9b77a3d65df0c0674","63690f60c96a0a9a64b48fbd","63691953923e988ada92a355","null","","null","","","","","","","","./tasks/HMM-beads/Images/BlackBeadChoice.png","","","","","","","","","","","","","","","","","","","","","","","",""
"image-keyboard-response","184","1087915","0.0-4.0-6.0-1.0-2.35","5fd6ebe9b77a3d65df0c0674","63690f60c96a0a9a64b48fbd","63691953923e988ada92a355","null","","null","","","","","","","","./tasks/HMM-beads/Images/BlackBeadChoiceCorrect.png","","","","","","","","","","","","","","","","","","","","","","","",""
"image-keyboard-response","185","1088262","0.0-4.0-6.0-1.0-0.36","5fd6ebe9b77a3d65df0c0674","63690f60c96a0a9a64b48fbd","63691953923e988ada92a355","345","","f","","","","","","","","./tasks/HMM-beads/Images/NewTrialBC.png","highH","36","2","1","1","1","true","","","","","","","","","","","","","","","","",""
"image-keyboard-response","186","1088565","0.0-4.0-6.0-1.0-1.36","5fd6ebe9b77a3d65df0c0674","63690f60c96a0a9a64b48fbd","63691953923e988ada92a355","null","","null","","","","","","","","./tasks/HMM-beads/Images/BlackBeadChoice.png","","","","","","","","","","","","","","","","","","","","","","","",""
"image-keyboard-response","187","1089068","0.0-4.0-6.0-1.0-2.36","5fd6ebe9b77a3d65df0c0674","63690f60c96a0a9a64b48fbd","63691953923e988ada92a355","null","","null","","","","","","","","./tasks/HMM-beads/Images/BlackBeadChoiceCorrect.png","","","","","","","","","","","","","","","","","","","","","","","",""
"image-keyboard-response","188","1089155","0.0-4.0-6.0-1.0-0.37","5fd6ebe9b77a3d65df0c0674","63690f60c96a0a9a64b48fbd","63691953923e988ada92a355","85","","f","","","","","","","","./tasks/HMM-beads/Images/NewTrialBC.png","highH","37","1","1","1","1","true","","","","","","","","","","","","","","","","",""
"image-keyboard-response","189","1089458","0.0-4.0-6.0-1.0-1.37","5fd6ebe9b77a3d65df0c0674","63690f60c96a0a9a64b48fbd","63691953923e988ada92a355","null","","null","","","","","","","","./tasks/HMM-beads/Images/BlackBeadChoice.png","","","","","","","","","","","","","","","","","","","","","","","",""
"image-keyboard-response","190","1089961","0.0-4.0-6.0-1.0-2.37","5fd6ebe9b77a3d65df0c0674","63690f60c96a0a9a64b48fbd","63691953923e988ada92a355","null","","null","","","","","","","","./tasks/HMM-beads/Images/BlackBeadChoiceCorrect.png","","","","","","","","","","","","","","","","","","","","","","","",""
"image-keyboard-response","191","1091246","0.0-4.0-6.0-1.0-0.38","5fd6ebe9b77a3d65df0c0674","63690f60c96a0a9a64b48fbd","63691953923e988ada92a355","1283","","j","","","","","","","","./tasks/HMM-beads/Images/NewTrialBC.png","highH","38","2","2","1","2","true","","","","","","","","","","","","","","","","",""
"image-keyboard-response","192","1091549","0.0-4.0-6.0-1.0-1.38","5fd6ebe9b77a3d65df0c0674","63690f60c96a0a9a64b48fbd","63691953923e988ada92a355","null","","null","","","","","","","","./tasks/HMM-beads/Images/WhiteBeadChoice.png","","","","","","","","","","","","","","","","","","","","","","","",""
"image-keyboard-response","193","1092052","0.0-4.0-6.0-1.0-2.38","5fd6ebe9b77a3d65df0c0674","63690f60c96a0a9a64b48fbd","63691953923e988ada92a355","null","","null","","","","","","","","./tasks/HMM-beads/Images/WhiteBeadChoiceCorrect.png","","","","","","","","","","","","","","","","","","","","","","","",""
"image-keyboard-response","194","1092779","0.0-4.0-6.0-1.0-0.39","5fd6ebe9b77a3d65df0c0674","63690f60c96a0a9a64b48fbd","63691953923e988ada92a355","725","","j","","","","","","","","./tasks/HMM-beads/Images/NewTrialWC.png","highH","39","1","1","2","2","false","","","","","","","","","","","","","","","","",""
"image-keyboard-response","195","1093083","0.0-4.0-6.0-1.0-1.39","5fd6ebe9b77a3d65df0c0674","63690f60c96a0a9a64b48fbd","63691953923e988ada92a355","null","","null","","","","","","","","./tasks/HMM-beads/Images/WhiteBeadChoice.png","","","","","","","","","","","","","","","","","","","","","","","",""
"image-keyboard-response","196","1093586","0.0-4.0-6.0-1.0-2.39","5fd6ebe9b77a3d65df0c0674","63690f60c96a0a9a64b48fbd","63691953923e988ada92a355","null","","null","","","","","","","","./tasks/HMM-beads/Images/WhiteBeadChoiceWrong.png","","","","","","","","","","","","","","","","","","","","","","","",""
"image-keyboard-response","197","1093895","0.0-4.0-6.0-1.0-0.40","5fd6ebe9b77a3d65df0c0674","63690f60c96a0a9a64b48fbd","63691953923e988ada92a355","307","","f","","","","","","","","./tasks/HMM-beads/Images/NewTrialBC.png","highH","40","2","2","1","1","false","","","","","","","","","","","","","","","","",""
"image-keyboard-response","198","1094198","0.0-4.0-6.0-1.0-1.40","5fd6ebe9b77a3d65df0c0674","63690f60c96a0a9a64b48fbd","63691953923e988ada92a355","null","","null","","","","","","","","./tasks/HMM-beads/Images/BlackBeadChoice.png","","","","","","","","","","","","","","","","","","","","","","","",""
"image-keyboard-response","199","1094701","0.0-4.0-6.0-1.0-2.40","5fd6ebe9b77a3d65df0c0674","63690f60c96a0a9a64b48fbd","63691953923e988ada92a355","null","","null","","","","","","","","./tasks/HMM-beads/Images/BlackBeadChoiceWrong.png","","","","","","","","","","","","","","","","","","","","","","","",""
"image-keyboard-response","200","1095393","0.0-4.0-6.0-1.0-0.41","5fd6ebe9b77a3d65df0c0674","63690f60c96a0a9a64b48fbd","63691953923e988ada92a355","690","","j","","","","","","","","./tasks/HMM-beads/Images/NewTrialWC.png","highH","41","1","2","2","2","true","","","","","","","","","","","","","","","","",""
"image-keyboard-response","201","1095696","0.0-4.0-6.0-1.0-1.41","5fd6ebe9b77a3d65df0c0674","63690f60c96a0a9a64b48fbd","63691953923e988ada92a355","null","","null","","","","","","","","./tasks/HMM-beads/Images/WhiteBeadChoice.png","","","","","","","","","","","","","","","","","","","","","","","",""
"image-keyboard-response","202","1096199","0.0-4.0-6.0-1.0-2.41","5fd6ebe9b77a3d65df0c0674","63690f60c96a0a9a64b48fbd","63691953923e988ada92a355","null","","null","","","","","","","","./tasks/HMM-beads/Images/WhiteBeadChoiceCorrect.png","","","","","","","","","","","","","","","","","","","","","","","",""
"image-keyboard-response","203","1097080","0.0-4.0-6.0-1.0-0.42","5fd6ebe9b77a3d65df0c0674","63690f60c96a0a9a64b48fbd","63691953923e988ada92a355","878","","j","","","","","","","","./tasks/HMM-beads/Images/NewTrialWC.png","highH","42","2","2","2","2","true","","","","","","","","","","","","","","","","",""
"image-keyboard-response","204","1097383","0.0-4.0-6.0-1.0-1.42","5fd6ebe9b77a3d65df0c0674","63690f60c96a0a9a64b48fbd","63691953923e988ada92a355","null","","null","","","","","","","","./tasks/HMM-beads/Images/WhiteBeadChoice.png","","","","","","","","","","","","","","","","","","","","","","","",""
"image-keyboard-response","205","1097885","0.0-4.0-6.0-1.0-2.42","5fd6ebe9b77a3d65df0c0674","63690f60c96a0a9a64b48fbd","63691953923e988ada92a355","null","","null","","","","","","","","./tasks/HMM-beads/Images/WhiteBeadChoiceCorrect.png","","","","","","","","","","","","","","","","","","","","","","","",""
"image-keyboard-response","206","1098211","0.0-4.0-6.0-1.0-0.43","5fd6ebe9b77a3d65df0c0674","63690f60c96a0a9a64b48fbd","63691953923e988ada92a355","323","","j","","","","","","","","./tasks/HMM-beads/Images/NewTrialWC.png","highH","43","1","1","2","2","false","","","","","","","","","","","","","","","","",""
"image-keyboard-response","207","1098522","0.0-4.0-6.0-1.0-1.43","5fd6ebe9b77a3d65df0c0674","63690f60c96a0a9a64b48fbd","63691953923e988ada92a355","null","","null","","","","","","","","./tasks/HMM-beads/Images/WhiteBeadChoice.png","","","","","","","","","","","","","","","","","","","","","","","",""
"image-keyboard-response","208","1099025","0.0-4.0-6.0-1.0-2.43","5fd6ebe9b77a3d65df0c0674","63690f60c96a0a9a64b48fbd","63691953923e988ada92a355","null","","null","","","","","","","","./tasks/HMM-beads/Images/WhiteBeadChoiceWrong.png","","","","","","","","","","","","","","","","","","","","","","","",""
"image-keyboard-response","209","1099422","0.0-4.0-6.0-1.0-0.44","5fd6ebe9b77a3d65df0c0674","63690f60c96a0a9a64b48fbd","63691953923e988ada92a355","394","","f","","","","","","","","./tasks/HMM-beads/Images/NewTrialBC.png","highH","44","2","1","1","1","true","","","","","","","","","","","","","","","","",""
"image-keyboard-response","210","1099725","0.0-4.0-6.0-1.0-1.44","5fd6ebe9b77a3d65df0c0674","63690f60c96a0a9a64b48fbd","63691953923e988ada92a355","null","","null","","","","","","","","./tasks/HMM-beads/Images/BlackBeadChoice.png","","","","","","","","","","","","","","","","","","","","","","","",""
"image-keyboard-response","211","1100228","0.0-4.0-6.0-1.0-2.44","5fd6ebe9b77a3d65df0c0674","63690f60c96a0a9a64b48fbd","63691953923e988ada92a355","null","","null","","","","","","","","./tasks/HMM-beads/Images/BlackBeadChoiceCorrect.png","","","","","","","","","","","","","","","","","","","","","","","",""
"image-keyboard-response","212","1100513","0.0-4.0-6.0-1.0-0.45","5fd6ebe9b77a3d65df0c0674","63690f60c96a0a9a64b48fbd","63691953923e988ada92a355","283","","f","","","","","","","","./tasks/HMM-beads/Images/NewTrialBC.png","highH","45","1","1","1","1","true","","","","","","","","","","","","","","","","",""
"image-keyboard-response","213","1100816","0.0-4.0-6.0-1.0-1.45","5fd6ebe9b77a3d65df0c0674","63690f60c96a0a9a64b48fbd","63691953923e988ada92a355","null","","null","","","","","","","","./tasks/HMM-beads/Images/BlackBeadChoice.png","","","","","","","","","","","","","","","","","","","","","","","",""
"image-keyboard-response","214","1101319","0.0-4.0-6.0-1.0-2.45","5fd6ebe9b77a3d65df0c0674","63690f60c96a0a9a64b48fbd","63691953923e988ada92a355","null","","null","","","","","","","","./tasks/HMM-beads/Images/BlackBeadChoiceCorrect.png","","","","","","","","","","","","","","","","","","","","","","","",""
"image-keyboard-response","215","1102380","0.0-4.0-6.0-1.0-0.46","5fd6ebe9b77a3d65df0c0674","63690f60c96a0a9a64b48fbd","63691953923e988ada92a355","1059","","j","","","","","","","","./tasks/HMM-beads/Images/NewTrialBC.png","highH","46","2","2","1","2","true","","","","","","","","","","","","","","","","",""
"image-keyboard-response","216","1102683","0.0-4.0-6.0-1.0-1.46","5fd6ebe9b77a3d65df0c0674","63690f60c96a0a9a64b48fbd","63691953923e988ada92a355","null","","null","","","","","","","","./tasks/HMM-beads/Images/WhiteBeadChoice.png","","","","","","","","","","","","","","","","","","","","","","","",""
"image-keyboard-response","217","1103186","0.0-4.0-6.0-1.0-2.46","5fd6ebe9b77a3d65df0c0674","63690f60c96a0a9a64b48fbd","63691953923e988ada92a355","null","","null","","","","","","","","./tasks/HMM-beads/Images/WhiteBeadChoiceCorrect.png","","","","","","","","","","","","","","","","","","","","","","","",""
"image-keyboard-response","218","1103891","0.0-4.0-6.0-1.0-0.47","5fd6ebe9b77a3d65df0c0674","63690f60c96a0a9a64b48fbd","63691953923e988ada92a355","693","","j","","","","","","","","./tasks/HMM-beads/Images/NewTrialWC.png","highH","47","1","1","2","2","false","","","","","","","","","","","","","","","","",""
"image-keyboard-response","219","1104194","0.0-4.0-6.0-1.0-1.47","5fd6ebe9b77a3d65df0c0674","63690f60c96a0a9a64b48fbd","63691953923e988ada92a355","null","","null","","","","","","","","./tasks/HMM-beads/Images/WhiteBeadChoice.png","","","","","","","","","","","","","","","","","","","","","","","",""
"image-keyboard-response","220","1104697","0.0-4.0-6.0-1.0-2.47","5fd6ebe9b77a3d65df0c0674","63690f60c96a0a9a64b48fbd","63691953923e988ada92a355","null","","null","","","","","","","","./tasks/HMM-beads/Images/WhiteBeadChoiceWrong.png","","","","","","","","","","","","","","","","","","","","","","","",""
"image-keyboard-response","221","1104962","0.0-4.0-6.0-1.0-0.48","5fd6ebe9b77a3d65df0c0674","63690f60c96a0a9a64b48fbd","63691953923e988ada92a355","262","","f","","","","","","","","./tasks/HMM-beads/Images/NewTrialBC.png","highH","48","2","2","1","1","false","","","","","","","","","","","","","","","","",""
"image-keyboard-response","222","1105265","0.0-4.0-6.0-1.0-1.48","5fd6ebe9b77a3d65df0c0674","63690f60c96a0a9a64b48fbd","63691953923e988ada92a355","null","","null","","","","","","","","./tasks/HMM-beads/Images/BlackBeadChoice.png","","","","","","","","","","","","","","","","","","","","","","","",""
"image-keyboard-response","223","1105769","0.0-4.0-6.0-1.0-2.48","5fd6ebe9b77a3d65df0c0674","63690f60c96a0a9a64b48fbd","63691953923e988ada92a355","null","","null","","","","","","","","./tasks/HMM-beads/Images/BlackBeadChoiceWrong.png","","","","","","","","","","","","","","","","","","","","","","","",""
"image-keyboard-response","224","1106058","0.0-4.0-6.0-1.0-0.49","5fd6ebe9b77a3d65df0c0674","63690f60c96a0a9a64b48fbd","63691953923e988ada92a355","287","","j","","","","","","","","./tasks/HMM-beads/Images/NewTrialWC.png","highH","49","1","1","2","2","false","","","","","","","","","","","","","","","","",""
"image-keyboard-response","225","1106361","0.0-4.0-6.0-1.0-1.49","5fd6ebe9b77a3d65df0c0674","63690f60c96a0a9a64b48fbd","63691953923e988ada92a355","null","","null","","","","","","","","./tasks/HMM-beads/Images/WhiteBeadChoice.png","","","","","","","","","","","","","","","","","","","","","","","",""
"image-keyboard-response","226","1106864","0.0-4.0-6.0-1.0-2.49","5fd6ebe9b77a3d65df0c0674","63690f60c96a0a9a64b48fbd","63691953923e988ada92a355","null","","null","","","","","","","","./tasks/HMM-beads/Images/WhiteBeadChoiceWrong.png","","","","","","","","","","","","","","","","","","","","","","","",""
"image-keyboard-response","227","1107100","0.0-4.0-6.0-1.0-0.50","5fd6ebe9b77a3d65df0c0674","63690f60c96a0a9a64b48fbd","63691953923e988ada92a355","233","","f","","","","","","","","./tasks/HMM-beads/Images/NewTrialBC.png","highH","50","2","1","1","1","true","","","","","","","","","","","","","","","","",""
"image-keyboard-response","228","1107403","0.0-4.0-6.0-1.0-1.50","5fd6ebe9b77a3d65df0c0674","63690f60c96a0a9a64b48fbd","63691953923e988ada92a355","null","","null","","","","","","","","./tasks/HMM-beads/Images/BlackBeadChoice.png","","","","","","","","","","","","","","","","","","","","","","","",""
"image-keyboard-response","229","1107906","0.0-4.0-6.0-1.0-2.50","5fd6ebe9b77a3d65df0c0674","63690f60c96a0a9a64b48fbd","63691953923e988ada92a355","null","","null","","","","","","","","./tasks/HMM-beads/Images/BlackBeadChoiceCorrect.png","","","","","","","","","","","","","","","","","","","","","","","",""
"image-keyboard-response","230","1108344","0.0-4.0-6.0-1.0-0.51","5fd6ebe9b77a3d65df0c0674","63690f60c96a0a9a64b48fbd","63691953923e988ada92a355","435","","j","","","","","","","","./tasks/HMM-beads/Images/NewTrialBC.png","highH","51","1","1","1","2","false","","","","","","","","","","","","","","","","",""
"image-keyboard-response","231","1108657","0.0-4.0-6.0-1.0-1.51","5fd6ebe9b77a3d65df0c0674","63690f60c96a0a9a64b48fbd","63691953923e988ada92a355","null","","null","","","","","","","","./tasks/HMM-beads/Images/WhiteBeadChoice.png","","","","","","","","","","","","","","","","","","","","","","","",""
"image-keyboard-response","232","1109160","0.0-4.0-6.0-1.0-2.51","5fd6ebe9b77a3d65df0c0674","63690f60c96a0a9a64b48fbd","63691953923e988ada92a355","null","","null","","","","","","","","./tasks/HMM-beads/Images/WhiteBeadChoiceWrong.png","","","","","","","","","","","","","","","","","","","","","","","",""
"image-keyboard-response","233","1109395","0.0-4.0-6.0-1.0-0.52","5fd6ebe9b77a3d65df0c0674","63690f60c96a0a9a64b48fbd","63691953923e988ada92a355","232","","j","","","","","","","","./tasks/HMM-beads/Images/NewTrialBC.png","highH","52","2","2","1","2","true","","","","","","","","","","","","","","","","",""
"image-keyboard-response","234","1109698","0.0-4.0-6.0-1.0-1.52","5fd6ebe9b77a3d65df0c0674","63690f60c96a0a9a64b48fbd","63691953923e988ada92a355","null","","null","","","","","","","","./tasks/HMM-beads/Images/WhiteBeadChoice.png","","","","","","","","","","","","","","","","","","","","","","","",""
"image-keyboard-response","235","1110201","0.0-4.0-6.0-1.0-2.52","5fd6ebe9b77a3d65df0c0674","63690f60c96a0a9a64b48fbd","63691953923e988ada92a355","null","","null","","","","","","","","./tasks/HMM-beads/Images/WhiteBeadChoiceCorrect.png","","","","","","","","","","","","","","","","","","","","","","","",""
"image-keyboard-response","236","1110821","0.0-4.0-6.0-1.0-0.53","5fd6ebe9b77a3d65df0c0674","63690f60c96a0a9a64b48fbd","63691953923e988ada92a355","617","","j","","","","","","","","./tasks/HMM-beads/Images/NewTrialWC.png","highH","53","1","1","2","2","false","","","","","","","","","","","","","","","","",""
"image-keyboard-response","237","1111123","0.0-4.0-6.0-1.0-1.53","5fd6ebe9b77a3d65df0c0674","63690f60c96a0a9a64b48fbd","63691953923e988ada92a355","null","","null","","","","","","","","./tasks/HMM-beads/Images/WhiteBeadChoice.png","","","","","","","","","","","","","","","","","","","","","","","",""
"image-keyboard-response","238","1111627","0.0-4.0-6.0-1.0-2.53","5fd6ebe9b77a3d65df0c0674","63690f60c96a0a9a64b48fbd","63691953923e988ada92a355","null","","null","","","","","","","","./tasks/HMM-beads/Images/WhiteBeadChoiceWrong.png","","","","","","","","","","","","","","","","","","","","","","","",""
"image-keyboard-response","239","1111820","0.0-4.0-6.0-1.0-0.54","5fd6ebe9b77a3d65df0c0674","63690f60c96a0a9a64b48fbd","63691953923e988ada92a355","191","","f","","","","","","","","./tasks/HMM-beads/Images/NewTrialBC.png","highH","54","2","2","1","1","false","","","","","","","","","","","","","","","","",""
"image-keyboard-response","240","1112123","0.0-4.0-6.0-1.0-1.54","5fd6ebe9b77a3d65df0c0674","63690f60c96a0a9a64b48fbd","63691953923e988ada92a355","null","","null","","","","","","","","./tasks/HMM-beads/Images/BlackBeadChoice.png","","","","","","","","","","","","","","","","","","","","","","","",""
"image-keyboard-response","241","1112626","0.0-4.0-6.0-1.0-2.54","5fd6ebe9b77a3d65df0c0674","63690f60c96a0a9a64b48fbd","63691953923e988ada92a355","null","","null","","","","","","","","./tasks/HMM-beads/Images/BlackBeadChoiceWrong.png","","","","","","","","","","","","","","","","","","","","","","","",""
"image-keyboard-response","242","1113422","0.0-4.0-6.0-1.0-0.55","5fd6ebe9b77a3d65df0c0674","63690f60c96a0a9a64b48fbd","63691953923e988ada92a355","793","","j","","","","","","","","./tasks/HMM-beads/Images/NewTrialWC.png","highH","55","1","1","2","2","false","","","","","","","","","","","","","","","","",""
"image-keyboard-response","243","1113725","0.0-4.0-6.0-1.0-1.55","5fd6ebe9b77a3d65df0c0674","63690f60c96a0a9a64b48fbd","63691953923e988ada92a355","null","","null","","","","","","","","./tasks/HMM-beads/Images/WhiteBeadChoice.png","","","","","","","","","","","","","","","","","","","","","","","",""
"image-keyboard-response","244","1114227","0.0-4.0-6.0-1.0-2.55","5fd6ebe9b77a3d65df0c0674","63690f60c96a0a9a64b48fbd","63691953923e988ada92a355","null","","null","","","","","","","","./tasks/HMM-beads/Images/WhiteBeadChoiceWrong.png","","","","","","","","","","","","","","","","","","","","","","","",""
"image-keyboard-response","245","1114469","0.0-4.0-6.0-1.0-0.56","5fd6ebe9b77a3d65df0c0674","63690f60c96a0a9a64b48fbd","63691953923e988ada92a355","239","","f","","","","","","","","./tasks/HMM-beads/Images/NewTrialBC.png","highH","56","2","2","1","1","false","","","","","","","","","","","","","","","","",""
"image-keyboard-response","246","1114772","0.0-4.0-6.0-1.0-1.56","5fd6ebe9b77a3d65df0c0674","63690f60c96a0a9a64b48fbd","63691953923e988ada92a355","null","","null","","","","","","","","./tasks/HMM-beads/Images/BlackBeadChoice.png","","","","","","","","","","","","","","","","","","","","","","","",""
"image-keyboard-response","247","1115274","0.0-4.0-6.0-1.0-2.56","5fd6ebe9b77a3d65df0c0674","63690f60c96a0a9a64b48fbd","63691953923e988ada92a355","null","","null","","","","","","","","./tasks/HMM-beads/Images/BlackBeadChoiceWrong.png","","","","","","","","","","","","","","","","","","","","","","","",""
"image-keyboard-response","248","1115901","0.0-4.0-6.0-1.0-0.57","5fd6ebe9b77a3d65df0c0674","63690f60c96a0a9a64b48fbd","63691953923e988ada92a355","624","","f","","","","","","","","./tasks/HMM-beads/Images/NewTrialWC.png","highH","57","1","1","2","1","true","","","","","","","","","","","","","","","","",""
"image-keyboard-response","249","1116204","0.0-4.0-6.0-1.0-1.57","5fd6ebe9b77a3d65df0c0674","63690f60c96a0a9a64b48fbd","63691953923e988ada92a355","null","","null","","","","","","","","./tasks/HMM-beads/Images/BlackBeadChoice.png","","","","","","","","","","","","","","","","","","","","","","","",""
"image-keyboard-response","250","1116715","0.0-4.0-6.0-1.0-2.57","5fd6ebe9b77a3d65df0c0674","63690f60c96a0a9a64b48fbd","63691953923e988ada92a355","null","","null","","","","","","","","./tasks/HMM-beads/Images/BlackBeadChoiceCorrect.png","","","","","","","","","","","","","","","","","","","","","","","",""
"image-keyboard-response","251","1117562","0.0-4.0-6.0-1.0-0.58","5fd6ebe9b77a3d65df0c0674","63690f60c96a0a9a64b48fbd","63691953923e988ada92a355","844","","f","","","","","","","","./tasks/HMM-beads/Images/NewTrialBC.png","highH","58","2","2","1","1","false","","","","","","","","","","","","","","","","",""
"image-keyboard-response","252","1117865","0.0-4.0-6.0-1.0-1.58","5fd6ebe9b77a3d65df0c0674","63690f60c96a0a9a64b48fbd","63691953923e988ada92a355","null","","null","","","","","","","","./tasks/HMM-beads/Images/BlackBeadChoice.png","","","","","","","","","","","","","","","","","","","","","","","",""
"image-keyboard-response","253","1118367","0.0-4.0-6.0-1.0-2.58","5fd6ebe9b77a3d65df0c0674","63690f60c96a0a9a64b48fbd","63691953923e988ada92a355","null","","null","","","","","","","","./tasks/HMM-beads/Images/BlackBeadChoiceWrong.png","","","","","","","","","","","","","","","","","","","","","","","",""
"image-keyboard-response","254","1118969","0.0-4.0-6.0-1.0-0.59","5fd6ebe9b77a3d65df0c0674","63690f60c96a0a9a64b48fbd","63691953923e988ada92a355","599","","j","","","","","","","","./tasks/HMM-beads/Images/NewTrialWC.png","highH","59","1","1","2","2","false","","","","","","","","","","","","","","","","",""
"image-keyboard-response","255","1119272","0.0-4.0-6.0-1.0-1.59","5fd6ebe9b77a3d65df0c0674","63690f60c96a0a9a64b48fbd","63691953923e988ada92a355","null","","null","","","","","","","","./tasks/HMM-beads/Images/WhiteBeadChoice.png","","","","","","","","","","","","","","","","","","","","","","","",""
"image-keyboard-response","256","1119775","0.0-4.0-6.0-1.0-2.59","5fd6ebe9b77a3d65df0c0674","63690f60c96a0a9a64b48fbd","63691953923e988ada92a355","null","","null","","","","","","","","./tasks/HMM-beads/Images/WhiteBeadChoiceWrong.png","","","","","","","","","","","","","","","","","","","","","","","",""
"image-keyboard-response","257","1119787","0.0-4.0-6.0-1.0-0.60","5fd6ebe9b77a3d65df0c0674","63690f60c96a0a9a64b48fbd","63691953923e988ada92a355","9","","f","","","","","","","","./tasks/HMM-beads/Images/NewTrialBC.png","highH","60","2","2","1","1","false","","","","","","","","","","","","","","","","",""
"image-keyboard-response","258","1120089","0.0-4.0-6.0-1.0-1.60","5fd6ebe9b77a3d65df0c0674","63690f60c96a0a9a64b48fbd","63691953923e988ada92a355","null","","null","","","","","","","","./tasks/HMM-beads/Images/BlackBeadChoice.png","","","","","","","","","","","","","","","","","","","","","","","",""
"image-keyboard-response","259","1120592","0.0-4.0-6.0-1.0-2.60","5fd6ebe9b77a3d65df0c0674","63690f60c96a0a9a64b48fbd","63691953923e988ada92a355","null","","null","","","","","","","","./tasks/HMM-beads/Images/BlackBeadChoiceWrong.png","","","","","","","","","","","","","","","","","","","","","","","",""
"image-keyboard-response","260","1121218","0.0-4.0-6.0-1.0-0.61","5fd6ebe9b77a3d65df0c0674","63690f60c96a0a9a64b48fbd","63691953923e988ada92a355","623","","f","","","","","","","","./tasks/HMM-beads/Images/NewTrialWC.png","highH","61","1","2","2","1","false","","","","","","","","","","","","","","","","",""
"image-keyboard-response","261","1121521","0.0-4.0-6.0-1.0-1.61","5fd6ebe9b77a3d65df0c0674","63690f60c96a0a9a64b48fbd","63691953923e988ada92a355","null","","null","","","","","","","","./tasks/HMM-beads/Images/BlackBeadChoice.png","","","","","","","","","","","","","","","","","","","","","","","",""
"image-keyboard-response","262","1122024","0.0-4.0-6.0-1.0-2.61","5fd6ebe9b77a3d65df0c0674","63690f60c96a0a9a64b48fbd","63691953923e988ada92a355","null","","null","","","","","","","","./tasks/HMM-beads/Images/BlackBeadChoiceWrong.png","","","","","","","","","","","","","","","","","","","","","","","",""
"image-keyboard-response","263","1122547","0.0-4.0-6.0-1.0-0.62","5fd6ebe9b77a3d65df0c0674","63690f60c96a0a9a64b48fbd","63691953923e988ada92a355","513","","j","","","","","","","","./tasks/HMM-beads/Images/NewTrialWC.png","highH","62","2","2","2","2","true","","","","","","","","","","","","","","","","",""
"image-keyboard-response","264","1122850","0.0-4.0-6.0-1.0-1.62","5fd6ebe9b77a3d65df0c0674","63690f60c96a0a9a64b48fbd","63691953923e988ada92a355","null","","null","","","","","","","","./tasks/HMM-beads/Images/WhiteBeadChoice.png","","","","","","","","","","","","","","","","","","","","","","","",""
"image-keyboard-response","265","1123353","0.0-4.0-6.0-1.0-2.62","5fd6ebe9b77a3d65df0c0674","63690f60c96a0a9a64b48fbd","63691953923e988ada92a355","null","","null","","","","","","","","./tasks/HMM-beads/Images/WhiteBeadChoiceCorrect.png","","","","","","","","","","","","","","","","","","","","","","","",""
"image-keyboard-response","266","1123575","0.0-4.0-6.0-1.0-0.63","5fd6ebe9b77a3d65df0c0674","63690f60c96a0a9a64b48fbd","63691953923e988ada92a355","219","","j","","","","","","","","./tasks/HMM-beads/Images/NewTrialWC.png","highH","63","1","1","2","2","false","","","","","","","","","","","","","","","","",""
"image-keyboard-response","267","1123878","0.0-4.0-6.0-1.0-1.63","5fd6ebe9b77a3d65df0c0674","63690f60c96a0a9a64b48fbd","63691953923e988ada92a355","null","","null","","","","","","","","./tasks/HMM-beads/Images/WhiteBeadChoice.png","","","","","","","","","","","","","","","","","","","","","","","",""
"image-keyboard-response","268","1124381","0.0-4.0-6.0-1.0-2.63","5fd6ebe9b77a3d65df0c0674","63690f60c96a0a9a64b48fbd","63691953923e988ada92a355","null","","null","","","","","","","","./tasks/HMM-beads/Images/WhiteBeadChoiceWrong.png","","","","","","","","","","","","","","","","","","","","","","","",""
"image-keyboard-response","269","1124724","0.0-4.0-6.0-1.0-0.64","5fd6ebe9b77a3d65df0c0674","63690f60c96a0a9a64b48fbd","63691953923e988ada92a355","341","","f","","","","","","","","./tasks/HMM-beads/Images/NewTrialBC.png","highH","64","2","2","1","1","false","","","","","","","","","","","","","","","","",""
"image-keyboard-response","270","1125027","0.0-4.0-6.0-1.0-1.64","5fd6ebe9b77a3d65df0c0674","63690f60c96a0a9a64b48fbd","63691953923e988ada92a355","null","","null","","","","","","","","./tasks/HMM-beads/Images/BlackBeadChoice.png","","","","","","","","","","","","","","","","","","","","","","","",""
"image-keyboard-response","271","1125530","0.0-4.0-6.0-1.0-2.64","5fd6ebe9b77a3d65df0c0674","63690f60c96a0a9a64b48fbd","63691953923e988ada92a355","null","","null","","","","","","","","./tasks/HMM-beads/Images/BlackBeadChoiceWrong.png","","","","","","","","","","","","","","","","","","","","","","","",""
"image-keyboard-response","272","1125825","0.0-4.0-6.0-1.0-0.65","5fd6ebe9b77a3d65df0c0674","63690f60c96a0a9a64b48fbd","63691953923e988ada92a355","293","","j","","","","","","","","./tasks/HMM-beads/Images/NewTrialWC.png","highH","65","1","1","2","2","false","","","","","","","","","","","","","","","","",""
"image-keyboard-response","273","1126128","0.0-4.0-6.0-1.0-1.65","5fd6ebe9b77a3d65df0c0674","63690f60c96a0a9a64b48fbd","63691953923e988ada92a355","null","","null","","","","","","","","./tasks/HMM-beads/Images/WhiteBeadChoice.png","","","","","","","","","","","","","","","","","","","","","","","",""
"image-keyboard-response","274","1126631","0.0-4.0-6.0-1.0-2.65","5fd6ebe9b77a3d65df0c0674","63690f60c96a0a9a64b48fbd","63691953923e988ada92a355","null","","null","","","","","","","","./tasks/HMM-beads/Images/WhiteBeadChoiceWrong.png","","","","","","","","","","","","","","","","","","","","","","","",""
"image-keyboard-response","275","1126934","0.0-4.0-6.0-1.0-0.66","5fd6ebe9b77a3d65df0c0674","63690f60c96a0a9a64b48fbd","63691953923e988ada92a355","300","","f","","","","","","","","./tasks/HMM-beads/Images/NewTrialBC.png","highH","66","2","2","1","1","false","","","","","","","","","","","","","","","","",""
"image-keyboard-response","276","1127244","0.0-4.0-6.0-1.0-1.66","5fd6ebe9b77a3d65df0c0674","63690f60c96a0a9a64b48fbd","63691953923e988ada92a355","null","","null","","","","","","","","./tasks/HMM-beads/Images/BlackBeadChoice.png","","","","","","","","","","","","","","","","","","","","","","","",""
"image-keyboard-response","277","1127747","0.0-4.0-6.0-1.0-2.66","5fd6ebe9b77a3d65df0c0674","63690f60c96a0a9a64b48fbd","63691953923e988ada92a355","null","","null","","","","","","","","./tasks/HMM-beads/Images/BlackBeadChoiceWrong.png","","","","","","","","","","","","","","","","","","","","","","","",""
"image-keyboard-response","278","1127822","0.0-4.0-6.0-1.0-0.67","5fd6ebe9b77a3d65df0c0674","63690f60c96a0a9a64b48fbd","63691953923e988ada92a355","72","","j","","","","","","","","./tasks/HMM-beads/Images/NewTrialWC.png","highH","67","1","1","2","2","false","","","","","","","","","","","","","","","","",""
"image-keyboard-response","279","1128125","0.0-4.0-6.0-1.0-1.67","5fd6ebe9b77a3d65df0c0674","63690f60c96a0a9a64b48fbd","63691953923e988ada92a355","null","","null","","","","","","","","./tasks/HMM-beads/Images/WhiteBeadChoice.png","","","","","","","","","","","","","","","","","","","","","","","",""
"image-keyboard-response","280","1128628","0.0-4.0-6.0-1.0-2.67","5fd6ebe9b77a3d65df0c0674","63690f60c96a0a9a64b48fbd","63691953923e988ada92a355","null","","null","","","","","","","","./tasks/HMM-beads/Images/WhiteBeadChoiceWrong.png","","","","","","","","","","","","","","","","","","","","","","","",""
"image-keyboard-response","281","1128977","0.0-4.0-6.0-1.0-0.68","5fd6ebe9b77a3d65df0c0674","63690f60c96a0a9a64b48fbd","63691953923e988ada92a355","347","","f","","","","","","","","./tasks/HMM-beads/Images/NewTrialBC.png","highH","68","2","2","1","1","false","","","","","","","","","","","","","","","","",""
"image-keyboard-response","282","1129280","0.0-4.0-6.0-1.0-1.68","5fd6ebe9b77a3d65df0c0674","63690f60c96a0a9a64b48fbd","63691953923e988ada92a355","null","","null","","","","","","","","./tasks/HMM-beads/Images/BlackBeadChoice.png","","","","","","","","","","","","","","","","","","","","","","","",""
"image-keyboard-response","283","1129783","0.0-4.0-6.0-1.0-2.68","5fd6ebe9b77a3d65df0c0674","63690f60c96a0a9a64b48fbd","63691953923e988ada92a355","null","","null","","","","","","","","./tasks/HMM-beads/Images/BlackBeadChoiceWrong.png","","","","","","","","","","","","","","","","","","","","","","","",""
"image-keyboard-response","284","1130567","0.0-4.0-6.0-1.0-0.69","5fd6ebe9b77a3d65df0c0674","63690f60c96a0a9a64b48fbd","63691953923e988ada92a355","782","","j","","","","","","","","./tasks/HMM-beads/Images/NewTrialWC.png","highH","69","1","2","2","2","true","","","","","","","","","","","","","","","","",""
"image-keyboard-response","285","1130870","0.0-4.0-6.0-1.0-1.69","5fd6ebe9b77a3d65df0c0674","63690f60c96a0a9a64b48fbd","63691953923e988ada92a355","null","","null","","","","","","","","./tasks/HMM-beads/Images/WhiteBeadChoice.png","","","","","","","","","","","","","","","","","","","","","","","",""
"image-keyboard-response","286","1131373","0.0-4.0-6.0-1.0-2.69","5fd6ebe9b77a3d65df0c0674","63690f60c96a0a9a64b48fbd","63691953923e988ada92a355","null","","null","","","","","","","","./tasks/HMM-beads/Images/WhiteBeadChoiceCorrect.png","","","","","","","","","","","","","","","","","","","","","","","",""
"image-keyboard-response","287","1131906","0.0-4.0-6.0-1.0-0.70","5fd6ebe9b77a3d65df0c0674","63690f60c96a0a9a64b48fbd","63691953923e988ada92a355","528","","j","","","","","","","","./tasks/HMM-beads/Images/NewTrialWC.png","highH","70","2","2","2","2","true","","","","","","","","","","","","","","","","",""
"image-keyboard-response","288","1132209","0.0-4.0-6.0-1.0-1.70","5fd6ebe9b77a3d65df0c0674","63690f60c96a0a9a64b48fbd","63691953923e988ada92a355","null","","null","","","","","","","","./tasks/HMM-beads/Images/WhiteBeadChoice.png","","","","","","","","","","","","","","","","","","","","","","","",""
"image-keyboard-response","289","1132719","0.0-4.0-6.0-1.0-2.70","5fd6ebe9b77a3d65df0c0674","63690f60c96a0a9a64b48fbd","63691953923e988ada92a355","null","","null","","","","","","","","./tasks/HMM-beads/Images/WhiteBeadChoiceCorrect.png","","","","","","","","","","","","","","","","","","","","","","","",""
"image-keyboard-response","290","1133268","0.0-4.0-6.0-1.0-0.71","5fd6ebe9b77a3d65df0c0674","63690f60c96a0a9a64b48fbd","63691953923e988ada92a355","546","","j","","","","","","","","./tasks/HMM-beads/Images/NewTrialWC.png","highH","71","1","2","2","2","true","","","","","","","","","","","","","","","","",""
"image-keyboard-response","291","1133571","0.0-4.0-6.0-1.0-1.71","5fd6ebe9b77a3d65df0c0674","63690f60c96a0a9a64b48fbd","63691953923e988ada92a355","null","","null","","","","","","","","./tasks/HMM-beads/Images/WhiteBeadChoice.png","","","","","","","","","","","","","","","","","","","","","","","",""
"image-keyboard-response","292","1134074","0.0-4.0-6.0-1.0-2.71","5fd6ebe9b77a3d65df0c0674","63690f60c96a0a9a64b48fbd","63691953923e988ada92a355","null","","null","","","","","","","","./tasks/HMM-beads/Images/WhiteBeadChoiceCorrect.png","","","","","","","","","","","","","","","","","","","","","","","",""
"image-keyboard-response","293","1134618","0.0-4.0-6.0-1.0-0.72","5fd6ebe9b77a3d65df0c0674","63690f60c96a0a9a64b48fbd","63691953923e988ada92a355","541","","j","","","","","","","","./tasks/HMM-beads/Images/NewTrialWC.png","highH","72","2","2","2","2","true","","","","","","","","","","","","","","","","",""
"image-keyboard-response","294","1134920","0.0-4.0-6.0-1.0-1.72","5fd6ebe9b77a3d65df0c0674","63690f60c96a0a9a64b48fbd","63691953923e988ada92a355","null","","null","","","","","","","","./tasks/HMM-beads/Images/WhiteBeadChoice.png","","","","","","","","","","","","","","","","","","","","","","","",""
"image-keyboard-response","295","1135423","0.0-4.0-6.0-1.0-2.72","5fd6ebe9b77a3d65df0c0674","63690f60c96a0a9a64b48fbd","63691953923e988ada92a355","null","","null","","","","","","","","./tasks/HMM-beads/Images/WhiteBeadChoiceCorrect.png","","","","","","","","","","","","","","","","","","","","","","","",""
"image-keyboard-response","296","1138297","0.0-4.0-6.0-1.0-0.73","5fd6ebe9b77a3d65df0c0674","63690f60c96a0a9a64b48fbd","63691953923e988ada92a355","2872","","f","","","","","","","","./tasks/HMM-beads/Images/NewTrialWC.png","highH","73","1","1","2","1","true","","","","","","","","","","","","","","","","",""
"image-keyboard-response","297","1138600","0.0-4.0-6.0-1.0-1.73","5fd6ebe9b77a3d65df0c0674","63690f60c96a0a9a64b48fbd","63691953923e988ada92a355","null","","null","","","","","","","","./tasks/HMM-beads/Images/BlackBeadChoice.png","","","","","","","","","","","","","","","","","","","","","","","",""
"image-keyboard-response","298","1139103","0.0-4.0-6.0-1.0-2.73","5fd6ebe9b77a3d65df0c0674","63690f60c96a0a9a64b48fbd","63691953923e988ada92a355","null","","null","","","","","","","","./tasks/HMM-beads/Images/BlackBeadChoiceCorrect.png","","","","","","","","","","","","","","","","","","","","","","","",""
"image-keyboard-response","299","1143209","0.0-4.0-6.0-1.0-0.74","5fd6ebe9b77a3d65df0c0674","63690f60c96a0a9a64b48fbd","63691953923e988ada92a355","4104","","f","","","","","","","","./tasks/HMM-beads/Images/NewTrialBC.png","highH","74","2","2","1","1","false","","","","","","","","","","","","","","","","",""
"image-keyboard-response","300","1143512","0.0-4.0-6.0-1.0-1.74","5fd6ebe9b77a3d65df0c0674","63690f60c96a0a9a64b48fbd","63691953923e988ada92a355","null","","null","","","","","","","","./tasks/HMM-beads/Images/BlackBeadChoice.png","","","","","","","","","","","","","","","","","","","","","","","",""
"image-keyboard-response","301","1144015","0.0-4.0-6.0-1.0-2.74","5fd6ebe9b77a3d65df0c0674","63690f60c96a0a9a64b48fbd","63691953923e988ada92a355","null","","null","","","","","","","","./tasks/HMM-beads/Images/BlackBeadChoiceWrong.png","","","","","","","","","","","","","","","","","","","","","","","",""
"image-keyboard-response","302","1144981","0.0-4.0-6.0-1.0-0.75","5fd6ebe9b77a3d65df0c0674","63690f60c96a0a9a64b48fbd","63691953923e988ada92a355","953","","j","","","","","","","","./tasks/HMM-beads/Images/NewTrialWC.png","highH","75","1","1","2","2","false","","","","","","","","","","","","","","","","",""
"image-keyboard-response","303","1145284","0.0-4.0-6.0-1.0-1.75","5fd6ebe9b77a3d65df0c0674","63690f60c96a0a9a64b48fbd","63691953923e988ada92a355","null","","null","","","","","","","","./tasks/HMM-beads/Images/WhiteBeadChoice.png","","","","","","","","","","","","","","","","","","","","","","","",""
"image-keyboard-response","304","1145787","0.0-4.0-6.0-1.0-2.75","5fd6ebe9b77a3d65df0c0674","63690f60c96a0a9a64b48fbd","63691953923e988ada92a355","null","","null","","","","","","","","./tasks/HMM-beads/Images/WhiteBeadChoiceWrong.png","","","","","","","","","","","","","","","","","","","","","","","",""
"image-keyboard-response","305","1146515","0.0-4.0-6.0-1.0-0.76","5fd6ebe9b77a3d65df0c0674","63690f60c96a0a9a64b48fbd","63691953923e988ada92a355","726","","f","","","","","","","","./tasks/HMM-beads/Images/NewTrialBC.png","highH","76","2","2","1","1","false","","","","","","","","","","","","","","","","",""
"image-keyboard-response","306","1146818","0.0-4.0-6.0-1.0-1.76","5fd6ebe9b77a3d65df0c0674","63690f60c96a0a9a64b48fbd","63691953923e988ada92a355","null","","null","","","","","","","","./tasks/HMM-beads/Images/BlackBeadChoice.png","","","","","","","","","","","","","","","","","","","","","","","",""
"image-keyboard-response","307","1147321","0.0-4.0-6.0-1.0-2.76","5fd6ebe9b77a3d65df0c0674","63690f60c96a0a9a64b48fbd","63691953923e988ada92a355","null","","null","","","","","","","","./tasks/HMM-beads/Images/BlackBeadChoiceWrong.png","","","","","","","","","","","","","","","","","","","","","","","",""
"image-keyboard-response","308","1147438","0.0-4.0-6.0-1.0-0.77","5fd6ebe9b77a3d65df0c0674","63690f60c96a0a9a64b48fbd","63691953923e988ada92a355","115","","j","","","","","","","","./tasks/HMM-beads/Images/NewTrialWC.png","highH","77","1","1","2","2","false","","","","","","","","","","","","","","","","",""
"image-keyboard-response","309","1147741","0.0-4.0-6.0-1.0-1.77","5fd6ebe9b77a3d65df0c0674","63690f60c96a0a9a64b48fbd","63691953923e988ada92a355","null","","null","","","","","","","","./tasks/HMM-beads/Images/WhiteBeadChoice.png","","","","","","","","","","","","","","","","","","","","","","","",""
"image-keyboard-response","310","1148244","0.0-4.0-6.0-1.0-2.77","5fd6ebe9b77a3d65df0c0674","63690f60c96a0a9a64b48fbd","63691953923e988ada92a355","null","","null","","","","","","","","./tasks/HMM-beads/Images/WhiteBeadChoiceWrong.png","","","","","","","","","","","","","","","","","","","","","","","",""
"image-keyboard-response","311","1148599","0.0-4.0-6.0-1.0-0.78","5fd6ebe9b77a3d65df0c0674","63690f60c96a0a9a64b48fbd","63691953923e988ada92a355","352","","j","","","","","","","","./tasks/HMM-beads/Images/NewTrialBC.png","highH","78","2","2","1","2","true","","","","","","","","","","","","","","","","",""
"image-keyboard-response","312","1148911","0.0-4.0-6.0-1.0-1.78","5fd6ebe9b77a3d65df0c0674","63690f60c96a0a9a64b48fbd","63691953923e988ada92a355","null","","null","","","","","","","","./tasks/HMM-beads/Images/WhiteBeadChoice.png","","","","","","","","","","","","","","","","","","","","","","","",""
"image-keyboard-response","313","1149414","0.0-4.0-6.0-1.0-2.78","5fd6ebe9b77a3d65df0c0674","63690f60c96a0a9a64b48fbd","63691953923e988ada92a355","null","","null","","","","","","","","./tasks/HMM-beads/Images/WhiteBeadChoiceCorrect.png","","","","","","","","","","","","","","","","","","","","","","","",""
"image-keyboard-response","314","1151725","0.0-4.0-6.0-1.0-0.79","5fd6ebe9b77a3d65df0c0674","63690f60c96a0a9a64b48fbd","63691953923e988ada92a355","2309","","j","","","","","","","","./tasks/HMM-beads/Images/NewTrialWC.png","highH","79","1","1","2","2","false","","","","","","","","","","","","","","","","",""
"image-keyboard-response","315","1152028","0.0-4.0-6.0-1.0-1.79","5fd6ebe9b77a3d65df0c0674","63690f60c96a0a9a64b48fbd","63691953923e988ada92a355","null","","null","","","","","","","","./tasks/HMM-beads/Images/WhiteBeadChoice.png","","","","","","","","","","","","","","","","","","","","","","","",""
"image-keyboard-response","316","1152533","0.0-4.0-6.0-1.0-2.79","5fd6ebe9b77a3d65df0c0674","63690f60c96a0a9a64b48fbd","63691953923e988ada92a355","null","","null","","","","","","","","./tasks/HMM-beads/Images/WhiteBeadChoiceWrong.png","","","","","","","","","","","","","","","","","","","","","","","",""
"image-keyboard-response","317","1152561","0.0-4.0-6.0-1.0-0.80","5fd6ebe9b77a3d65df0c0674","63690f60c96a0a9a64b48fbd","63691953923e988ada92a355","25","","f","","","","","","","","./tasks/HMM-beads/Images/NewTrialBC.png","highH","80","2","1","1","1","true","","","","","","","","","","","","","","","","",""
"image-keyboard-response","318","1152863","0.0-4.0-6.0-1.0-1.80","5fd6ebe9b77a3d65df0c0674","63690f60c96a0a9a64b48fbd","63691953923e988ada92a355","null","","null","","","","","","","","./tasks/HMM-beads/Images/BlackBeadChoice.png","","","","","","","","","","","","","","","","","","","","","","","",""
"image-keyboard-response","319","1153366","0.0-4.0-6.0-1.0-2.80","5fd6ebe9b77a3d65df0c0674","63690f60c96a0a9a64b48fbd","63691953923e988ada92a355","null","","null","","","","","","","","./tasks/HMM-beads/Images/BlackBeadChoiceCorrect.png","","","","","","","","","","","","","","","","","","","","","","","",""
"image-keyboard-response","320","1153862","0.0-4.0-6.0-1.0-0.81","5fd6ebe9b77a3d65df0c0674","63690f60c96a0a9a64b48fbd","63691953923e988ada92a355","493","","f","","","","","","","","./tasks/HMM-beads/Images/NewTrialBC.png","highH","81","1","1","1","1","true","","","","","","","","","","","","","","","","",""
