"trial_type","trial_index","time_elapsed","internal_node_id","subject_id","study_id","session_id","rt","url","response","question_order","view_history","success","timeout","failed_images","failed_audio","failed_video","stimulus","block","trial_number","jar","bead","previous_bead","choice","correct","lowH_score","highH_score","state","rewarded","state1_action","state2_visited","state1_key","state2_key","state1_rt","state2_rt","block_num","seq_file","trial_seq_info","two_arm_score_block1","two_arm_score_block2","two_arm_score_total","total_bonus"
"pavlovia","0","1974","0.0-0.0","5d45c2d1da9cb60015aa4312","63690f60c96a0a9a64b48fbd","63691e56cdcd807a533d595e","","","","","","","","","","","","","","","","","","","","","","","","","","","","","","","","","","",""
"external-html","1","18425","0.0-1.0-0.0","5d45c2d1da9cb60015aa4312","63690f60c96a0a9a64b48fbd","63691e56cdcd807a533d595e","16248","new_consent.html","","","","","","","","","","","","","","","","","","","","","","","","","","","","","","","","",""
"survey-multi-choice","2","25800","0.0-1.0-1.0","5d45c2d1da9cb60015aa4312","63690f60c96a0a9a64b48fbd","63691e56cdcd807a533d595e","7363","","{""Q0"":""Female"",""Q1"":""White""}","[0,1]","","","","","","","","","","","","","","","","","","","","","","","","","","","","","","",""
"survey-text","3","28312","0.0-1.0-2.0","5d45c2d1da9cb60015aa4312","63690f60c96a0a9a64b48fbd","63691e56cdcd807a533d595e","2479","","{""Q0"":""41""}","","","","","","","","","","","","","","","","","","","","","","","","","","","","","","","",""
"instructions","4","51321","0.0-2.0","5d45c2d1da9cb60015aa4312","63690f60c96a0a9a64b48fbd","63691e56cdcd807a533d595e","22905","","","","[{""page_index"":0,""viewing_time"":19746},{""page_index"":1,""viewing_time"":3156}]","","","","","","","","","","","","","","","","","","","","","","","","","","","","","",""
"instructions","5","53276","0.0-3.0","5d45c2d1da9cb60015aa4312","63690f60c96a0a9a64b48fbd","63691e56cdcd807a533d595e","1952","","","","[{""page_index"":0,""viewing_time"":1951}]","","","","","","","","","","","","","","","","","","","","","","","","","","","","","",""
"preload","6","54857","0.0-4.0-0.0","5d45c2d1da9cb60015aa4312","63690f60c96a0a9a64b48fbd","63691e56cdcd807a533d595e","","","","","","true","false","[]","[]","[]","","","","","","","","","","","","","","","","","","","","","","","","",""
"instructions","7","107886","0.0-4.0-1.0","5d45c2d1da9cb60015aa4312","63690f60c96a0a9a64b48fbd","63691e56cdcd807a533d595e","53027","","","","[{""page_index"":0,""viewing_time"":8617},{""page_index"":1,""viewing_time"":10229},{""page_index"":2,""viewing_time"":2603},{""page_index"":3,""viewing_time"":1426},{""page_index"":4,""viewing_time"":4874},{""page_index"":5,""viewing_time"":7507},{""page_index"":6,""viewing_time"":2476},{""page_index"":7,""viewing_time"":4718},{""page_index"":8,""viewing_time"":4387},{""page_index"":9,""viewing_time"":2534},{""page_index"":10,""viewing_time"":1922},{""page_index"":11,""viewing_time"":1734}]","","","","","","","","","","","","","","","","","","","","","","","","","","","","","",""
"html-button-response","8","110646","0.0-4.0-2.0-0.0-0.0","5d45c2d1da9cb60015aa4312","63690f60c96a0a9a64b48fbd","63691e56cdcd807a533d595e","2752","","1","","","","","","","","<div align=center>Your goal is to predict…?<br><br></div>","","","","","","","","","","","","","","","","","","","","","","","",""
"html-button-response","9","114169","0.0-4.0-2.0-1.0-0.0","5d45c2d1da9cb60015aa4312","63690f60c96a0a9a64b48fbd","63691e56cdcd807a533d595e","1813","","2","","","","","","","","<div align=center>In the jar with mostly white beads, there are ___% white beads and ___% black beads?<br><br></div>","","","","","","","","","","","","","","","","","","","","","","","",""
"html-button-response","10","118804","0.0-4.0-2.0-2.0-0.0","5d45c2d1da9cb60015aa4312","63690f60c96a0a9a64b48fbd","63691e56cdcd807a533d595e","2906","","1","","","","","","","","<div align=center>When there is a 1% probability that the jars will switch, the next bead will most likely be drawn from the…<br><br></div>","","","","","","","","","","","","","","","","","","","","","","","",""
"html-button-response","11","121129","0.0-4.0-2.0-2.1-0.1","5d45c2d1da9cb60015aa4312","63690f60c96a0a9a64b48fbd","63691e56cdcd807a533d595e","592","","0","","","","","","","","<div align=center>When there is a 1% probability that the jars will switch, the next bead will most likely be drawn from the…<br><br></div>","","","","","","","","","","","","","","","","","","","","","","","",""
"html-button-response","12","124331","0.0-4.0-2.0-3.0-0.0","5d45c2d1da9cb60015aa4312","63690f60c96a0a9a64b48fbd","63691e56cdcd807a533d595e","1828","","1","","","","","","","","<div align=center>When there is a 99% probability that the jars will switch, the next bead will most likely be drawn from the…<br><br></div>","","","","","","","","","","","","","","","","","","","","","","","",""
"instructions","13","151145","0.0-4.0-3.0","5d45c2d1da9cb60015aa4312","63690f60c96a0a9a64b48fbd","63691e56cdcd807a533d595e","25462","","","","[{""page_index"":0,""viewing_time"":25461}]","","","","","","","","","","","","","","","","","","","","","","","","","","","","","",""
"html-keyboard-response","14","155139","0.0-4.0-4.0-0.0","5d45c2d1da9cb60015aa4312","63690f60c96a0a9a64b48fbd","63691e56cdcd807a533d595e","3988",""," ","","","","","","","","<div align=center>In this practice block, there will be a <b>10% chance</b> that the jar on the next trial will be different from the jar on the current trial.<br><br></div>","","","","","","","","","","","","","","","","","","","","","","","",""
"image-keyboard-response","15","158602","0.0-4.0-4.0-1.0-0.0","5d45c2d1da9cb60015aa4312","63690f60c96a0a9a64b48fbd","63691e56cdcd807a533d595e","3443","","f","","","","","","","","./tasks/HMM-beads/Images/NoChoice.png","practice","0","1","1","0","1","true","","","","","","","","","","","","","","","","",""
"image-keyboard-response","16","158910","0.0-4.0-4.0-1.0-1.0","5d45c2d1da9cb60015aa4312","63690f60c96a0a9a64b48fbd","63691e56cdcd807a533d595e","null","","null","","","","","","","","./tasks/HMM-beads/Images/BlackBeadChoice.png","","","","","","","","","","","","","","","","","","","","","","","",""
"image-keyboard-response","17","159421","0.0-4.0-4.0-1.0-2.0","5d45c2d1da9cb60015aa4312","63690f60c96a0a9a64b48fbd","63691e56cdcd807a533d595e","null","","null","","","","","","","","./tasks/HMM-beads/Images/BlackBeadChoiceCorrect.png","","","","","","","","","","","","","","","","","","","","","","","",""
"image-keyboard-response","18","162426","0.0-4.0-4.0-1.0-0.1","5d45c2d1da9cb60015aa4312","63690f60c96a0a9a64b48fbd","63691e56cdcd807a533d595e","2999","","f","","","","","","","","./tasks/HMM-beads/Images/NewTrialBC.png","practice","1","1","1","1","1","true","","","","","","","","","","","","","","","","",""
"image-keyboard-response","19","162733","0.0-4.0-4.0-1.0-1.1","5d45c2d1da9cb60015aa4312","63690f60c96a0a9a64b48fbd","63691e56cdcd807a533d595e","null","","null","","","","","","","","./tasks/HMM-beads/Images/BlackBeadChoice.png","","","","","","","","","","","","","","","","","","","","","","","",""
"image-keyboard-response","20","163245","0.0-4.0-4.0-1.0-2.1","5d45c2d1da9cb60015aa4312","63690f60c96a0a9a64b48fbd","63691e56cdcd807a533d595e","null","","null","","","","","","","","./tasks/HMM-beads/Images/BlackBeadChoiceCorrect.png","","","","","","","","","","","","","","","","","","","","","","","",""
"image-keyboard-response","21","164563","0.0-4.0-4.0-1.0-0.2","5d45c2d1da9cb60015aa4312","63690f60c96a0a9a64b48fbd","63691e56cdcd807a533d595e","1312","","f","","","","","","","","./tasks/HMM-beads/Images/NewTrialBC.png","practice","2","1","2","1","1","false","","","","","","","","","","","","","","","","",""
"image-keyboard-response","22","164869","0.0-4.0-4.0-1.0-1.2","5d45c2d1da9cb60015aa4312","63690f60c96a0a9a64b48fbd","63691e56cdcd807a533d595e","null","","null","","","","","","","","./tasks/HMM-beads/Images/BlackBeadChoice.png","","","","","","","","","","","","","","","","","","","","","","","",""
"image-keyboard-response","23","165381","0.0-4.0-4.0-1.0-2.2","5d45c2d1da9cb60015aa4312","63690f60c96a0a9a64b48fbd","63691e56cdcd807a533d595e","null","","null","","","","","","","","./tasks/HMM-beads/Images/BlackBeadChoiceWrong.png","","","","","","","","","","","","","","","","","","","","","","","",""
"image-keyboard-response","24","169176","0.0-4.0-4.0-1.0-0.3","5d45c2d1da9cb60015aa4312","63690f60c96a0a9a64b48fbd","63691e56cdcd807a533d595e","3789","","j","","","","","","","","./tasks/HMM-beads/Images/NewTrialWC.png","practice","3","1","1","2","2","false","","","","","","","","","","","","","","","","",""
"image-keyboard-response","25","169485","0.0-4.0-4.0-1.0-1.3","5d45c2d1da9cb60015aa4312","63690f60c96a0a9a64b48fbd","63691e56cdcd807a533d595e","null","","null","","","","","","","","./tasks/HMM-beads/Images/WhiteBeadChoice.png","","","","","","","","","","","","","","","","","","","","","","","",""
"image-keyboard-response","26","170013","0.0-4.0-4.0-1.0-2.3","5d45c2d1da9cb60015aa4312","63690f60c96a0a9a64b48fbd","63691e56cdcd807a533d595e","null","","null","","","","","","","","./tasks/HMM-beads/Images/WhiteBeadChoiceWrong.png","","","","","","","","","","","","","","","","","","","","","","","",""
"image-keyboard-response","27","172237","0.0-4.0-4.0-1.0-0.4","5d45c2d1da9cb60015aa4312","63690f60c96a0a9a64b48fbd","63691e56cdcd807a533d595e","2216","","f","","","","","","","","./tasks/HMM-beads/Images/NewTrialBC.png","practice","4","1","2","1","1","false","","","","","","","","","","","","","","","","",""
"image-keyboard-response","28","172548","0.0-4.0-4.0-1.0-1.4","5d45c2d1da9cb60015aa4312","63690f60c96a0a9a64b48fbd","63691e56cdcd807a533d595e","null","","null","","","","","","","","./tasks/HMM-beads/Images/BlackBeadChoice.png","","","","","","","","","","","","","","","","","","","","","","","",""
"image-keyboard-response","29","173060","0.0-4.0-4.0-1.0-2.4","5d45c2d1da9cb60015aa4312","63690f60c96a0a9a64b48fbd","63691e56cdcd807a533d595e","null","","null","","","","","","","","./tasks/HMM-beads/Images/BlackBeadChoiceWrong.png","","","","","","","","","","","","","","","","","","","","","","","",""
"image-keyboard-response","30","176420","0.0-4.0-4.0-1.0-0.5","5d45c2d1da9cb60015aa4312","63690f60c96a0a9a64b48fbd","63691e56cdcd807a533d595e","3355","","j","","","","","","","","./tasks/HMM-beads/Images/NewTrialWC.png","practice","5","1","1","2","2","false","","","","","","","","","","","","","","","","",""
"image-keyboard-response","31","176732","0.0-4.0-4.0-1.0-1.5","5d45c2d1da9cb60015aa4312","63690f60c96a0a9a64b48fbd","63691e56cdcd807a533d595e","null","","null","","","","","","","","./tasks/HMM-beads/Images/WhiteBeadChoice.png","","","","","","","","","","","","","","","","","","","","","","","",""
"image-keyboard-response","32","177244","0.0-4.0-4.0-1.0-2.5","5d45c2d1da9cb60015aa4312","63690f60c96a0a9a64b48fbd","63691e56cdcd807a533d595e","null","","null","","","","","","","","./tasks/HMM-beads/Images/WhiteBeadChoiceWrong.png","","","","","","","","","","","","","","","","","","","","","","","",""
"image-keyboard-response","33","178086","0.0-4.0-4.0-1.0-0.6","5d45c2d1da9cb60015aa4312","63690f60c96a0a9a64b48fbd","63691e56cdcd807a533d595e","837","","j","","","","","","","","./tasks/HMM-beads/Images/NewTrialBC.png","practice","6","1","2","1","2","true","","","","","","","","","","","","","","","","",""
"image-keyboard-response","34","178397","0.0-4.0-4.0-1.0-1.6","5d45c2d1da9cb60015aa4312","63690f60c96a0a9a64b48fbd","63691e56cdcd807a533d595e","null","","null","","","","","","","","./tasks/HMM-beads/Images/WhiteBeadChoice.png","","","","","","","","","","","","","","","","","","","","","","","",""
"image-keyboard-response","35","178909","0.0-4.0-4.0-1.0-2.6","5d45c2d1da9cb60015aa4312","63690f60c96a0a9a64b48fbd","63691e56cdcd807a533d595e","null","","null","","","","","","","","./tasks/HMM-beads/Images/WhiteBeadChoiceCorrect.png","","","","","","","","","","","","","","","","","","","","","","","",""
"image-keyboard-response","36","180559","0.0-4.0-4.0-1.0-0.7","5d45c2d1da9cb60015aa4312","63690f60c96a0a9a64b48fbd","63691e56cdcd807a533d595e","1647","","f","","","","","","","","./tasks/HMM-beads/Images/NewTrialWC.png","practice","7","1","1","2","1","true","","","","","","","","","","","","","","","","",""
"image-keyboard-response","37","180868","0.0-4.0-4.0-1.0-1.7","5d45c2d1da9cb60015aa4312","63690f60c96a0a9a64b48fbd","63691e56cdcd807a533d595e","null","","null","","","","","","","","./tasks/HMM-beads/Images/BlackBeadChoice.png","","","","","","","","","","","","","","","","","","","","","","","",""
"image-keyboard-response","38","181381","0.0-4.0-4.0-1.0-2.7","5d45c2d1da9cb60015aa4312","63690f60c96a0a9a64b48fbd","63691e56cdcd807a533d595e","null","","null","","","","","","","","./tasks/HMM-beads/Images/BlackBeadChoiceCorrect.png","","","","","","","","","","","","","","","","","","","","","","","",""
"image-keyboard-response","39","182429","0.0-4.0-4.0-1.0-0.8","5d45c2d1da9cb60015aa4312","63690f60c96a0a9a64b48fbd","63691e56cdcd807a533d595e","1010","","j","","","","","","","","./tasks/HMM-beads/Images/NewTrialBC.png","practice","8","1","1","1","2","false","","","","","","","","","","","","","","","","",""
"image-keyboard-response","40","182740","0.0-4.0-4.0-1.0-1.8","5d45c2d1da9cb60015aa4312","63690f60c96a0a9a64b48fbd","63691e56cdcd807a533d595e","null","","null","","","","","","","","./tasks/HMM-beads/Images/WhiteBeadChoice.png","","","","","","","","","","","","","","","","","","","","","","","",""
"image-keyboard-response","41","183252","0.0-4.0-4.0-1.0-2.8","5d45c2d1da9cb60015aa4312","63690f60c96a0a9a64b48fbd","63691e56cdcd807a533d595e","null","","null","","","","","","","","./tasks/HMM-beads/Images/WhiteBeadChoiceWrong.png","","","","","","","","","","","","","","","","","","","","","","","",""
"image-keyboard-response","42","184722","0.0-4.0-4.0-1.0-0.9","5d45c2d1da9cb60015aa4312","63690f60c96a0a9a64b48fbd","63691e56cdcd807a533d595e","1466","","j","","","","","","","","./tasks/HMM-beads/Images/NewTrialBC.png","practice","9","2","2","1","2","true","","","","","","","","","","","","","","","","",""
"image-keyboard-response","43","185028","0.0-4.0-4.0-1.0-1.9","5d45c2d1da9cb60015aa4312","63690f60c96a0a9a64b48fbd","63691e56cdcd807a533d595e","null","","null","","","","","","","","./tasks/HMM-beads/Images/WhiteBeadChoice.png","","","","","","","","","","","","","","","","","","","","","","","",""
"image-keyboard-response","44","185540","0.0-4.0-4.0-1.0-2.9","5d45c2d1da9cb60015aa4312","63690f60c96a0a9a64b48fbd","63691e56cdcd807a533d595e","null","","null","","","","","","","","./tasks/HMM-beads/Images/WhiteBeadChoiceCorrect.png","","","","","","","","","","","","","","","","","","","","","","","",""
"image-keyboard-response","45","185780","0.0-4.0-4.0-1.0-0.10","5d45c2d1da9cb60015aa4312","63690f60c96a0a9a64b48fbd","63691e56cdcd807a533d595e","236","","j","","","","","","","","./tasks/HMM-beads/Images/NewTrialWC.png","practice","10","2","1","2","2","false","","","","","","","","","","","","","","","","",""
"image-keyboard-response","46","186085","0.0-4.0-4.0-1.0-1.10","5d45c2d1da9cb60015aa4312","63690f60c96a0a9a64b48fbd","63691e56cdcd807a533d595e","null","","null","","","","","","","","./tasks/HMM-beads/Images/WhiteBeadChoice.png","","","","","","","","","","","","","","","","","","","","","","","",""
"image-keyboard-response","47","186596","0.0-4.0-4.0-1.0-2.10","5d45c2d1da9cb60015aa4312","63690f60c96a0a9a64b48fbd","63691e56cdcd807a533d595e","null","","null","","","","","","","","./tasks/HMM-beads/Images/WhiteBeadChoiceWrong.png","","","","","","","","","","","","","","","","","","","","","","","",""
"image-keyboard-response","48","186883","0.0-4.0-4.0-1.0-0.11","5d45c2d1da9cb60015aa4312","63690f60c96a0a9a64b48fbd","63691e56cdcd807a533d595e","283","","f","","","","","","","","./tasks/HMM-beads/Images/NewTrialBC.png","practice","11","2","2","1","1","false","","","","","","","","","","","","","","","","",""
"image-keyboard-response","49","187188","0.0-4.0-4.0-1.0-1.11","5d45c2d1da9cb60015aa4312","63690f60c96a0a9a64b48fbd","63691e56cdcd807a533d595e","null","","null","","","","","","","","./tasks/HMM-beads/Images/BlackBeadChoice.png","","","","","","","","","","","","","","","","","","","","","","","",""
"image-keyboard-response","50","187701","0.0-4.0-4.0-1.0-2.11","5d45c2d1da9cb60015aa4312","63690f60c96a0a9a64b48fbd","63691e56cdcd807a533d595e","null","","null","","","","","","","","./tasks/HMM-beads/Images/BlackBeadChoiceWrong.png","","","","","","","","","","","","","","","","","","","","","","","",""
"image-keyboard-response","51","188233","0.0-4.0-4.0-1.0-0.12","5d45c2d1da9cb60015aa4312","63690f60c96a0a9a64b48fbd","63691e56cdcd807a533d595e","528","","j","","","","","","","","./tasks/HMM-beads/Images/NewTrialWC.png","practice","12","2","2","2","2","true","","","","","","","","","","","","","","","","",""
"image-keyboard-response","52","188556","0.0-4.0-4.0-1.0-1.12","5d45c2d1da9cb60015aa4312","63690f60c96a0a9a64b48fbd","63691e56cdcd807a533d595e","null","","null","","","","","","","","./tasks/HMM-beads/Images/WhiteBeadChoice.png","","","","","","","","","","","","","","","","","","","","","","","",""
"image-keyboard-response","53","189068","0.0-4.0-4.0-1.0-2.12","5d45c2d1da9cb60015aa4312","63690f60c96a0a9a64b48fbd","63691e56cdcd807a533d595e","null","","null","","","","","","","","./tasks/HMM-beads/Images/WhiteBeadChoiceCorrect.png","","","","","","","","","","","","","","","","","","","","","","","",""
"image-keyboard-response","54","189290","0.0-4.0-4.0-1.0-0.13","5d45c2d1da9cb60015aa4312","63690f60c96a0a9a64b48fbd","63691e56cdcd807a533d595e","218","","j","","","","","","","","./tasks/HMM-beads/Images/NewTrialWC.png","practice","13","2","2","2","2","true","","","","","","","","","","","","","","","","",""
"image-keyboard-response","55","189596","0.0-4.0-4.0-1.0-1.13","5d45c2d1da9cb60015aa4312","63690f60c96a0a9a64b48fbd","63691e56cdcd807a533d595e","null","","null","","","","","","","","./tasks/HMM-beads/Images/WhiteBeadChoice.png","","","","","","","","","","","","","","","","","","","","","","","",""
"image-keyboard-response","56","190109","0.0-4.0-4.0-1.0-2.13","5d45c2d1da9cb60015aa4312","63690f60c96a0a9a64b48fbd","63691e56cdcd807a533d595e","null","","null","","","","","","","","./tasks/HMM-beads/Images/WhiteBeadChoiceCorrect.png","","","","","","","","","","","","","","","","","","","","","","","",""
"image-keyboard-response","57","190685","0.0-4.0-4.0-1.0-0.14","5d45c2d1da9cb60015aa4312","63690f60c96a0a9a64b48fbd","63691e56cdcd807a533d595e","572","","j","","","","","","","","./tasks/HMM-beads/Images/NewTrialWC.png","practice","14","2","2","2","2","true","","","","","","","","","","","","","","","","",""
"image-keyboard-response","58","190997","0.0-4.0-4.0-1.0-1.14","5d45c2d1da9cb60015aa4312","63690f60c96a0a9a64b48fbd","63691e56cdcd807a533d595e","null","","null","","","","","","","","./tasks/HMM-beads/Images/WhiteBeadChoice.png","","","","","","","","","","","","","","","","","","","","","","","",""
"image-keyboard-response","59","191508","0.0-4.0-4.0-1.0-2.14","5d45c2d1da9cb60015aa4312","63690f60c96a0a9a64b48fbd","63691e56cdcd807a533d595e","null","","null","","","","","","","","./tasks/HMM-beads/Images/WhiteBeadChoiceCorrect.png","","","","","","","","","","","","","","","","","","","","","","","",""
"image-keyboard-response","60","191563","0.0-4.0-4.0-1.0-0.15","5d45c2d1da9cb60015aa4312","63690f60c96a0a9a64b48fbd","63691e56cdcd807a533d595e","50","","j","","","","","","","","./tasks/HMM-beads/Images/NewTrialWC.png","practice","15","1","1","2","2","false","","","","","","","","","","","","","","","","",""
"image-keyboard-response","61","191868","0.0-4.0-4.0-1.0-1.15","5d45c2d1da9cb60015aa4312","63690f60c96a0a9a64b48fbd","63691e56cdcd807a533d595e","null","","null","","","","","","","","./tasks/HMM-beads/Images/WhiteBeadChoice.png","","","","","","","","","","","","","","","","","","","","","","","",""
"image-keyboard-response","62","192380","0.0-4.0-4.0-1.0-2.15","5d45c2d1da9cb60015aa4312","63690f60c96a0a9a64b48fbd","63691e56cdcd807a533d595e","null","","null","","","","","","","","./tasks/HMM-beads/Images/WhiteBeadChoiceWrong.png","","","","","","","","","","","","","","","","","","","","","","","",""
"image-keyboard-response","63","195771","0.0-4.0-4.0-1.0-0.16","5d45c2d1da9cb60015aa4312","63690f60c96a0a9a64b48fbd","63691e56cdcd807a533d595e","3366","","f","","","","","","","","./tasks/HMM-beads/Images/NewTrialBC.png","practice","16","1","2","1","1","false","","","","","","","","","","","","","","","","",""
"image-keyboard-response","64","196077","0.0-4.0-4.0-1.0-1.16","5d45c2d1da9cb60015aa4312","63690f60c96a0a9a64b48fbd","63691e56cdcd807a533d595e","null","","null","","","","","","","","./tasks/HMM-beads/Images/BlackBeadChoice.png","","","","","","","","","","","","","","","","","","","","","","","",""
"image-keyboard-response","65","196588","0.0-4.0-4.0-1.0-2.16","5d45c2d1da9cb60015aa4312","63690f60c96a0a9a64b48fbd","63691e56cdcd807a533d595e","null","","null","","","","","","","","./tasks/HMM-beads/Images/BlackBeadChoiceWrong.png","","","","","","","","","","","","","","","","","","","","","","","",""
"image-keyboard-response","66","196826","0.0-4.0-4.0-1.0-0.17","5d45c2d1da9cb60015aa4312","63690f60c96a0a9a64b48fbd","63691e56cdcd807a533d595e","234","","j","","","","","","","","./tasks/HMM-beads/Images/NewTrialWC.png","practice","17","1","1","2","2","false","","","","","","","","","","","","","","","","",""
"image-keyboard-response","67","197133","0.0-4.0-4.0-1.0-1.17","5d45c2d1da9cb60015aa4312","63690f60c96a0a9a64b48fbd","63691e56cdcd807a533d595e","null","","null","","","","","","","","./tasks/HMM-beads/Images/WhiteBeadChoice.png","","","","","","","","","","","","","","","","","","","","","","","",""
"image-keyboard-response","68","197652","0.0-4.0-4.0-1.0-2.17","5d45c2d1da9cb60015aa4312","63690f60c96a0a9a64b48fbd","63691e56cdcd807a533d595e","null","","null","","","","","","","","./tasks/HMM-beads/Images/WhiteBeadChoiceWrong.png","","","","","","","","","","","","","","","","","","","","","","","",""
"image-keyboard-response","69","212579","0.0-4.0-4.0-1.0-0.18","5d45c2d1da9cb60015aa4312","63690f60c96a0a9a64b48fbd","63691e56cdcd807a533d595e","14922","","f","","","","","","","","./tasks/HMM-beads/Images/NewTrialBC.png","practice","18","1","1","1","1","true","","","","","","","","","","","","","","","","",""
"image-keyboard-response","70","212884","0.0-4.0-4.0-1.0-1.18","5d45c2d1da9cb60015aa4312","63690f60c96a0a9a64b48fbd","63691e56cdcd807a533d595e","null","","null","","","","","","","","./tasks/HMM-beads/Images/BlackBeadChoice.png","","","","","","","","","","","","","","","","","","","","","","","",""
"image-keyboard-response","71","213397","0.0-4.0-4.0-1.0-2.18","5d45c2d1da9cb60015aa4312","63690f60c96a0a9a64b48fbd","63691e56cdcd807a533d595e","null","","null","","","","","","","","./tasks/HMM-beads/Images/BlackBeadChoiceCorrect.png","","","","","","","","","","","","","","","","","","","","","","","",""
"image-keyboard-response","72","216674","0.0-4.0-4.0-1.0-0.19","5d45c2d1da9cb60015aa4312","63690f60c96a0a9a64b48fbd","63691e56cdcd807a533d595e","3273","","f","","","","","","","","./tasks/HMM-beads/Images/NewTrialBC.png","practice","19","1","1","1","1","true","","","","","","","","","","","","","","","","",""
"image-keyboard-response","73","216981","0.0-4.0-4.0-1.0-1.19","5d45c2d1da9cb60015aa4312","63690f60c96a0a9a64b48fbd","63691e56cdcd807a533d595e","null","","null","","","","","","","","./tasks/HMM-beads/Images/BlackBeadChoice.png","","","","","","","","","","","","","","","","","","","","","","","",""
"image-keyboard-response","74","217492","0.0-4.0-4.0-1.0-2.19","5d45c2d1da9cb60015aa4312","63690f60c96a0a9a64b48fbd","63691e56cdcd807a533d595e","null","","null","","","","","","","","./tasks/HMM-beads/Images/BlackBeadChoiceCorrect.png","","","","","","","","","","","","","","","","","","","","","","","",""
"html-keyboard-response","75","245654","0.0-4.0-4.0-2.0","5d45c2d1da9cb60015aa4312","63690f60c96a0a9a64b48fbd","63691e56cdcd807a533d595e","28159",""," ","","","","","","","","","","","","","","","","","","","","","","","","","","","","","","","",""
"instructions","76","358841","0.0-4.0-5.0","5d45c2d1da9cb60015aa4312","63690f60c96a0a9a64b48fbd","63691e56cdcd807a533d595e","113185","","","","[{""page_index"":0,""viewing_time"":108841},{""page_index"":1,""viewing_time"":4343}]","","","","","","","","","","","","","","","","","","","","","","","","","","","","","",""
"html-keyboard-response","77","364025","0.0-4.0-6.0-0.0","5d45c2d1da9cb60015aa4312","63690f60c96a0a9a64b48fbd","63691e56cdcd807a533d595e","5181",""," ","","","","","","","","<div align=center>In this block, there will be a <b>1% chance</b> that the jar on the next trial will be different from the jar on the current trial.<br><br></div>","","","","","","","","","","","","","","","","","","","","","","","",""
"image-keyboard-response","78","365534","0.0-4.0-6.0-1.0-0.0","5d45c2d1da9cb60015aa4312","63690f60c96a0a9a64b48fbd","63691e56cdcd807a533d595e","1505","","f","","","","","","","","./tasks/HMM-beads/Images/NoChoice.png","lowH","0","2","2","0","1","false","","","","","","","","","","","","","","","","",""
"image-keyboard-response","79","365844","0.0-4.0-6.0-1.0-1.0","5d45c2d1da9cb60015aa4312","63690f60c96a0a9a64b48fbd","63691e56cdcd807a533d595e","null","","null","","","","","","","","./tasks/HMM-beads/Images/BlackBeadChoice.png","","","","","","","","","","","","","","","","","","","","","","","",""
"image-keyboard-response","80","366357","0.0-4.0-6.0-1.0-2.0","5d45c2d1da9cb60015aa4312","63690f60c96a0a9a64b48fbd","63691e56cdcd807a533d595e","null","","null","","","","","","","","./tasks/HMM-beads/Images/BlackBeadChoiceWrong.png","","","","","","","","","","","","","","","","","","","","","","","",""
"image-keyboard-response","81","367355","0.0-4.0-6.0-1.0-0.1","5d45c2d1da9cb60015aa4312","63690f60c96a0a9a64b48fbd","63691e56cdcd807a533d595e","994","","f","","","","","","","","./tasks/HMM-beads/Images/NewTrialWC.png","lowH","1","2","2","2","1","false","","","","","","","","","","","","","","","","",""
"image-keyboard-response","82","367660","0.0-4.0-6.0-1.0-1.1","5d45c2d1da9cb60015aa4312","63690f60c96a0a9a64b48fbd","63691e56cdcd807a533d595e","null","","null","","","","","","","","./tasks/HMM-beads/Images/BlackBeadChoice.png","","","","","","","","","","","","","","","","","","","","","","","",""
"image-keyboard-response","83","368173","0.0-4.0-6.0-1.0-2.1","5d45c2d1da9cb60015aa4312","63690f60c96a0a9a64b48fbd","63691e56cdcd807a533d595e","null","","null","","","","","","","","./tasks/HMM-beads/Images/BlackBeadChoiceWrong.png","","","","","","","","","","","","","","","","","","","","","","","",""
"image-keyboard-response","84","368233","0.0-4.0-6.0-1.0-0.2","5d45c2d1da9cb60015aa4312","63690f60c96a0a9a64b48fbd","63691e56cdcd807a533d595e","56","","j","","","","","","","","./tasks/HMM-beads/Images/NewTrialWC.png","lowH","2","2","2","2","2","true","","","","","","","","","","","","","","","","",""
"image-keyboard-response","85","368540","0.0-4.0-6.0-1.0-1.2","5d45c2d1da9cb60015aa4312","63690f60c96a0a9a64b48fbd","63691e56cdcd807a533d595e","null","","null","","","","","","","","./tasks/HMM-beads/Images/WhiteBeadChoice.png","","","","","","","","","","","","","","","","","","","","","","","",""
"image-keyboard-response","86","369053","0.0-4.0-6.0-1.0-2.2","5d45c2d1da9cb60015aa4312","63690f60c96a0a9a64b48fbd","63691e56cdcd807a533d595e","null","","null","","","","","","","","./tasks/HMM-beads/Images/WhiteBeadChoiceCorrect.png","","","","","","","","","","","","","","","","","","","","","","","",""
"image-keyboard-response","87","369696","0.0-4.0-6.0-1.0-0.3","5d45c2d1da9cb60015aa4312","63690f60c96a0a9a64b48fbd","63691e56cdcd807a533d595e","639","","j","","","","","","","","./tasks/HMM-beads/Images/NewTrialWC.png","lowH","3","2","2","2","2","true","","","","","","","","","","","","","","","","",""
"image-keyboard-response","88","370005","0.0-4.0-6.0-1.0-1.3","5d45c2d1da9cb60015aa4312","63690f60c96a0a9a64b48fbd","63691e56cdcd807a533d595e","null","","null","","","","","","","","./tasks/HMM-beads/Images/WhiteBeadChoice.png","","","","","","","","","","","","","","","","","","","","","","","",""
"image-keyboard-response","89","370516","0.0-4.0-6.0-1.0-2.3","5d45c2d1da9cb60015aa4312","63690f60c96a0a9a64b48fbd","63691e56cdcd807a533d595e","null","","null","","","","","","","","./tasks/HMM-beads/Images/WhiteBeadChoiceCorrect.png","","","","","","","","","","","","","","","","","","","","","","","",""
"image-keyboard-response","90","371180","0.0-4.0-6.0-1.0-0.4","5d45c2d1da9cb60015aa4312","63690f60c96a0a9a64b48fbd","63691e56cdcd807a533d595e","660","","j","","","","","","","","./tasks/HMM-beads/Images/NewTrialWC.png","lowH","4","2","1","2","2","false","","","","","","","","","","","","","","","","",""
"image-keyboard-response","91","371484","0.0-4.0-6.0-1.0-1.4","5d45c2d1da9cb60015aa4312","63690f60c96a0a9a64b48fbd","63691e56cdcd807a533d595e","null","","null","","","","","","","","./tasks/HMM-beads/Images/WhiteBeadChoice.png","","","","","","","","","","","","","","","","","","","","","","","",""
"image-keyboard-response","92","371990","0.0-4.0-6.0-1.0-2.4","5d45c2d1da9cb60015aa4312","63690f60c96a0a9a64b48fbd","63691e56cdcd807a533d595e","null","","null","","","","","","","","./tasks/HMM-beads/Images/WhiteBeadChoiceWrong.png","","","","","","","","","","","","","","","","","","","","","","","",""
"image-keyboard-response","93","373813","0.0-4.0-6.0-1.0-0.5","5d45c2d1da9cb60015aa4312","63690f60c96a0a9a64b48fbd","63691e56cdcd807a533d595e","1820","","f","","","","","","","","./tasks/HMM-beads/Images/NewTrialBC.png","lowH","5","2","2","1","1","false","","","","","","","","","","","","","","","","",""
"image-keyboard-response","94","374124","0.0-4.0-6.0-1.0-1.5","5d45c2d1da9cb60015aa4312","63690f60c96a0a9a64b48fbd","63691e56cdcd807a533d595e","null","","null","","","","","","","","./tasks/HMM-beads/Images/BlackBeadChoice.png","","","","","","","","","","","","","","","","","","","","","","","",""
"image-keyboard-response","95","374636","0.0-4.0-6.0-1.0-2.5","5d45c2d1da9cb60015aa4312","63690f60c96a0a9a64b48fbd","63691e56cdcd807a533d595e","null","","null","","","","","","","","./tasks/HMM-beads/Images/BlackBeadChoiceWrong.png","","","","","","","","","","","","","","","","","","","","","","","",""
"image-keyboard-response","96","375410","0.0-4.0-6.0-1.0-0.6","5d45c2d1da9cb60015aa4312","63690f60c96a0a9a64b48fbd","63691e56cdcd807a533d595e","770","","j","","","","","","","","./tasks/HMM-beads/Images/NewTrialWC.png","lowH","6","2","2","2","2","true","","","","","","","","","","","","","","","","",""
"image-keyboard-response","97","375716","0.0-4.0-6.0-1.0-1.6","5d45c2d1da9cb60015aa4312","63690f60c96a0a9a64b48fbd","63691e56cdcd807a533d595e","null","","null","","","","","","","","./tasks/HMM-beads/Images/WhiteBeadChoice.png","","","","","","","","","","","","","","","","","","","","","","","",""
"image-keyboard-response","98","376229","0.0-4.0-6.0-1.0-2.6","5d45c2d1da9cb60015aa4312","63690f60c96a0a9a64b48fbd","63691e56cdcd807a533d595e","null","","null","","","","","","","","./tasks/HMM-beads/Images/WhiteBeadChoiceCorrect.png","","","","","","","","","","","","","","","","","","","","","","","",""
"image-keyboard-response","99","376492","0.0-4.0-6.0-1.0-0.7","5d45c2d1da9cb60015aa4312","63690f60c96a0a9a64b48fbd","63691e56cdcd807a533d595e","259","","j","","","","","","","","./tasks/HMM-beads/Images/NewTrialWC.png","lowH","7","2","2","2","2","true","","","","","","","","","","","","","","","","",""
"image-keyboard-response","100","376805","0.0-4.0-6.0-1.0-1.7","5d45c2d1da9cb60015aa4312","63690f60c96a0a9a64b48fbd","63691e56cdcd807a533d595e","null","","null","","","","","","","","./tasks/HMM-beads/Images/WhiteBeadChoice.png","","","","","","","","","","","","","","","","","","","","","","","",""
"image-keyboard-response","101","377316","0.0-4.0-6.0-1.0-2.7","5d45c2d1da9cb60015aa4312","63690f60c96a0a9a64b48fbd","63691e56cdcd807a533d595e","null","","null","","","","","","","","./tasks/HMM-beads/Images/WhiteBeadChoiceCorrect.png","","","","","","","","","","","","","","","","","","","","","","","",""
"image-keyboard-response","102","377389","0.0-4.0-6.0-1.0-0.8","5d45c2d1da9cb60015aa4312","63690f60c96a0a9a64b48fbd","63691e56cdcd807a533d595e","69","","j","","","","","","","","./tasks/HMM-beads/Images/NewTrialWC.png","lowH","8","2","2","2","2","true","","","","","","","","","","","","","","","","",""
"image-keyboard-response","103","377700","0.0-4.0-6.0-1.0-1.8","5d45c2d1da9cb60015aa4312","63690f60c96a0a9a64b48fbd","63691e56cdcd807a533d595e","null","","null","","","","","","","","./tasks/HMM-beads/Images/WhiteBeadChoice.png","","","","","","","","","","","","","","","","","","","","","","","",""
"image-keyboard-response","104","378212","0.0-4.0-6.0-1.0-2.8","5d45c2d1da9cb60015aa4312","63690f60c96a0a9a64b48fbd","63691e56cdcd807a533d595e","null","","null","","","","","","","","./tasks/HMM-beads/Images/WhiteBeadChoiceCorrect.png","","","","","","","","","","","","","","","","","","","","","","","",""
"image-keyboard-response","105","379371","0.0-4.0-6.0-1.0-0.9","5d45c2d1da9cb60015aa4312","63690f60c96a0a9a64b48fbd","63691e56cdcd807a533d595e","1154","","j","","","","","","","","./tasks/HMM-beads/Images/NewTrialWC.png","lowH","9","2","2","2","2","true","","","","","","","","","","","","","","","","",""
"image-keyboard-response","106","379676","0.0-4.0-6.0-1.0-1.9","5d45c2d1da9cb60015aa4312","63690f60c96a0a9a64b48fbd","63691e56cdcd807a533d595e","null","","null","","","","","","","","./tasks/HMM-beads/Images/WhiteBeadChoice.png","","","","","","","","","","","","","","","","","","","","","","","",""
"image-keyboard-response","107","380188","0.0-4.0-6.0-1.0-2.9","5d45c2d1da9cb60015aa4312","63690f60c96a0a9a64b48fbd","63691e56cdcd807a533d595e","null","","null","","","","","","","","./tasks/HMM-beads/Images/WhiteBeadChoiceCorrect.png","","","","","","","","","","","","","","","","","","","","","","","",""
"image-keyboard-response","108","380675","0.0-4.0-6.0-1.0-0.10","5d45c2d1da9cb60015aa4312","63690f60c96a0a9a64b48fbd","63691e56cdcd807a533d595e","483","","j","","","","","","","","./tasks/HMM-beads/Images/NewTrialWC.png","lowH","10","2","2","2","2","true","","","","","","","","","","","","","","","","",""
"image-keyboard-response","109","381012","0.0-4.0-6.0-1.0-1.10","5d45c2d1da9cb60015aa4312","63690f60c96a0a9a64b48fbd","63691e56cdcd807a533d595e","null","","null","","","","","","","","./tasks/HMM-beads/Images/WhiteBeadChoice.png","","","","","","","","","","","","","","","","","","","","","","","",""
"image-keyboard-response","110","381524","0.0-4.0-6.0-1.0-2.10","5d45c2d1da9cb60015aa4312","63690f60c96a0a9a64b48fbd","63691e56cdcd807a533d595e","null","","null","","","","","","","","./tasks/HMM-beads/Images/WhiteBeadChoiceCorrect.png","","","","","","","","","","","","","","","","","","","","","","","",""
"image-keyboard-response","111","381823","0.0-4.0-6.0-1.0-0.11","5d45c2d1da9cb60015aa4312","63690f60c96a0a9a64b48fbd","63691e56cdcd807a533d595e","295","","j","","","","","","","","./tasks/HMM-beads/Images/NewTrialWC.png","lowH","11","2","2","2","2","true","","","","","","","","","","","","","","","","",""
"image-keyboard-response","112","382132","0.0-4.0-6.0-1.0-1.11","5d45c2d1da9cb60015aa4312","63690f60c96a0a9a64b48fbd","63691e56cdcd807a533d595e","null","","null","","","","","","","","./tasks/HMM-beads/Images/WhiteBeadChoice.png","","","","","","","","","","","","","","","","","","","","","","","",""
"image-keyboard-response","113","382644","0.0-4.0-6.0-1.0-2.11","5d45c2d1da9cb60015aa4312","63690f60c96a0a9a64b48fbd","63691e56cdcd807a533d595e","null","","null","","","","","","","","./tasks/HMM-beads/Images/WhiteBeadChoiceCorrect.png","","","","","","","","","","","","","","","","","","","","","","","",""
"image-keyboard-response","114","382835","0.0-4.0-6.0-1.0-0.12","5d45c2d1da9cb60015aa4312","63690f60c96a0a9a64b48fbd","63691e56cdcd807a533d595e","186","","j","","","","","","","","./tasks/HMM-beads/Images/NewTrialWC.png","lowH","12","2","2","2","2","true","","","","","","","","","","","","","","","","",""
"image-keyboard-response","115","383140","0.0-4.0-6.0-1.0-1.12","5d45c2d1da9cb60015aa4312","63690f60c96a0a9a64b48fbd","63691e56cdcd807a533d595e","null","","null","","","","","","","","./tasks/HMM-beads/Images/WhiteBeadChoice.png","","","","","","","","","","","","","","","","","","","","","","","",""
"image-keyboard-response","116","383645","0.0-4.0-6.0-1.0-2.12","5d45c2d1da9cb60015aa4312","63690f60c96a0a9a64b48fbd","63691e56cdcd807a533d595e","null","","null","","","","","","","","./tasks/HMM-beads/Images/WhiteBeadChoiceCorrect.png","","","","","","","","","","","","","","","","","","","","","","","",""
"image-keyboard-response","117","383938","0.0-4.0-6.0-1.0-0.13","5d45c2d1da9cb60015aa4312","63690f60c96a0a9a64b48fbd","63691e56cdcd807a533d595e","289","","j","","","","","","","","./tasks/HMM-beads/Images/NewTrialWC.png","lowH","13","2","2","2","2","true","","","","","","","","","","","","","","","","",""
"image-keyboard-response","118","384244","0.0-4.0-6.0-1.0-1.13","5d45c2d1da9cb60015aa4312","63690f60c96a0a9a64b48fbd","63691e56cdcd807a533d595e","null","","null","","","","","","","","./tasks/HMM-beads/Images/WhiteBeadChoice.png","","","","","","","","","","","","","","","","","","","","","","","",""
"image-keyboard-response","119","384756","0.0-4.0-6.0-1.0-2.13","5d45c2d1da9cb60015aa4312","63690f60c96a0a9a64b48fbd","63691e56cdcd807a533d595e","null","","null","","","","","","","","./tasks/HMM-beads/Images/WhiteBeadChoiceCorrect.png","","","","","","","","","","","","","","","","","","","","","","","",""
"image-keyboard-response","120","385062","0.0-4.0-6.0-1.0-0.14","5d45c2d1da9cb60015aa4312","63690f60c96a0a9a64b48fbd","63691e56cdcd807a533d595e","270","","j","","","","","","","","./tasks/HMM-beads/Images/NewTrialWC.png","lowH","14","2","2","2","2","true","","","","","","","","","","","","","","","","",""
"image-keyboard-response","121","385373","0.0-4.0-6.0-1.0-1.14","5d45c2d1da9cb60015aa4312","63690f60c96a0a9a64b48fbd","63691e56cdcd807a533d595e","null","","null","","","","","","","","./tasks/HMM-beads/Images/WhiteBeadChoice.png","","","","","","","","","","","","","","","","","","","","","","","",""
"image-keyboard-response","122","385885","0.0-4.0-6.0-1.0-2.14","5d45c2d1da9cb60015aa4312","63690f60c96a0a9a64b48fbd","63691e56cdcd807a533d595e","null","","null","","","","","","","","./tasks/HMM-beads/Images/WhiteBeadChoiceCorrect.png","","","","","","","","","","","","","","","","","","","","","","","",""
"image-keyboard-response","123","386346","0.0-4.0-6.0-1.0-0.15","5d45c2d1da9cb60015aa4312","63690f60c96a0a9a64b48fbd","63691e56cdcd807a533d595e","457","","j","","","","","","","","./tasks/HMM-beads/Images/NewTrialWC.png","lowH","15","2","1","2","2","false","","","","","","","","","","","","","","","","",""
"image-keyboard-response","124","386652","0.0-4.0-6.0-1.0-1.15","5d45c2d1da9cb60015aa4312","63690f60c96a0a9a64b48fbd","63691e56cdcd807a533d595e","null","","null","","","","","","","","./tasks/HMM-beads/Images/WhiteBeadChoice.png","","","","","","","","","","","","","","","","","","","","","","","",""
"image-keyboard-response","125","387164","0.0-4.0-6.0-1.0-2.15","5d45c2d1da9cb60015aa4312","63690f60c96a0a9a64b48fbd","63691e56cdcd807a533d595e","null","","null","","","","","","","","./tasks/HMM-beads/Images/WhiteBeadChoiceWrong.png","","","","","","","","","","","","","","","","","","","","","","","",""
"image-keyboard-response","126","387898","0.0-4.0-6.0-1.0-0.16","5d45c2d1da9cb60015aa4312","63690f60c96a0a9a64b48fbd","63691e56cdcd807a533d595e","730","","f","","","","","","","","./tasks/HMM-beads/Images/NewTrialBC.png","lowH","16","2","1","1","1","true","","","","","","","","","","","","","","","","",""
"image-keyboard-response","127","388204","0.0-4.0-6.0-1.0-1.16","5d45c2d1da9cb60015aa4312","63690f60c96a0a9a64b48fbd","63691e56cdcd807a533d595e","null","","null","","","","","","","","./tasks/HMM-beads/Images/BlackBeadChoice.png","","","","","","","","","","","","","","","","","","","","","","","",""
"image-keyboard-response","128","388709","0.0-4.0-6.0-1.0-2.16","5d45c2d1da9cb60015aa4312","63690f60c96a0a9a64b48fbd","63691e56cdcd807a533d595e","null","","null","","","","","","","","./tasks/HMM-beads/Images/BlackBeadChoiceCorrect.png","","","","","","","","","","","","","","","","","","","","","","","",""
"image-keyboard-response","129","389698","0.0-4.0-6.0-1.0-0.17","5d45c2d1da9cb60015aa4312","63690f60c96a0a9a64b48fbd","63691e56cdcd807a533d595e","985","","f","","","","","","","","./tasks/HMM-beads/Images/NewTrialBC.png","lowH","17","2","2","1","1","false","","","","","","","","","","","","","","","","",""
"image-keyboard-response","130","390004","0.0-4.0-6.0-1.0-1.17","5d45c2d1da9cb60015aa4312","63690f60c96a0a9a64b48fbd","63691e56cdcd807a533d595e","null","","null","","","","","","","","./tasks/HMM-beads/Images/BlackBeadChoice.png","","","","","","","","","","","","","","","","","","","","","","","",""
"image-keyboard-response","131","390517","0.0-4.0-6.0-1.0-2.17","5d45c2d1da9cb60015aa4312","63690f60c96a0a9a64b48fbd","63691e56cdcd807a533d595e","null","","null","","","","","","","","./tasks/HMM-beads/Images/BlackBeadChoiceWrong.png","","","","","","","","","","","","","","","","","","","","","","","",""
"image-keyboard-response","132","391048","0.0-4.0-6.0-1.0-0.18","5d45c2d1da9cb60015aa4312","63690f60c96a0a9a64b48fbd","63691e56cdcd807a533d595e","527","","j","","","","","","","","./tasks/HMM-beads/Images/NewTrialWC.png","lowH","18","2","2","2","2","true","","","","","","","","","","","","","","","","",""
"image-keyboard-response","133","391396","0.0-4.0-6.0-1.0-1.18","5d45c2d1da9cb60015aa4312","63690f60c96a0a9a64b48fbd","63691e56cdcd807a533d595e","null","","null","","","","","","","","./tasks/HMM-beads/Images/WhiteBeadChoice.png","","","","","","","","","","","","","","","","","","","","","","","",""
"image-keyboard-response","134","391908","0.0-4.0-6.0-1.0-2.18","5d45c2d1da9cb60015aa4312","63690f60c96a0a9a64b48fbd","63691e56cdcd807a533d595e","null","","null","","","","","","","","./tasks/HMM-beads/Images/WhiteBeadChoiceCorrect.png","","","","","","","","","","","","","","","","","","","","","","","",""
"image-keyboard-response","135","392195","0.0-4.0-6.0-1.0-0.19","5d45c2d1da9cb60015aa4312","63690f60c96a0a9a64b48fbd","63691e56cdcd807a533d595e","283","","j","","","","","","","","./tasks/HMM-beads/Images/NewTrialWC.png","lowH","19","2","2","2","2","true","","","","","","","","","","","","","","","","",""
"image-keyboard-response","136","392500","0.0-4.0-6.0-1.0-1.19","5d45c2d1da9cb60015aa4312","63690f60c96a0a9a64b48fbd","63691e56cdcd807a533d595e","null","","null","","","","","","","","./tasks/HMM-beads/Images/WhiteBeadChoice.png","","","","","","","","","","","","","","","","","","","","","","","",""
"image-keyboard-response","137","393012","0.0-4.0-6.0-1.0-2.19","5d45c2d1da9cb60015aa4312","63690f60c96a0a9a64b48fbd","63691e56cdcd807a533d595e","null","","null","","","","","","","","./tasks/HMM-beads/Images/WhiteBeadChoiceCorrect.png","","","","","","","","","","","","","","","","","","","","","","","",""
"image-keyboard-response","138","393455","0.0-4.0-6.0-1.0-0.20","5d45c2d1da9cb60015aa4312","63690f60c96a0a9a64b48fbd","63691e56cdcd807a533d595e","439","","j","","","","","","","","./tasks/HMM-beads/Images/NewTrialWC.png","lowH","20","2","2","2","2","true","","","","","","","","","","","","","","","","",""
"image-keyboard-response","139","393764","0.0-4.0-6.0-1.0-1.20","5d45c2d1da9cb60015aa4312","63690f60c96a0a9a64b48fbd","63691e56cdcd807a533d595e","null","","null","","","","","","","","./tasks/HMM-beads/Images/WhiteBeadChoice.png","","","","","","","","","","","","","","","","","","","","","","","",""
"image-keyboard-response","140","394276","0.0-4.0-6.0-1.0-2.20","5d45c2d1da9cb60015aa4312","63690f60c96a0a9a64b48fbd","63691e56cdcd807a533d595e","null","","null","","","","","","","","./tasks/HMM-beads/Images/WhiteBeadChoiceCorrect.png","","","","","","","","","","","","","","","","","","","","","","","",""
"image-keyboard-response","141","394986","0.0-4.0-6.0-1.0-0.21","5d45c2d1da9cb60015aa4312","63690f60c96a0a9a64b48fbd","63691e56cdcd807a533d595e","705","","j","","","","","","","","./tasks/HMM-beads/Images/NewTrialWC.png","lowH","21","2","2","2","2","true","","","","","","","","","","","","","","","","",""
"image-keyboard-response","142","395293","0.0-4.0-6.0-1.0-1.21","5d45c2d1da9cb60015aa4312","63690f60c96a0a9a64b48fbd","63691e56cdcd807a533d595e","null","","null","","","","","","","","./tasks/HMM-beads/Images/WhiteBeadChoice.png","","","","","","","","","","","","","","","","","","","","","","","",""
"image-keyboard-response","143","395805","0.0-4.0-6.0-1.0-2.21","5d45c2d1da9cb60015aa4312","63690f60c96a0a9a64b48fbd","63691e56cdcd807a533d595e","null","","null","","","","","","","","./tasks/HMM-beads/Images/WhiteBeadChoiceCorrect.png","","","","","","","","","","","","","","","","","","","","","","","",""
"image-keyboard-response","144","396200","0.0-4.0-6.0-1.0-0.22","5d45c2d1da9cb60015aa4312","63690f60c96a0a9a64b48fbd","63691e56cdcd807a533d595e","392","","j","","","","","","","","./tasks/HMM-beads/Images/NewTrialWC.png","lowH","22","2","2","2","2","true","","","","","","","","","","","","","","","","",""
"image-keyboard-response","145","396532","0.0-4.0-6.0-1.0-1.22","5d45c2d1da9cb60015aa4312","63690f60c96a0a9a64b48fbd","63691e56cdcd807a533d595e","null","","null","","","","","","","","./tasks/HMM-beads/Images/WhiteBeadChoice.png","","","","","","","","","","","","","","","","","","","","","","","",""
"image-keyboard-response","146","397044","0.0-4.0-6.0-1.0-2.22","5d45c2d1da9cb60015aa4312","63690f60c96a0a9a64b48fbd","63691e56cdcd807a533d595e","null","","null","","","","","","","","./tasks/HMM-beads/Images/WhiteBeadChoiceCorrect.png","","","","","","","","","","","","","","","","","","","","","","","",""
"image-keyboard-response","147","397122","0.0-4.0-6.0-1.0-0.23","5d45c2d1da9cb60015aa4312","63690f60c96a0a9a64b48fbd","63691e56cdcd807a533d595e","74","","j","","","","","","","","./tasks/HMM-beads/Images/NewTrialWC.png","lowH","23","2","2","2","2","true","","","","","","","","","","","","","","","","",""
"image-keyboard-response","148","397428","0.0-4.0-6.0-1.0-1.23","5d45c2d1da9cb60015aa4312","63690f60c96a0a9a64b48fbd","63691e56cdcd807a533d595e","null","","null","","","","","","","","./tasks/HMM-beads/Images/WhiteBeadChoice.png","","","","","","","","","","","","","","","","","","","","","","","",""
"image-keyboard-response","149","397940","0.0-4.0-6.0-1.0-2.23","5d45c2d1da9cb60015aa4312","63690f60c96a0a9a64b48fbd","63691e56cdcd807a533d595e","null","","null","","","","","","","","./tasks/HMM-beads/Images/WhiteBeadChoiceCorrect.png","","","","","","","","","","","","","","","","","","","","","","","",""
"image-keyboard-response","150","398337","0.0-4.0-6.0-1.0-0.24","5d45c2d1da9cb60015aa4312","63690f60c96a0a9a64b48fbd","63691e56cdcd807a533d595e","393","","j","","","","","","","","./tasks/HMM-beads/Images/NewTrialWC.png","lowH","24","2","2","2","2","true","","","","","","","","","","","","","","","","",""
"image-keyboard-response","151","398645","0.0-4.0-6.0-1.0-1.24","5d45c2d1da9cb60015aa4312","63690f60c96a0a9a64b48fbd","63691e56cdcd807a533d595e","null","","null","","","","","","","","./tasks/HMM-beads/Images/WhiteBeadChoice.png","","","","","","","","","","","","","","","","","","","","","","","",""
"image-keyboard-response","152","399156","0.0-4.0-6.0-1.0-2.24","5d45c2d1da9cb60015aa4312","63690f60c96a0a9a64b48fbd","63691e56cdcd807a533d595e","null","","null","","","","","","","","./tasks/HMM-beads/Images/WhiteBeadChoiceCorrect.png","","","","","","","","","","","","","","","","","","","","","","","",""
"image-keyboard-response","153","400566","0.0-4.0-6.0-1.0-0.25","5d45c2d1da9cb60015aa4312","63690f60c96a0a9a64b48fbd","63691e56cdcd807a533d595e","1405","","j","","","","","","","","./tasks/HMM-beads/Images/NewTrialWC.png","lowH","25","2","2","2","2","true","","","","","","","","","","","","","","","","",""
"image-keyboard-response","154","400876","0.0-4.0-6.0-1.0-1.25","5d45c2d1da9cb60015aa4312","63690f60c96a0a9a64b48fbd","63691e56cdcd807a533d595e","null","","null","","","","","","","","./tasks/HMM-beads/Images/WhiteBeadChoice.png","","","","","","","","","","","","","","","","","","","","","","","",""
"image-keyboard-response","155","401389","0.0-4.0-6.0-1.0-2.25","5d45c2d1da9cb60015aa4312","63690f60c96a0a9a64b48fbd","63691e56cdcd807a533d595e","null","","null","","","","","","","","./tasks/HMM-beads/Images/WhiteBeadChoiceCorrect.png","","","","","","","","","","","","","","","","","","","","","","","",""
"image-keyboard-response","156","402657","0.0-4.0-6.0-1.0-0.26","5d45c2d1da9cb60015aa4312","63690f60c96a0a9a64b48fbd","63691e56cdcd807a533d595e","1235","","j","","","","","","","","./tasks/HMM-beads/Images/NewTrialWC.png","lowH","26","2","2","2","2","true","","","","","","","","","","","","","","","","",""
"image-keyboard-response","157","402965","0.0-4.0-6.0-1.0-1.26","5d45c2d1da9cb60015aa4312","63690f60c96a0a9a64b48fbd","63691e56cdcd807a533d595e","null","","null","","","","","","","","./tasks/HMM-beads/Images/WhiteBeadChoice.png","","","","","","","","","","","","","","","","","","","","","","","",""
"image-keyboard-response","158","403477","0.0-4.0-6.0-1.0-2.26","5d45c2d1da9cb60015aa4312","63690f60c96a0a9a64b48fbd","63691e56cdcd807a533d595e","null","","null","","","","","","","","./tasks/HMM-beads/Images/WhiteBeadChoiceCorrect.png","","","","","","","","","","","","","","","","","","","","","","","",""
"image-keyboard-response","159","404233","0.0-4.0-6.0-1.0-0.27","5d45c2d1da9cb60015aa4312","63690f60c96a0a9a64b48fbd","63691e56cdcd807a533d595e","752","","j","","","","","","","","./tasks/HMM-beads/Images/NewTrialWC.png","lowH","27","2","2","2","2","true","","","","","","","","","","","","","","","","",""
"image-keyboard-response","160","404540","0.0-4.0-6.0-1.0-1.27","5d45c2d1da9cb60015aa4312","63690f60c96a0a9a64b48fbd","63691e56cdcd807a533d595e","null","","null","","","","","","","","./tasks/HMM-beads/Images/WhiteBeadChoice.png","","","","","","","","","","","","","","","","","","","","","","","",""
"image-keyboard-response","161","405052","0.0-4.0-6.0-1.0-2.27","5d45c2d1da9cb60015aa4312","63690f60c96a0a9a64b48fbd","63691e56cdcd807a533d595e","null","","null","","","","","","","","./tasks/HMM-beads/Images/WhiteBeadChoiceCorrect.png","","","","","","","","","","","","","","","","","","","","","","","",""
"image-keyboard-response","162","407719","0.0-4.0-6.0-1.0-0.28","5d45c2d1da9cb60015aa4312","63690f60c96a0a9a64b48fbd","63691e56cdcd807a533d595e","2663","","j","","","","","","","","./tasks/HMM-beads/Images/NewTrialWC.png","lowH","28","2","2","2","2","true","","","","","","","","","","","","","","","","",""
"image-keyboard-response","163","408028","0.0-4.0-6.0-1.0-1.28","5d45c2d1da9cb60015aa4312","63690f60c96a0a9a64b48fbd","63691e56cdcd807a533d595e","null","","null","","","","","","","","./tasks/HMM-beads/Images/WhiteBeadChoice.png","","","","","","","","","","","","","","","","","","","","","","","",""
"image-keyboard-response","164","408540","0.0-4.0-6.0-1.0-2.28","5d45c2d1da9cb60015aa4312","63690f60c96a0a9a64b48fbd","63691e56cdcd807a533d595e","null","","null","","","","","","","","./tasks/HMM-beads/Images/WhiteBeadChoiceCorrect.png","","","","","","","","","","","","","","","","","","","","","","","",""
"image-keyboard-response","165","408665","0.0-4.0-6.0-1.0-0.29","5d45c2d1da9cb60015aa4312","63690f60c96a0a9a64b48fbd","63691e56cdcd807a533d595e","120","","j","","","","","","","","./tasks/HMM-beads/Images/NewTrialWC.png","lowH","29","2","1","2","2","false","","","","","","","","","","","","","","","","",""
"image-keyboard-response","166","408972","0.0-4.0-6.0-1.0-1.29","5d45c2d1da9cb60015aa4312","63690f60c96a0a9a64b48fbd","63691e56cdcd807a533d595e","null","","null","","","","","","","","./tasks/HMM-beads/Images/WhiteBeadChoice.png","","","","","","","","","","","","","","","","","","","","","","","",""
"image-keyboard-response","167","409485","0.0-4.0-6.0-1.0-2.29","5d45c2d1da9cb60015aa4312","63690f60c96a0a9a64b48fbd","63691e56cdcd807a533d595e","null","","null","","","","","","","","./tasks/HMM-beads/Images/WhiteBeadChoiceWrong.png","","","","","","","","","","","","","","","","","","","","","","","",""
"image-keyboard-response","168","409678","0.0-4.0-6.0-1.0-0.30","5d45c2d1da9cb60015aa4312","63690f60c96a0a9a64b48fbd","63691e56cdcd807a533d595e","189","","f","","","","","","","","./tasks/HMM-beads/Images/NewTrialBC.png","lowH","30","2","2","1","1","false","","","","","","","","","","","","","","","","",""
"image-keyboard-response","169","409989","0.0-4.0-6.0-1.0-1.30","5d45c2d1da9cb60015aa4312","63690f60c96a0a9a64b48fbd","63691e56cdcd807a533d595e","null","","null","","","","","","","","./tasks/HMM-beads/Images/BlackBeadChoice.png","","","","","","","","","","","","","","","","","","","","","","","",""
"image-keyboard-response","170","410500","0.0-4.0-6.0-1.0-2.30","5d45c2d1da9cb60015aa4312","63690f60c96a0a9a64b48fbd","63691e56cdcd807a533d595e","null","","null","","","","","","","","./tasks/HMM-beads/Images/BlackBeadChoiceWrong.png","","","","","","","","","","","","","","","","","","","","","","","",""
"image-keyboard-response","171","411545","0.0-4.0-6.0-1.0-0.31","5d45c2d1da9cb60015aa4312","63690f60c96a0a9a64b48fbd","63691e56cdcd807a533d595e","1040","","j","","","","","","","","./tasks/HMM-beads/Images/NewTrialWC.png","lowH","31","2","1","2","2","false","","","","","","","","","","","","","","","","",""
"image-keyboard-response","172","411853","0.0-4.0-6.0-1.0-1.31","5d45c2d1da9cb60015aa4312","63690f60c96a0a9a64b48fbd","63691e56cdcd807a533d595e","null","","null","","","","","","","","./tasks/HMM-beads/Images/WhiteBeadChoice.png","","","","","","","","","","","","","","","","","","","","","","","",""
"image-keyboard-response","173","412364","0.0-4.0-6.0-1.0-2.31","5d45c2d1da9cb60015aa4312","63690f60c96a0a9a64b48fbd","63691e56cdcd807a533d595e","null","","null","","","","","","","","./tasks/HMM-beads/Images/WhiteBeadChoiceWrong.png","","","","","","","","","","","","","","","","","","","","","","","",""
"image-keyboard-response","174","412489","0.0-4.0-6.0-1.0-0.32","5d45c2d1da9cb60015aa4312","63690f60c96a0a9a64b48fbd","63691e56cdcd807a533d595e","121","","f","","","","","","","","./tasks/HMM-beads/Images/NewTrialBC.png","lowH","32","2","2","1","1","false","","","","","","","","","","","","","","","","",""
"image-keyboard-response","175","412820","0.0-4.0-6.0-1.0-1.32","5d45c2d1da9cb60015aa4312","63690f60c96a0a9a64b48fbd","63691e56cdcd807a533d595e","null","","null","","","","","","","","./tasks/HMM-beads/Images/BlackBeadChoice.png","","","","","","","","","","","","","","","","","","","","","","","",""
"image-keyboard-response","176","413332","0.0-4.0-6.0-1.0-2.32","5d45c2d1da9cb60015aa4312","63690f60c96a0a9a64b48fbd","63691e56cdcd807a533d595e","null","","null","","","","","","","","./tasks/HMM-beads/Images/BlackBeadChoiceWrong.png","","","","","","","","","","","","","","","","","","","","","","","",""
"image-keyboard-response","177","413570","0.0-4.0-6.0-1.0-0.33","5d45c2d1da9cb60015aa4312","63690f60c96a0a9a64b48fbd","63691e56cdcd807a533d595e","234","","j","","","","","","","","./tasks/HMM-beads/Images/NewTrialWC.png","lowH","33","2","2","2","2","true","","","","","","","","","","","","","","","","",""
"image-keyboard-response","178","413876","0.0-4.0-6.0-1.0-1.33","5d45c2d1da9cb60015aa4312","63690f60c96a0a9a64b48fbd","63691e56cdcd807a533d595e","null","","null","","","","","","","","./tasks/HMM-beads/Images/WhiteBeadChoice.png","","","","","","","","","","","","","","","","","","","","","","","",""
"image-keyboard-response","179","414389","0.0-4.0-6.0-1.0-2.33","5d45c2d1da9cb60015aa4312","63690f60c96a0a9a64b48fbd","63691e56cdcd807a533d595e","null","","null","","","","","","","","./tasks/HMM-beads/Images/WhiteBeadChoiceCorrect.png","","","","","","","","","","","","","","","","","","","","","","","",""
"image-keyboard-response","180","414920","0.0-4.0-6.0-1.0-0.34","5d45c2d1da9cb60015aa4312","63690f60c96a0a9a64b48fbd","63691e56cdcd807a533d595e","527","","j","","","","","","","","./tasks/HMM-beads/Images/NewTrialWC.png","lowH","34","2","2","2","2","true","","","","","","","","","","","","","","","","",""
"image-keyboard-response","181","415229","0.0-4.0-6.0-1.0-1.34","5d45c2d1da9cb60015aa4312","63690f60c96a0a9a64b48fbd","63691e56cdcd807a533d595e","null","","null","","","","","","","","./tasks/HMM-beads/Images/WhiteBeadChoice.png","","","","","","","","","","","","","","","","","","","","","","","",""
"image-keyboard-response","182","415740","0.0-4.0-6.0-1.0-2.34","5d45c2d1da9cb60015aa4312","63690f60c96a0a9a64b48fbd","63691e56cdcd807a533d595e","null","","null","","","","","","","","./tasks/HMM-beads/Images/WhiteBeadChoiceCorrect.png","","","","","","","","","","","","","","","","","","","","","","","",""
"image-keyboard-response","183","416788","0.0-4.0-6.0-1.0-0.35","5d45c2d1da9cb60015aa4312","63690f60c96a0a9a64b48fbd","63691e56cdcd807a533d595e","1044","","j","","","","","","","","./tasks/HMM-beads/Images/NewTrialWC.png","lowH","35","2","2","2","2","true","","","","","","","","","","","","","","","","",""
"image-keyboard-response","184","417100","0.0-4.0-6.0-1.0-1.35","5d45c2d1da9cb60015aa4312","63690f60c96a0a9a64b48fbd","63691e56cdcd807a533d595e","null","","null","","","","","","","","./tasks/HMM-beads/Images/WhiteBeadChoice.png","","","","","","","","","","","","","","","","","","","","","","","",""
"image-keyboard-response","185","417613","0.0-4.0-6.0-1.0-2.35","5d45c2d1da9cb60015aa4312","63690f60c96a0a9a64b48fbd","63691e56cdcd807a533d595e","null","","null","","","","","","","","./tasks/HMM-beads/Images/WhiteBeadChoiceCorrect.png","","","","","","","","","","","","","","","","","","","","","","","",""
"image-keyboard-response","186","417868","0.0-4.0-6.0-1.0-0.36","5d45c2d1da9cb60015aa4312","63690f60c96a0a9a64b48fbd","63691e56cdcd807a533d595e","251","","j","","","","","","","","./tasks/HMM-beads/Images/NewTrialWC.png","lowH","36","2","2","2","2","true","","","","","","","","","","","","","","","","",""
"image-keyboard-response","187","418181","0.0-4.0-6.0-1.0-1.36","5d45c2d1da9cb60015aa4312","63690f60c96a0a9a64b48fbd","63691e56cdcd807a533d595e","null","","null","","","","","","","","./tasks/HMM-beads/Images/WhiteBeadChoice.png","","","","","","","","","","","","","","","","","","","","","","","",""
"image-keyboard-response","188","418692","0.0-4.0-6.0-1.0-2.36","5d45c2d1da9cb60015aa4312","63690f60c96a0a9a64b48fbd","63691e56cdcd807a533d595e","null","","null","","","","","","","","./tasks/HMM-beads/Images/WhiteBeadChoiceCorrect.png","","","","","","","","","","","","","","","","","","","","","","","",""
"image-keyboard-response","189","419444","0.0-4.0-6.0-1.0-0.37","5d45c2d1da9cb60015aa4312","63690f60c96a0a9a64b48fbd","63691e56cdcd807a533d595e","747","","j","","","","","","","","./tasks/HMM-beads/Images/NewTrialWC.png","lowH","37","2","2","2","2","true","","","","","","","","","","","","","","","","",""
"image-keyboard-response","190","419748","0.0-4.0-6.0-1.0-1.37","5d45c2d1da9cb60015aa4312","63690f60c96a0a9a64b48fbd","63691e56cdcd807a533d595e","null","","null","","","","","","","","./tasks/HMM-beads/Images/WhiteBeadChoice.png","","","","","","","","","","","","","","","","","","","","","","","",""
"image-keyboard-response","191","420260","0.0-4.0-6.0-1.0-2.37","5d45c2d1da9cb60015aa4312","63690f60c96a0a9a64b48fbd","63691e56cdcd807a533d595e","null","","null","","","","","","","","./tasks/HMM-beads/Images/WhiteBeadChoiceCorrect.png","","","","","","","","","","","","","","","","","","","","","","","",""
"image-keyboard-response","192","420500","0.0-4.0-6.0-1.0-0.38","5d45c2d1da9cb60015aa4312","63690f60c96a0a9a64b48fbd","63691e56cdcd807a533d595e","236","","j","","","","","","","","./tasks/HMM-beads/Images/NewTrialWC.png","lowH","38","2","2","2","2","true","","","","","","","","","","","","","","","","",""
"image-keyboard-response","193","420805","0.0-4.0-6.0-1.0-1.38","5d45c2d1da9cb60015aa4312","63690f60c96a0a9a64b48fbd","63691e56cdcd807a533d595e","null","","null","","","","","","","","./tasks/HMM-beads/Images/WhiteBeadChoice.png","","","","","","","","","","","","","","","","","","","","","","","",""
"image-keyboard-response","194","421316","0.0-4.0-6.0-1.0-2.38","5d45c2d1da9cb60015aa4312","63690f60c96a0a9a64b48fbd","63691e56cdcd807a533d595e","null","","null","","","","","","","","./tasks/HMM-beads/Images/WhiteBeadChoiceCorrect.png","","","","","","","","","","","","","","","","","","","","","","","",""
"image-keyboard-response","195","421468","0.0-4.0-6.0-1.0-0.39","5d45c2d1da9cb60015aa4312","63690f60c96a0a9a64b48fbd","63691e56cdcd807a533d595e","147","","j","","","","","","","","./tasks/HMM-beads/Images/NewTrialWC.png","lowH","39","2","1","2","2","false","","","","","","","","","","","","","","","","",""
"image-keyboard-response","196","421780","0.0-4.0-6.0-1.0-1.39","5d45c2d1da9cb60015aa4312","63690f60c96a0a9a64b48fbd","63691e56cdcd807a533d595e","null","","null","","","","","","","","./tasks/HMM-beads/Images/WhiteBeadChoice.png","","","","","","","","","","","","","","","","","","","","","","","",""
"image-keyboard-response","197","422292","0.0-4.0-6.0-1.0-2.39","5d45c2d1da9cb60015aa4312","63690f60c96a0a9a64b48fbd","63691e56cdcd807a533d595e","null","","null","","","","","","","","./tasks/HMM-beads/Images/WhiteBeadChoiceWrong.png","","","","","","","","","","","","","","","","","","","","","","","",""
"image-keyboard-response","198","422435","0.0-4.0-6.0-1.0-0.40","5d45c2d1da9cb60015aa4312","63690f60c96a0a9a64b48fbd","63691e56cdcd807a533d595e","138","","f","","","","","","","","./tasks/HMM-beads/Images/NewTrialBC.png","lowH","40","2","2","1","1","false","","","","","","","","","","","","","","","","",""
"image-keyboard-response","199","422740","0.0-4.0-6.0-1.0-1.40","5d45c2d1da9cb60015aa4312","63690f60c96a0a9a64b48fbd","63691e56cdcd807a533d595e","null","","null","","","","","","","","./tasks/HMM-beads/Images/BlackBeadChoice.png","","","","","","","","","","","","","","","","","","","","","","","",""
"image-keyboard-response","200","423246","0.0-4.0-6.0-1.0-2.40","5d45c2d1da9cb60015aa4312","63690f60c96a0a9a64b48fbd","63691e56cdcd807a533d595e","null","","null","","","","","","","","./tasks/HMM-beads/Images/BlackBeadChoiceWrong.png","","","","","","","","","","","","","","","","","","","","","","","",""
"image-keyboard-response","201","423875","0.0-4.0-6.0-1.0-0.41","5d45c2d1da9cb60015aa4312","63690f60c96a0a9a64b48fbd","63691e56cdcd807a533d595e","625","","j","","","","","","","","./tasks/HMM-beads/Images/NewTrialWC.png","lowH","41","2","1","2","2","false","","","","","","","","","","","","","","","","",""
"image-keyboard-response","202","424180","0.0-4.0-6.0-1.0-1.41","5d45c2d1da9cb60015aa4312","63690f60c96a0a9a64b48fbd","63691e56cdcd807a533d595e","null","","null","","","","","","","","./tasks/HMM-beads/Images/WhiteBeadChoice.png","","","","","","","","","","","","","","","","","","","","","","","",""
"image-keyboard-response","203","424693","0.0-4.0-6.0-1.0-2.41","5d45c2d1da9cb60015aa4312","63690f60c96a0a9a64b48fbd","63691e56cdcd807a533d595e","null","","null","","","","","","","","./tasks/HMM-beads/Images/WhiteBeadChoiceWrong.png","","","","","","","","","","","","","","","","","","","","","","","",""
"image-keyboard-response","204","424821","0.0-4.0-6.0-1.0-0.42","5d45c2d1da9cb60015aa4312","63690f60c96a0a9a64b48fbd","63691e56cdcd807a533d595e","101","","j","","","","","","","","./tasks/HMM-beads/Images/NewTrialBC.png","lowH","42","2","1","1","2","false","","","","","","","","","","","","","","","","",""
"image-keyboard-response","205","425132","0.0-4.0-6.0-1.0-1.42","5d45c2d1da9cb60015aa4312","63690f60c96a0a9a64b48fbd","63691e56cdcd807a533d595e","null","","null","","","","","","","","./tasks/HMM-beads/Images/WhiteBeadChoice.png","","","","","","","","","","","","","","","","","","","","","","","",""
"image-keyboard-response","206","425644","0.0-4.0-6.0-1.0-2.42","5d45c2d1da9cb60015aa4312","63690f60c96a0a9a64b48fbd","63691e56cdcd807a533d595e","null","","null","","","","","","","","./tasks/HMM-beads/Images/WhiteBeadChoiceWrong.png","","","","","","","","","","","","","","","","","","","","","","","",""
"image-keyboard-response","207","425833","0.0-4.0-6.0-1.0-0.43","5d45c2d1da9cb60015aa4312","63690f60c96a0a9a64b48fbd","63691e56cdcd807a533d595e","185","","f","","","","","","","","./tasks/HMM-beads/Images/NewTrialBC.png","lowH","43","2","2","1","1","false","","","","","","","","","","","","","","","","",""
"image-keyboard-response","208","426141","0.0-4.0-6.0-1.0-1.43","5d45c2d1da9cb60015aa4312","63690f60c96a0a9a64b48fbd","63691e56cdcd807a533d595e","null","","null","","","","","","","","./tasks/HMM-beads/Images/BlackBeadChoice.png","","","","","","","","","","","","","","","","","","","","","","","",""
"image-keyboard-response","209","426652","0.0-4.0-6.0-1.0-2.43","5d45c2d1da9cb60015aa4312","63690f60c96a0a9a64b48fbd","63691e56cdcd807a533d595e","null","","null","","","","","","","","./tasks/HMM-beads/Images/BlackBeadChoiceWrong.png","","","","","","","","","","","","","","","","","","","","","","","",""
"image-keyboard-response","210","426799","0.0-4.0-6.0-1.0-0.44","5d45c2d1da9cb60015aa4312","63690f60c96a0a9a64b48fbd","63691e56cdcd807a533d595e","142","","f","","","","","","","","./tasks/HMM-beads/Images/NewTrialWC.png","lowH","44","2","2","2","1","false","","","","","","","","","","","","","","","","",""
"image-keyboard-response","211","427108","0.0-4.0-6.0-1.0-1.44","5d45c2d1da9cb60015aa4312","63690f60c96a0a9a64b48fbd","63691e56cdcd807a533d595e","null","","null","","","","","","","","./tasks/HMM-beads/Images/BlackBeadChoice.png","","","","","","","","","","","","","","","","","","","","","","","",""
"image-keyboard-response","212","427620","0.0-4.0-6.0-1.0-2.44","5d45c2d1da9cb60015aa4312","63690f60c96a0a9a64b48fbd","63691e56cdcd807a533d595e","null","","null","","","","","","","","./tasks/HMM-beads/Images/BlackBeadChoiceWrong.png","","","","","","","","","","","","","","","","","","","","","","","",""
"image-keyboard-response","213","427993","0.0-4.0-6.0-1.0-0.45","5d45c2d1da9cb60015aa4312","63690f60c96a0a9a64b48fbd","63691e56cdcd807a533d595e","368","","f","","","","","","","","./tasks/HMM-beads/Images/NewTrialWC.png","lowH","45","2","1","2","1","true","","","","","","","","","","","","","","","","",""
"image-keyboard-response","214","428300","0.0-4.0-6.0-1.0-1.45","5d45c2d1da9cb60015aa4312","63690f60c96a0a9a64b48fbd","63691e56cdcd807a533d595e","null","","null","","","","","","","","./tasks/HMM-beads/Images/BlackBeadChoice.png","","","","","","","","","","","","","","","","","","","","","","","",""
"image-keyboard-response","215","428812","0.0-4.0-6.0-1.0-2.45","5d45c2d1da9cb60015aa4312","63690f60c96a0a9a64b48fbd","63691e56cdcd807a533d595e","null","","null","","","","","","","","./tasks/HMM-beads/Images/BlackBeadChoiceCorrect.png","","","","","","","","","","","","","","","","","","","","","","","",""
"image-keyboard-response","216","428871","0.0-4.0-6.0-1.0-0.46","5d45c2d1da9cb60015aa4312","63690f60c96a0a9a64b48fbd","63691e56cdcd807a533d595e","55","","j","","","","","","","","./tasks/HMM-beads/Images/NewTrialBC.png","lowH","46","2","2","1","2","true","","","","","","","","","","","","","","","","",""
"image-keyboard-response","217","429180","0.0-4.0-6.0-1.0-1.46","5d45c2d1da9cb60015aa4312","63690f60c96a0a9a64b48fbd","63691e56cdcd807a533d595e","null","","null","","","","","","","","./tasks/HMM-beads/Images/WhiteBeadChoice.png","","","","","","","","","","","","","","","","","","","","","","","",""
"image-keyboard-response","218","429692","0.0-4.0-6.0-1.0-2.46","5d45c2d1da9cb60015aa4312","63690f60c96a0a9a64b48fbd","63691e56cdcd807a533d595e","null","","null","","","","","","","","./tasks/HMM-beads/Images/WhiteBeadChoiceCorrect.png","","","","","","","","","","","","","","","","","","","","","","","",""
"image-keyboard-response","219","430108","0.0-4.0-6.0-1.0-0.47","5d45c2d1da9cb60015aa4312","63690f60c96a0a9a64b48fbd","63691e56cdcd807a533d595e","411","","j","","","","","","","","./tasks/HMM-beads/Images/NewTrialWC.png","lowH","47","2","2","2","2","true","","","","","","","","","","","","","","","","",""
"image-keyboard-response","220","430413","0.0-4.0-6.0-1.0-1.47","5d45c2d1da9cb60015aa4312","63690f60c96a0a9a64b48fbd","63691e56cdcd807a533d595e","null","","null","","","","","","","","./tasks/HMM-beads/Images/WhiteBeadChoice.png","","","","","","","","","","","","","","","","","","","","","","","",""
"image-keyboard-response","221","430925","0.0-4.0-6.0-1.0-2.47","5d45c2d1da9cb60015aa4312","63690f60c96a0a9a64b48fbd","63691e56cdcd807a533d595e","null","","null","","","","","","","","./tasks/HMM-beads/Images/WhiteBeadChoiceCorrect.png","","","","","","","","","","","","","","","","","","","","","","","",""
"image-keyboard-response","222","447748","0.0-4.0-6.0-1.0-0.48","5d45c2d1da9cb60015aa4312","63690f60c96a0a9a64b48fbd","63691e56cdcd807a533d595e","16819","","j","","","","","","","","./tasks/HMM-beads/Images/NewTrialWC.png","lowH","48","2","2","2","2","true","","","","","","","","","","","","","","","","",""
"image-keyboard-response","223","448060","0.0-4.0-6.0-1.0-1.48","5d45c2d1da9cb60015aa4312","63690f60c96a0a9a64b48fbd","63691e56cdcd807a533d595e","null","","null","","","","","","","","./tasks/HMM-beads/Images/WhiteBeadChoice.png","","","","","","","","","","","","","","","","","","","","","","","",""
"image-keyboard-response","224","448572","0.0-4.0-6.0-1.0-2.48","5d45c2d1da9cb60015aa4312","63690f60c96a0a9a64b48fbd","63691e56cdcd807a533d595e","null","","null","","","","","","","","./tasks/HMM-beads/Images/WhiteBeadChoiceCorrect.png","","","","","","","","","","","","","","","","","","","","","","","",""
"image-keyboard-response","225","449234","0.0-4.0-6.0-1.0-0.49","5d45c2d1da9cb60015aa4312","63690f60c96a0a9a64b48fbd","63691e56cdcd807a533d595e","657","","j","","","","","","","","./tasks/HMM-beads/Images/NewTrialWC.png","lowH","49","2","2","2","2","true","","","","","","","","","","","","","","","","",""
"image-keyboard-response","226","449540","0.0-4.0-6.0-1.0-1.49","5d45c2d1da9cb60015aa4312","63690f60c96a0a9a64b48fbd","63691e56cdcd807a533d595e","null","","null","","","","","","","","./tasks/HMM-beads/Images/WhiteBeadChoice.png","","","","","","","","","","","","","","","","","","","","","","","",""
"image-keyboard-response","227","450053","0.0-4.0-6.0-1.0-2.49","5d45c2d1da9cb60015aa4312","63690f60c96a0a9a64b48fbd","63691e56cdcd807a533d595e","null","","null","","","","","","","","./tasks/HMM-beads/Images/WhiteBeadChoiceCorrect.png","","","","","","","","","","","","","","","","","","","","","","","",""
"image-keyboard-response","228","457265","0.0-4.0-6.0-1.0-0.50","5d45c2d1da9cb60015aa4312","63690f60c96a0a9a64b48fbd","63691e56cdcd807a533d595e","7207","","j","","","","","","","","./tasks/HMM-beads/Images/NewTrialWC.png","lowH","50","2","1","2","2","false","","","","","","","","","","","","","","","","",""
"image-keyboard-response","229","457573","0.0-4.0-6.0-1.0-1.50","5d45c2d1da9cb60015aa4312","63690f60c96a0a9a64b48fbd","63691e56cdcd807a533d595e","null","","null","","","","","","","","./tasks/HMM-beads/Images/WhiteBeadChoice.png","","","","","","","","","","","","","","","","","","","","","","","",""
"image-keyboard-response","230","458084","0.0-4.0-6.0-1.0-2.50","5d45c2d1da9cb60015aa4312","63690f60c96a0a9a64b48fbd","63691e56cdcd807a533d595e","null","","null","","","","","","","","./tasks/HMM-beads/Images/WhiteBeadChoiceWrong.png","","","","","","","","","","","","","","","","","","","","","","","",""
"image-keyboard-response","231","459200","0.0-4.0-6.0-1.0-0.51","5d45c2d1da9cb60015aa4312","63690f60c96a0a9a64b48fbd","63691e56cdcd807a533d595e","1111","","f","","","","","","","","./tasks/HMM-beads/Images/NewTrialBC.png","lowH","51","2","1","1","1","true","","","","","","","","","","","","","","","","",""
"image-keyboard-response","232","459508","0.0-4.0-6.0-1.0-1.51","5d45c2d1da9cb60015aa4312","63690f60c96a0a9a64b48fbd","63691e56cdcd807a533d595e","null","","null","","","","","","","","./tasks/HMM-beads/Images/BlackBeadChoice.png","","","","","","","","","","","","","","","","","","","","","","","",""
"image-keyboard-response","233","460020","0.0-4.0-6.0-1.0-2.51","5d45c2d1da9cb60015aa4312","63690f60c96a0a9a64b48fbd","63691e56cdcd807a533d595e","null","","null","","","","","","","","./tasks/HMM-beads/Images/BlackBeadChoiceCorrect.png","","","","","","","","","","","","","","","","","","","","","","","",""
"image-keyboard-response","234","460550","0.0-4.0-6.0-1.0-0.52","5d45c2d1da9cb60015aa4312","63690f60c96a0a9a64b48fbd","63691e56cdcd807a533d595e","526","","f","","","","","","","","./tasks/HMM-beads/Images/NewTrialBC.png","lowH","52","2","2","1","1","false","","","","","","","","","","","","","","","","",""
"image-keyboard-response","235","460860","0.0-4.0-6.0-1.0-1.52","5d45c2d1da9cb60015aa4312","63690f60c96a0a9a64b48fbd","63691e56cdcd807a533d595e","null","","null","","","","","","","","./tasks/HMM-beads/Images/BlackBeadChoice.png","","","","","","","","","","","","","","","","","","","","","","","",""
"image-keyboard-response","236","461372","0.0-4.0-6.0-1.0-2.52","5d45c2d1da9cb60015aa4312","63690f60c96a0a9a64b48fbd","63691e56cdcd807a533d595e","null","","null","","","","","","","","./tasks/HMM-beads/Images/BlackBeadChoiceWrong.png","","","","","","","","","","","","","","","","","","","","","","","",""
"image-keyboard-response","237","462148","0.0-4.0-6.0-1.0-0.53","5d45c2d1da9cb60015aa4312","63690f60c96a0a9a64b48fbd","63691e56cdcd807a533d595e","774","","j","","","","","","","","./tasks/HMM-beads/Images/NewTrialWC.png","lowH","53","2","2","2","2","true","","","","","","","","","","","","","","","","",""
"image-keyboard-response","238","462461","0.0-4.0-6.0-1.0-1.53","5d45c2d1da9cb60015aa4312","63690f60c96a0a9a64b48fbd","63691e56cdcd807a533d595e","null","","null","","","","","","","","./tasks/HMM-beads/Images/WhiteBeadChoice.png","","","","","","","","","","","","","","","","","","","","","","","",""
"image-keyboard-response","239","462972","0.0-4.0-6.0-1.0-2.53","5d45c2d1da9cb60015aa4312","63690f60c96a0a9a64b48fbd","63691e56cdcd807a533d595e","null","","null","","","","","","","","./tasks/HMM-beads/Images/WhiteBeadChoiceCorrect.png","","","","","","","","","","","","","","","","","","","","","","","",""
"image-keyboard-response","240","463160","0.0-4.0-6.0-1.0-0.54","5d45c2d1da9cb60015aa4312","63690f60c96a0a9a64b48fbd","63691e56cdcd807a533d595e","183","","j","","","","","","","","./tasks/HMM-beads/Images/NewTrialWC.png","lowH","54","2","2","2","2","true","","","","","","","","","","","","","","","","",""
"image-keyboard-response","241","463468","0.0-4.0-6.0-1.0-1.54","5d45c2d1da9cb60015aa4312","63690f60c96a0a9a64b48fbd","63691e56cdcd807a533d595e","null","","null","","","","","","","","./tasks/HMM-beads/Images/WhiteBeadChoice.png","","","","","","","","","","","","","","","","","","","","","","","",""
"image-keyboard-response","242","463980","0.0-4.0-6.0-1.0-2.54","5d45c2d1da9cb60015aa4312","63690f60c96a0a9a64b48fbd","63691e56cdcd807a533d595e","null","","null","","","","","","","","./tasks/HMM-beads/Images/WhiteBeadChoiceCorrect.png","","","","","","","","","","","","","","","","","","","","","","","",""
"image-keyboard-response","243","464578","0.0-4.0-6.0-1.0-0.55","5d45c2d1da9cb60015aa4312","63690f60c96a0a9a64b48fbd","63691e56cdcd807a533d595e","593","","j","","","","","","","","./tasks/HMM-beads/Images/NewTrialWC.png","lowH","55","2","2","2","2","true","","","","","","","","","","","","","","","","",""
"image-keyboard-response","244","464885","0.0-4.0-6.0-1.0-1.55","5d45c2d1da9cb60015aa4312","63690f60c96a0a9a64b48fbd","63691e56cdcd807a533d595e","null","","null","","","","","","","","./tasks/HMM-beads/Images/WhiteBeadChoice.png","","","","","","","","","","","","","","","","","","","","","","","",""
"image-keyboard-response","245","465396","0.0-4.0-6.0-1.0-2.55","5d45c2d1da9cb60015aa4312","63690f60c96a0a9a64b48fbd","63691e56cdcd807a533d595e","null","","null","","","","","","","","./tasks/HMM-beads/Images/WhiteBeadChoiceCorrect.png","","","","","","","","","","","","","","","","","","","","","","","",""
"image-keyboard-response","246","465457","0.0-4.0-6.0-1.0-0.56","5d45c2d1da9cb60015aa4312","63690f60c96a0a9a64b48fbd","63691e56cdcd807a533d595e","56","","j","","","","","","","","./tasks/HMM-beads/Images/NewTrialWC.png","lowH","56","2","1","2","2","false","","","","","","","","","","","","","","","","",""
"image-keyboard-response","247","465764","0.0-4.0-6.0-1.0-1.56","5d45c2d1da9cb60015aa4312","63690f60c96a0a9a64b48fbd","63691e56cdcd807a533d595e","null","","null","","","","","","","","./tasks/HMM-beads/Images/WhiteBeadChoice.png","","","","","","","","","","","","","","","","","","","","","","","",""
"image-keyboard-response","248","466276","0.0-4.0-6.0-1.0-2.56","5d45c2d1da9cb60015aa4312","63690f60c96a0a9a64b48fbd","63691e56cdcd807a533d595e","null","","null","","","","","","","","./tasks/HMM-beads/Images/WhiteBeadChoiceWrong.png","","","","","","","","","","","","","","","","","","","","","","","",""
"image-keyboard-response","249","466376","0.0-4.0-6.0-1.0-0.57","5d45c2d1da9cb60015aa4312","63690f60c96a0a9a64b48fbd","63691e56cdcd807a533d595e","97","","f","","","","","","","","./tasks/HMM-beads/Images/NewTrialBC.png","lowH","57","2","2","1","1","false","","","","","","","","","","","","","","","","",""
"image-keyboard-response","250","466684","0.0-4.0-6.0-1.0-1.57","5d45c2d1da9cb60015aa4312","63690f60c96a0a9a64b48fbd","63691e56cdcd807a533d595e","null","","null","","","","","","","","./tasks/HMM-beads/Images/BlackBeadChoice.png","","","","","","","","","","","","","","","","","","","","","","","",""
"image-keyboard-response","251","467196","0.0-4.0-6.0-1.0-2.57","5d45c2d1da9cb60015aa4312","63690f60c96a0a9a64b48fbd","63691e56cdcd807a533d595e","null","","null","","","","","","","","./tasks/HMM-beads/Images/BlackBeadChoiceWrong.png","","","","","","","","","","","","","","","","","","","","","","","",""
"image-keyboard-response","252","467300","0.0-4.0-6.0-1.0-0.58","5d45c2d1da9cb60015aa4312","63690f60c96a0a9a64b48fbd","63691e56cdcd807a533d595e","99","","j","","","","","","","","./tasks/HMM-beads/Images/NewTrialWC.png","lowH","58","2","1","2","2","false","","","","","","","","","","","","","","","","",""
"image-keyboard-response","253","467605","0.0-4.0-6.0-1.0-1.58","5d45c2d1da9cb60015aa4312","63690f60c96a0a9a64b48fbd","63691e56cdcd807a533d595e","null","","null","","","","","","","","./tasks/HMM-beads/Images/WhiteBeadChoice.png","","","","","","","","","","","","","","","","","","","","","","","",""
"image-keyboard-response","254","468116","0.0-4.0-6.0-1.0-2.58","5d45c2d1da9cb60015aa4312","63690f60c96a0a9a64b48fbd","63691e56cdcd807a533d595e","null","","null","","","","","","","","./tasks/HMM-beads/Images/WhiteBeadChoiceWrong.png","","","","","","","","","","","","","","","","","","","","","","","",""
"image-keyboard-response","255","468267","0.0-4.0-6.0-1.0-0.59","5d45c2d1da9cb60015aa4312","63690f60c96a0a9a64b48fbd","63691e56cdcd807a533d595e","147","","j","","","","","","","","./tasks/HMM-beads/Images/NewTrialBC.png","lowH","59","2","1","1","2","false","","","","","","","","","","","","","","","","",""
"image-keyboard-response","256","468573","0.0-4.0-6.0-1.0-1.59","5d45c2d1da9cb60015aa4312","63690f60c96a0a9a64b48fbd","63691e56cdcd807a533d595e","null","","null","","","","","","","","./tasks/HMM-beads/Images/WhiteBeadChoice.png","","","","","","","","","","","","","","","","","","","","","","","",""
"image-keyboard-response","257","469085","0.0-4.0-6.0-1.0-2.59","5d45c2d1da9cb60015aa4312","63690f60c96a0a9a64b48fbd","63691e56cdcd807a533d595e","null","","null","","","","","","","","./tasks/HMM-beads/Images/WhiteBeadChoiceWrong.png","","","","","","","","","","","","","","","","","","","","","","","",""
"image-keyboard-response","258","471238","0.0-4.0-6.0-1.0-0.60","5d45c2d1da9cb60015aa4312","63690f60c96a0a9a64b48fbd","63691e56cdcd807a533d595e","2149","","f","","","","","","","","./tasks/HMM-beads/Images/NewTrialBC.png","lowH","60","2","2","1","1","false","","","","","","","","","","","","","","","","",""
"image-keyboard-response","259","471556","0.0-4.0-6.0-1.0-1.60","5d45c2d1da9cb60015aa4312","63690f60c96a0a9a64b48fbd","63691e56cdcd807a533d595e","null","","null","","","","","","","","./tasks/HMM-beads/Images/BlackBeadChoice.png","","","","","","","","","","","","","","","","","","","","","","","",""
"image-keyboard-response","260","472068","0.0-4.0-6.0-1.0-2.60","5d45c2d1da9cb60015aa4312","63690f60c96a0a9a64b48fbd","63691e56cdcd807a533d595e","null","","null","","","","","","","","./tasks/HMM-beads/Images/BlackBeadChoiceWrong.png","","","","","","","","","","","","","","","","","","","","","","","",""
"image-keyboard-response","261","473264","0.0-4.0-6.0-1.0-0.61","5d45c2d1da9cb60015aa4312","63690f60c96a0a9a64b48fbd","63691e56cdcd807a533d595e","1191","","j","","","","","","","","./tasks/HMM-beads/Images/NewTrialWC.png","lowH","61","2","2","2","2","true","","","","","","","","","","","","","","","","",""
"image-keyboard-response","262","473573","0.0-4.0-6.0-1.0-1.61","5d45c2d1da9cb60015aa4312","63690f60c96a0a9a64b48fbd","63691e56cdcd807a533d595e","null","","null","","","","","","","","./tasks/HMM-beads/Images/WhiteBeadChoice.png","","","","","","","","","","","","","","","","","","","","","","","",""
"image-keyboard-response","263","474085","0.0-4.0-6.0-1.0-2.61","5d45c2d1da9cb60015aa4312","63690f60c96a0a9a64b48fbd","63691e56cdcd807a533d595e","null","","null","","","","","","","","./tasks/HMM-beads/Images/WhiteBeadChoiceCorrect.png","","","","","","","","","","","","","","","","","","","","","","","",""
"image-keyboard-response","264","474253","0.0-4.0-6.0-1.0-0.62","5d45c2d1da9cb60015aa4312","63690f60c96a0a9a64b48fbd","63691e56cdcd807a533d595e","164","","j","","","","","","","","./tasks/HMM-beads/Images/NewTrialWC.png","lowH","62","2","2","2","2","true","","","","","","","","","","","","","","","","",""
"image-keyboard-response","265","474564","0.0-4.0-6.0-1.0-1.62","5d45c2d1da9cb60015aa4312","63690f60c96a0a9a64b48fbd","63691e56cdcd807a533d595e","null","","null","","","","","","","","./tasks/HMM-beads/Images/WhiteBeadChoice.png","","","","","","","","","","","","","","","","","","","","","","","",""
"image-keyboard-response","266","475084","0.0-4.0-6.0-1.0-2.62","5d45c2d1da9cb60015aa4312","63690f60c96a0a9a64b48fbd","63691e56cdcd807a533d595e","null","","null","","","","","","","","./tasks/HMM-beads/Images/WhiteBeadChoiceCorrect.png","","","","","","","","","","","","","","","","","","","","","","","",""
"image-keyboard-response","267","475874","0.0-4.0-6.0-1.0-0.63","5d45c2d1da9cb60015aa4312","63690f60c96a0a9a64b48fbd","63691e56cdcd807a533d595e","786","","j","","","","","","","","./tasks/HMM-beads/Images/NewTrialWC.png","lowH","63","2","1","2","2","false","","","","","","","","","","","","","","","","",""
"image-keyboard-response","268","476180","0.0-4.0-6.0-1.0-1.63","5d45c2d1da9cb60015aa4312","63690f60c96a0a9a64b48fbd","63691e56cdcd807a533d595e","null","","null","","","","","","","","./tasks/HMM-beads/Images/WhiteBeadChoice.png","","","","","","","","","","","","","","","","","","","","","","","",""
"image-keyboard-response","269","476692","0.0-4.0-6.0-1.0-2.63","5d45c2d1da9cb60015aa4312","63690f60c96a0a9a64b48fbd","63691e56cdcd807a533d595e","null","","null","","","","","","","","./tasks/HMM-beads/Images/WhiteBeadChoiceWrong.png","","","","","","","","","","","","","","","","","","","","","","","",""
"image-keyboard-response","270","477291","0.0-4.0-6.0-1.0-0.64","5d45c2d1da9cb60015aa4312","63690f60c96a0a9a64b48fbd","63691e56cdcd807a533d595e","594","","f","","","","","","","","./tasks/HMM-beads/Images/NewTrialBC.png","lowH","64","2","2","1","1","false","","","","","","","","","","","","","","","","",""
"image-keyboard-response","271","477597","0.0-4.0-6.0-1.0-1.64","5d45c2d1da9cb60015aa4312","63690f60c96a0a9a64b48fbd","63691e56cdcd807a533d595e","null","","null","","","","","","","","./tasks/HMM-beads/Images/BlackBeadChoice.png","","","","","","","","","","","","","","","","","","","","","","","",""
"image-keyboard-response","272","478108","0.0-4.0-6.0-1.0-2.64","5d45c2d1da9cb60015aa4312","63690f60c96a0a9a64b48fbd","63691e56cdcd807a533d595e","null","","null","","","","","","","","./tasks/HMM-beads/Images/BlackBeadChoiceWrong.png","","","","","","","","","","","","","","","","","","","","","","","",""
"image-keyboard-response","273","478776","0.0-4.0-6.0-1.0-0.65","5d45c2d1da9cb60015aa4312","63690f60c96a0a9a64b48fbd","63691e56cdcd807a533d595e","664","","j","","","","","","","","./tasks/HMM-beads/Images/NewTrialWC.png","lowH","65","2","2","2","2","true","","","","","","","","","","","","","","","","",""
"image-keyboard-response","274","479085","0.0-4.0-6.0-1.0-1.65","5d45c2d1da9cb60015aa4312","63690f60c96a0a9a64b48fbd","63691e56cdcd807a533d595e","null","","null","","","","","","","","./tasks/HMM-beads/Images/WhiteBeadChoice.png","","","","","","","","","","","","","","","","","","","","","","","",""
"image-keyboard-response","275","479596","0.0-4.0-6.0-1.0-2.65","5d45c2d1da9cb60015aa4312","63690f60c96a0a9a64b48fbd","63691e56cdcd807a533d595e","null","","null","","","","","","","","./tasks/HMM-beads/Images/WhiteBeadChoiceCorrect.png","","","","","","","","","","","","","","","","","","","","","","","",""
"image-keyboard-response","276","481160","0.0-4.0-6.0-1.0-0.66","5d45c2d1da9cb60015aa4312","63690f60c96a0a9a64b48fbd","63691e56cdcd807a533d595e","1560","","j","","","","","","","","./tasks/HMM-beads/Images/NewTrialWC.png","lowH","66","2","1","2","2","false","","","","","","","","","","","","","","","","",""
"image-keyboard-response","277","481468","0.0-4.0-6.0-1.0-1.66","5d45c2d1da9cb60015aa4312","63690f60c96a0a9a64b48fbd","63691e56cdcd807a533d595e","null","","null","","","","","","","","./tasks/HMM-beads/Images/WhiteBeadChoice.png","","","","","","","","","","","","","","","","","","","","","","","",""
"image-keyboard-response","278","481980","0.0-4.0-6.0-1.0-2.66","5d45c2d1da9cb60015aa4312","63690f60c96a0a9a64b48fbd","63691e56cdcd807a533d595e","null","","null","","","","","","","","./tasks/HMM-beads/Images/WhiteBeadChoiceWrong.png","","","","","","","","","","","","","","","","","","","","","","","",""
"image-keyboard-response","279","482195","0.0-4.0-6.0-1.0-0.67","5d45c2d1da9cb60015aa4312","63690f60c96a0a9a64b48fbd","63691e56cdcd807a533d595e","211","","f","","","","","","","","./tasks/HMM-beads/Images/NewTrialBC.png","lowH","67","2","2","1","1","false","","","","","","","","","","","","","","","","",""
"image-keyboard-response","280","482500","0.0-4.0-6.0-1.0-1.67","5d45c2d1da9cb60015aa4312","63690f60c96a0a9a64b48fbd","63691e56cdcd807a533d595e","null","","null","","","","","","","","./tasks/HMM-beads/Images/BlackBeadChoice.png","","","","","","","","","","","","","","","","","","","","","","","",""
"image-keyboard-response","281","483012","0.0-4.0-6.0-1.0-2.67","5d45c2d1da9cb60015aa4312","63690f60c96a0a9a64b48fbd","63691e56cdcd807a533d595e","null","","null","","","","","","","","./tasks/HMM-beads/Images/BlackBeadChoiceWrong.png","","","","","","","","","","","","","","","","","","","","","","","",""
"image-keyboard-response","282","483344","0.0-4.0-6.0-1.0-0.68","5d45c2d1da9cb60015aa4312","63690f60c96a0a9a64b48fbd","63691e56cdcd807a533d595e","327","","j","","","","","","","","./tasks/HMM-beads/Images/NewTrialWC.png","lowH","68","2","2","2","2","true","","","","","","","","","","","","","","","","",""
"image-keyboard-response","283","483700","0.0-4.0-6.0-1.0-1.68","5d45c2d1da9cb60015aa4312","63690f60c96a0a9a64b48fbd","63691e56cdcd807a533d595e","null","","null","","","","","","","","./tasks/HMM-beads/Images/WhiteBeadChoice.png","","","","","","","","","","","","","","","","","","","","","","","",""
"image-keyboard-response","284","484212","0.0-4.0-6.0-1.0-2.68","5d45c2d1da9cb60015aa4312","63690f60c96a0a9a64b48fbd","63691e56cdcd807a533d595e","null","","null","","","","","","","","./tasks/HMM-beads/Images/WhiteBeadChoiceCorrect.png","","","","","","","","","","","","","","","","","","","","","","","",""
"image-keyboard-response","285","484806","0.0-4.0-6.0-1.0-0.69","5d45c2d1da9cb60015aa4312","63690f60c96a0a9a64b48fbd","63691e56cdcd807a533d595e","590","","j","","","","","","","","./tasks/HMM-beads/Images/NewTrialWC.png","lowH","69","2","2","2","2","true","","","","","","","","","","","","","","","","",""
"image-keyboard-response","286","485117","0.0-4.0-6.0-1.0-1.69","5d45c2d1da9cb60015aa4312","63690f60c96a0a9a64b48fbd","63691e56cdcd807a533d595e","null","","null","","","","","","","","./tasks/HMM-beads/Images/WhiteBeadChoice.png","","","","","","","","","","","","","","","","","","","","","","","",""
"image-keyboard-response","287","485628","0.0-4.0-6.0-1.0-2.69","5d45c2d1da9cb60015aa4312","63690f60c96a0a9a64b48fbd","63691e56cdcd807a533d595e","null","","null","","","","","","","","./tasks/HMM-beads/Images/WhiteBeadChoiceCorrect.png","","","","","","","","","","","","","","","","","","","","","","","",""
"image-keyboard-response","288","486089","0.0-4.0-6.0-1.0-0.70","5d45c2d1da9cb60015aa4312","63690f60c96a0a9a64b48fbd","63691e56cdcd807a533d595e","457","","j","","","","","","","","./tasks/HMM-beads/Images/NewTrialWC.png","lowH","70","2","2","2","2","true","","","","","","","","","","","","","","","","",""
"image-keyboard-response","289","486396","0.0-4.0-6.0-1.0-1.70","5d45c2d1da9cb60015aa4312","63690f60c96a0a9a64b48fbd","63691e56cdcd807a533d595e","null","","null","","","","","","","","./tasks/HMM-beads/Images/WhiteBeadChoice.png","","","","","","","","","","","","","","","","","","","","","","","",""
"image-keyboard-response","290","486908","0.0-4.0-6.0-1.0-2.70","5d45c2d1da9cb60015aa4312","63690f60c96a0a9a64b48fbd","63691e56cdcd807a533d595e","null","","null","","","","","","","","./tasks/HMM-beads/Images/WhiteBeadChoiceCorrect.png","","","","","","","","","","","","","","","","","","","","","","","",""
"image-keyboard-response","291","487258","0.0-4.0-6.0-1.0-0.71","5d45c2d1da9cb60015aa4312","63690f60c96a0a9a64b48fbd","63691e56cdcd807a533d595e","346","","j","","","","","","","","./tasks/HMM-beads/Images/NewTrialWC.png","lowH","71","2","2","2","2","true","","","","","","","","","","","","","","","","",""
"image-keyboard-response","292","487564","0.0-4.0-6.0-1.0-1.71","5d45c2d1da9cb60015aa4312","63690f60c96a0a9a64b48fbd","63691e56cdcd807a533d595e","null","","null","","","","","","","","./tasks/HMM-beads/Images/WhiteBeadChoice.png","","","","","","","","","","","","","","","","","","","","","","","",""
"image-keyboard-response","293","488076","0.0-4.0-6.0-1.0-2.71","5d45c2d1da9cb60015aa4312","63690f60c96a0a9a64b48fbd","63691e56cdcd807a533d595e","null","","null","","","","","","","","./tasks/HMM-beads/Images/WhiteBeadChoiceCorrect.png","","","","","","","","","","","","","","","","","","","","","","","",""
"image-keyboard-response","294","488383","0.0-4.0-6.0-1.0-0.72","5d45c2d1da9cb60015aa4312","63690f60c96a0a9a64b48fbd","63691e56cdcd807a533d595e","303","","j","","","","","","","","./tasks/HMM-beads/Images/NewTrialWC.png","lowH","72","2","1","2","2","false","","","","","","","","","","","","","","","","",""
"image-keyboard-response","295","488693","0.0-4.0-6.0-1.0-1.72","5d45c2d1da9cb60015aa4312","63690f60c96a0a9a64b48fbd","63691e56cdcd807a533d595e","null","","null","","","","","","","","./tasks/HMM-beads/Images/WhiteBeadChoice.png","","","","","","","","","","","","","","","","","","","","","","","",""
"image-keyboard-response","296","489237","0.0-4.0-6.0-1.0-2.72","5d45c2d1da9cb60015aa4312","63690f60c96a0a9a64b48fbd","63691e56cdcd807a533d595e","null","","null","","","","","","","","./tasks/HMM-beads/Images/WhiteBeadChoiceWrong.png","","","","","","","","","","","","","","","","","","","","","","","",""
"image-keyboard-response","297","489328","0.0-4.0-6.0-1.0-0.73","5d45c2d1da9cb60015aa4312","63690f60c96a0a9a64b48fbd","63691e56cdcd807a533d595e","87","","f","","","","","","","","./tasks/HMM-beads/Images/NewTrialBC.png","lowH","73","2","2","1","1","false","","","","","","","","","","","","","","","","",""
"image-keyboard-response","298","489636","0.0-4.0-6.0-1.0-1.73","5d45c2d1da9cb60015aa4312","63690f60c96a0a9a64b48fbd","63691e56cdcd807a533d595e","null","","null","","","","","","","","./tasks/HMM-beads/Images/BlackBeadChoice.png","","","","","","","","","","","","","","","","","","","","","","","",""
"image-keyboard-response","299","490148","0.0-4.0-6.0-1.0-2.73","5d45c2d1da9cb60015aa4312","63690f60c96a0a9a64b48fbd","63691e56cdcd807a533d595e","null","","null","","","","","","","","./tasks/HMM-beads/Images/BlackBeadChoiceWrong.png","","","","","","","","","","","","","","","","","","","","","","","",""
"image-keyboard-response","300","490385","0.0-4.0-6.0-1.0-0.74","5d45c2d1da9cb60015aa4312","63690f60c96a0a9a64b48fbd","63691e56cdcd807a533d595e","233","","j","","","","","","","","./tasks/HMM-beads/Images/NewTrialWC.png","lowH","74","2","1","2","2","false","","","","","","","","","","","","","","","","",""
"image-keyboard-response","301","490692","0.0-4.0-6.0-1.0-1.74","5d45c2d1da9cb60015aa4312","63690f60c96a0a9a64b48fbd","63691e56cdcd807a533d595e","null","","null","","","","","","","","./tasks/HMM-beads/Images/WhiteBeadChoice.png","","","","","","","","","","","","","","","","","","","","","","","",""
"image-keyboard-response","302","491204","0.0-4.0-6.0-1.0-2.74","5d45c2d1da9cb60015aa4312","63690f60c96a0a9a64b48fbd","63691e56cdcd807a533d595e","null","","null","","","","","","","","./tasks/HMM-beads/Images/WhiteBeadChoiceWrong.png","","","","","","","","","","","","","","","","","","","","","","","",""
"image-keyboard-response","303","491577","0.0-4.0-6.0-1.0-0.75","5d45c2d1da9cb60015aa4312","63690f60c96a0a9a64b48fbd","63691e56cdcd807a533d595e","369","","j","","","","","","","","./tasks/HMM-beads/Images/NewTrialBC.png","lowH","75","2","2","1","2","true","","","","","","","","","","","","","","","","",""
"image-keyboard-response","304","491885","0.0-4.0-6.0-1.0-1.75","5d45c2d1da9cb60015aa4312","63690f60c96a0a9a64b48fbd","63691e56cdcd807a533d595e","null","","null","","","","","","","","./tasks/HMM-beads/Images/WhiteBeadChoice.png","","","","","","","","","","","","","","","","","","","","","","","",""
"image-keyboard-response","305","492396","0.0-4.0-6.0-1.0-2.75","5d45c2d1da9cb60015aa4312","63690f60c96a0a9a64b48fbd","63691e56cdcd807a533d595e","null","","null","","","","","","","","./tasks/HMM-beads/Images/WhiteBeadChoiceCorrect.png","","","","","","","","","","","","","","","","","","","","","","","",""
"image-keyboard-response","306","493154","0.0-4.0-6.0-1.0-0.76","5d45c2d1da9cb60015aa4312","63690f60c96a0a9a64b48fbd","63691e56cdcd807a533d595e","753","","j","","","","","","","","./tasks/HMM-beads/Images/NewTrialWC.png","lowH","76","2","1","2","2","false","","","","","","","","","","","","","","","","",""
"image-keyboard-response","307","493460","0.0-4.0-6.0-1.0-1.76","5d45c2d1da9cb60015aa4312","63690f60c96a0a9a64b48fbd","63691e56cdcd807a533d595e","null","","null","","","","","","","","./tasks/HMM-beads/Images/WhiteBeadChoice.png","","","","","","","","","","","","","","","","","","","","","","","",""
"image-keyboard-response","308","493996","0.0-4.0-6.0-1.0-2.76","5d45c2d1da9cb60015aa4312","63690f60c96a0a9a64b48fbd","63691e56cdcd807a533d595e","null","","null","","","","","","","","./tasks/HMM-beads/Images/WhiteBeadChoiceWrong.png","","","","","","","","","","","","","","","","","","","","","","","",""
"image-keyboard-response","309","494098","0.0-4.0-6.0-1.0-0.77","5d45c2d1da9cb60015aa4312","63690f60c96a0a9a64b48fbd","63691e56cdcd807a533d595e","98","","f","","","","","","","","./tasks/HMM-beads/Images/NewTrialBC.png","lowH","77","2","2","1","1","false","","","","","","","","","","","","","","","","",""
"image-keyboard-response","310","494404","0.0-4.0-6.0-1.0-1.77","5d45c2d1da9cb60015aa4312","63690f60c96a0a9a64b48fbd","63691e56cdcd807a533d595e","null","","null","","","","","","","","./tasks/HMM-beads/Images/BlackBeadChoice.png","","","","","","","","","","","","","","","","","","","","","","","",""
"image-keyboard-response","311","494916","0.0-4.0-6.0-1.0-2.77","5d45c2d1da9cb60015aa4312","63690f60c96a0a9a64b48fbd","63691e56cdcd807a533d595e","null","","null","","","","","","","","./tasks/HMM-beads/Images/BlackBeadChoiceWrong.png","","","","","","","","","","","","","","","","","","","","","","","",""
"image-keyboard-response","312","498396","0.0-4.0-6.0-1.0-0.78","5d45c2d1da9cb60015aa4312","63690f60c96a0a9a64b48fbd","63691e56cdcd807a533d595e","3476","","j","","","","","","","","./tasks/HMM-beads/Images/NewTrialWC.png","lowH","78","2","2","2","2","true","","","","","","","","","","","","","","","","",""
"image-keyboard-response","313","498708","0.0-4.0-6.0-1.0-1.78","5d45c2d1da9cb60015aa4312","63690f60c96a0a9a64b48fbd","63691e56cdcd807a533d595e","null","","null","","","","","","","","./tasks/HMM-beads/Images/WhiteBeadChoice.png","","","","","","","","","","","","","","","","","","","","","","","",""
"image-keyboard-response","314","499220","0.0-4.0-6.0-1.0-2.78","5d45c2d1da9cb60015aa4312","63690f60c96a0a9a64b48fbd","63691e56cdcd807a533d595e","null","","null","","","","","","","","./tasks/HMM-beads/Images/WhiteBeadChoiceCorrect.png","","","","","","","","","","","","","","","","","","","","","","","",""
"image-keyboard-response","315","499295","0.0-4.0-6.0-1.0-0.79","5d45c2d1da9cb60015aa4312","63690f60c96a0a9a64b48fbd","63691e56cdcd807a533d595e","70","","j","","","","","","","","./tasks/HMM-beads/Images/NewTrialWC.png","lowH","79","2","2","2","2","true","","","","","","","","","","","","","","","","",""
"image-keyboard-response","316","499604","0.0-4.0-6.0-1.0-1.79","5d45c2d1da9cb60015aa4312","63690f60c96a0a9a64b48fbd","63691e56cdcd807a533d595e","null","","null","","","","","","","","./tasks/HMM-beads/Images/WhiteBeadChoice.png","","","","","","","","","","","","","","","","","","","","","","","",""
"image-keyboard-response","317","500116","0.0-4.0-6.0-1.0-2.79","5d45c2d1da9cb60015aa4312","63690f60c96a0a9a64b48fbd","63691e56cdcd807a533d595e","null","","null","","","","","","","","./tasks/HMM-beads/Images/WhiteBeadChoiceCorrect.png","","","","","","","","","","","","","","","","","","","","","","","",""
"image-keyboard-response","318","501161","0.0-4.0-6.0-1.0-0.80","5d45c2d1da9cb60015aa4312","63690f60c96a0a9a64b48fbd","63691e56cdcd807a533d595e","1041","","j","","","","","","","","./tasks/HMM-beads/Images/NewTrialWC.png","lowH","80","2","2","2","2","true","","","","","","","","","","","","","","","","",""
"image-keyboard-response","319","501469","0.0-4.0-6.0-1.0-1.80","5d45c2d1da9cb60015aa4312","63690f60c96a0a9a64b48fbd","63691e56cdcd807a533d595e","null","","null","","","","","","","","./tasks/HMM-beads/Images/WhiteBeadChoice.png","","","","","","","","","","","","","","","","","","","","","","","",""
"image-keyboard-response","320","501980","0.0-4.0-6.0-1.0-2.80","5d45c2d1da9cb60015aa4312","63690f60c96a0a9a64b48fbd","63691e56cdcd807a533d595e","null","","null","","","","","","","","./tasks/HMM-beads/Images/WhiteBeadChoiceCorrect.png","","","","","","","","","","","","","","","","","","","","","","","",""
"image-keyboard-response","321","502896","0.0-4.0-6.0-1.0-0.81","5d45c2d1da9cb60015aa4312","63690f60c96a0a9a64b48fbd","63691e56cdcd807a533d595e","868","","j","","","","","","","","./tasks/HMM-beads/Images/NewTrialWC.png","lowH","81","2","2","2","2","true","","","","","","","","","","","","","","","","",""
