"trial_type","trial_index","time_elapsed","internal_node_id","subject_id","study_id","session_id","rt","url","response","question_order","view_history","success","timeout","failed_images","failed_audio","failed_video","stimulus","block","trial_number","jar","bead","previous_bead","choice","correct","lowH_score","highH_score","state","rewarded","state1_action","state2_visited","state1_key","state2_key","state1_rt","state2_rt","two_arm_score_block1","block_num","seq_file","trial_seq_info","two_arm_score_block2","two_arm_score_total","total_bonus"
"pavlovia","0","990","0.0-0.0","5e127002fa3d108e61b09a99","63690f60c96a0a9a64b48fbc","6369156a200954e2d931dfde","","","","","","","","","","","","","","","","","","","","","","","","","","","","","","","","","","",""
"external-html","1","260160","0.0-1.0-0.0","5e127002fa3d108e61b09a99","63690f60c96a0a9a64b48fbc","6369156a200954e2d931dfde","259061","new_consent.html","","","","","","","","","","","","","","","","","","","","","","","","","","","","","","","","",""
"survey-multi-choice","2","265202","0.0-1.0-1.0","5e127002fa3d108e61b09a99","63690f60c96a0a9a64b48fbc","6369156a200954e2d931dfde","5039","","{""Q0"":""Male"",""Q1"":""Black or African American""}","[0,1]","","","","","","","","","","","","","","","","","","","","","","","","","","","","","","",""
"survey-text","3","267759","0.0-1.0-2.0","5e127002fa3d108e61b09a99","63690f60c96a0a9a64b48fbc","6369156a200954e2d931dfde","2552","","{""Q0"":""43""}","","","","","","","","","","","","","","","","","","","","","","","","","","","","","","","",""
"instructions","4","279192","0.0-2.0","5e127002fa3d108e61b09a99","63690f60c96a0a9a64b48fbc","6369156a200954e2d931dfde","11333","","","","[{""page_index"":0,""viewing_time"":9895},{""page_index"":1,""viewing_time"":1437}]","","","","","","","","","","","","","","","","","","","","","","","","","","","","","",""
"instructions","5","280305","0.0-3.0","5e127002fa3d108e61b09a99","63690f60c96a0a9a64b48fbc","6369156a200954e2d931dfde","1113","","","","[{""page_index"":0,""viewing_time"":1113}]","","","","","","","","","","","","","","","","","","","","","","","","","","","","","",""
"preload","6","282310","0.0-4.0-0.0","5e127002fa3d108e61b09a99","63690f60c96a0a9a64b48fbc","6369156a200954e2d931dfde","","","","","","true","false","[]","[]","[]","","","","","","","","","","","","","","","","","","","","","","","","",""
"instructions","7","382678","0.0-4.0-1.0","5e127002fa3d108e61b09a99","63690f60c96a0a9a64b48fbc","6369156a200954e2d931dfde","100375","","","","[{""page_index"":0,""viewing_time"":10175},{""page_index"":1,""viewing_time"":8734},{""page_index"":2,""viewing_time"":7407},{""page_index"":3,""viewing_time"":1827},{""page_index"":4,""viewing_time"":11718},{""page_index"":5,""viewing_time"":17870},{""page_index"":6,""viewing_time"":5673},{""page_index"":7,""viewing_time"":9242},{""page_index"":8,""viewing_time"":9977},{""page_index"":9,""viewing_time"":5211},{""page_index"":10,""viewing_time"":10841},{""page_index"":11,""viewing_time"":1700}]","","","","","","","","","","","","","","","","","","","","","","","","","","","","","",""
"html-button-response","8","385868","0.0-4.0-2.0-0.0-0.0","5e127002fa3d108e61b09a99","63690f60c96a0a9a64b48fbc","6369156a200954e2d931dfde","3189","","1","","","","","","","","<div align=center>Your goal is to predict…?<br><br></div>","","","","","","","","","","","","","","","","","","","","","","","",""
"html-button-response","9","393412","0.0-4.0-2.0-1.0-0.0","5e127002fa3d108e61b09a99","63690f60c96a0a9a64b48fbc","6369156a200954e2d931dfde","5270","","2","","","","","","","","<div align=center>In the jar with mostly white beads, there are ___% white beads and ___% black beads?<br><br></div>","","","","","","","","","","","","","","","","","","","","","","","",""
"html-button-response","10","399904","0.0-4.0-2.0-2.0-0.0","5e127002fa3d108e61b09a99","63690f60c96a0a9a64b48fbc","6369156a200954e2d931dfde","4845","","0","","","","","","","","<div align=center>When there is a 1% probability that the jars will switch, the next bead will most likely be drawn from the…<br><br></div>","","","","","","","","","","","","","","","","","","","","","","","",""
"html-button-response","11","403872","0.0-4.0-2.0-3.0-0.0","5e127002fa3d108e61b09a99","63690f60c96a0a9a64b48fbc","6369156a200954e2d931dfde","2684","","1","","","","","","","","<div align=center>When there is a 99% probability that the jars will switch, the next bead will most likely be drawn from the…<br><br></div>","","","","","","","","","","","","","","","","","","","","","","","",""
"instructions","12","412919","0.0-4.0-3.0","5e127002fa3d108e61b09a99","63690f60c96a0a9a64b48fbc","6369156a200954e2d931dfde","7622","","","","[{""page_index"":0,""viewing_time"":7622}]","","","","","","","","","","","","","","","","","","","","","","","","","","","","","",""
"html-keyboard-response","13","416875","0.0-4.0-4.0-0.0","5e127002fa3d108e61b09a99","63690f60c96a0a9a64b48fbc","6369156a200954e2d931dfde","3955",""," ","","","","","","","","<div align=center>In this practice block, there will be a <b>10% chance</b> that the jar on the next trial will be different from the jar on the current trial.<br><br></div>","","","","","","","","","","","","","","","","","","","","","","","",""
"image-keyboard-response","14","422377","0.0-4.0-4.0-1.0-0.0","5e127002fa3d108e61b09a99","63690f60c96a0a9a64b48fbc","6369156a200954e2d931dfde","5494","","f","","","","","","","","./tasks/HMM-beads/Images/NoChoice.png","practice","0","1","1","0","1","true","","","","","","","","","","","","","","","","",""
"image-keyboard-response","15","422681","0.0-4.0-4.0-1.0-1.0","5e127002fa3d108e61b09a99","63690f60c96a0a9a64b48fbc","6369156a200954e2d931dfde","null","","null","","","","","","","","./tasks/HMM-beads/Images/BlackBeadChoice.png","","","","","","","","","","","","","","","","","","","","","","","",""
"image-keyboard-response","16","423186","0.0-4.0-4.0-1.0-2.0","5e127002fa3d108e61b09a99","63690f60c96a0a9a64b48fbc","6369156a200954e2d931dfde","null","","null","","","","","","","","./tasks/HMM-beads/Images/BlackBeadChoiceCorrect.png","","","","","","","","","","","","","","","","","","","","","","","",""
"image-keyboard-response","17","426547","0.0-4.0-4.0-1.0-0.1","5e127002fa3d108e61b09a99","63690f60c96a0a9a64b48fbc","6369156a200954e2d931dfde","3359","","f","","","","","","","","./tasks/HMM-beads/Images/NewTrialBC.png","practice","1","1","1","1","1","true","","","","","","","","","","","","","","","","",""
"image-keyboard-response","18","426858","0.0-4.0-4.0-1.0-1.1","5e127002fa3d108e61b09a99","63690f60c96a0a9a64b48fbc","6369156a200954e2d931dfde","null","","null","","","","","","","","./tasks/HMM-beads/Images/BlackBeadChoice.png","","","","","","","","","","","","","","","","","","","","","","","",""
"image-keyboard-response","19","427361","0.0-4.0-4.0-1.0-2.1","5e127002fa3d108e61b09a99","63690f60c96a0a9a64b48fbc","6369156a200954e2d931dfde","null","","null","","","","","","","","./tasks/HMM-beads/Images/BlackBeadChoiceCorrect.png","","","","","","","","","","","","","","","","","","","","","","","",""
"image-keyboard-response","20","429525","0.0-4.0-4.0-1.0-0.2","5e127002fa3d108e61b09a99","63690f60c96a0a9a64b48fbc","6369156a200954e2d931dfde","2163","","f","","","","","","","","./tasks/HMM-beads/Images/NewTrialBC.png","practice","2","1","2","1","1","false","","","","","","","","","","","","","","","","",""
"image-keyboard-response","21","429836","0.0-4.0-4.0-1.0-1.2","5e127002fa3d108e61b09a99","63690f60c96a0a9a64b48fbc","6369156a200954e2d931dfde","null","","null","","","","","","","","./tasks/HMM-beads/Images/BlackBeadChoice.png","","","","","","","","","","","","","","","","","","","","","","","",""
"image-keyboard-response","22","430344","0.0-4.0-4.0-1.0-2.2","5e127002fa3d108e61b09a99","63690f60c96a0a9a64b48fbc","6369156a200954e2d931dfde","null","","null","","","","","","","","./tasks/HMM-beads/Images/BlackBeadChoiceWrong.png","","","","","","","","","","","","","","","","","","","","","","","",""
"image-keyboard-response","23","435942","0.0-4.0-4.0-1.0-0.3","5e127002fa3d108e61b09a99","63690f60c96a0a9a64b48fbc","6369156a200954e2d931dfde","5597","","j","","","","","","","","./tasks/HMM-beads/Images/NewTrialWC.png","practice","3","1","1","2","2","false","","","","","","","","","","","","","","","","",""
"image-keyboard-response","24","436253","0.0-4.0-4.0-1.0-1.3","5e127002fa3d108e61b09a99","63690f60c96a0a9a64b48fbc","6369156a200954e2d931dfde","null","","null","","","","","","","","./tasks/HMM-beads/Images/WhiteBeadChoice.png","","","","","","","","","","","","","","","","","","","","","","","",""
"image-keyboard-response","25","436769","0.0-4.0-4.0-1.0-2.3","5e127002fa3d108e61b09a99","63690f60c96a0a9a64b48fbc","6369156a200954e2d931dfde","null","","null","","","","","","","","./tasks/HMM-beads/Images/WhiteBeadChoiceWrong.png","","","","","","","","","","","","","","","","","","","","","","","",""
"image-keyboard-response","26","438376","0.0-4.0-4.0-1.0-0.4","5e127002fa3d108e61b09a99","63690f60c96a0a9a64b48fbc","6369156a200954e2d931dfde","1606","","f","","","","","","","","./tasks/HMM-beads/Images/NewTrialBC.png","practice","4","1","2","1","1","false","","","","","","","","","","","","","","","","",""
"image-keyboard-response","27","438681","0.0-4.0-4.0-1.0-1.4","5e127002fa3d108e61b09a99","63690f60c96a0a9a64b48fbc","6369156a200954e2d931dfde","null","","null","","","","","","","","./tasks/HMM-beads/Images/BlackBeadChoice.png","","","","","","","","","","","","","","","","","","","","","","","",""
"image-keyboard-response","28","439186","0.0-4.0-4.0-1.0-2.4","5e127002fa3d108e61b09a99","63690f60c96a0a9a64b48fbc","6369156a200954e2d931dfde","null","","null","","","","","","","","./tasks/HMM-beads/Images/BlackBeadChoiceWrong.png","","","","","","","","","","","","","","","","","","","","","","","",""
"image-keyboard-response","29","443829","0.0-4.0-4.0-1.0-0.5","5e127002fa3d108e61b09a99","63690f60c96a0a9a64b48fbc","6369156a200954e2d931dfde","4642","","j","","","","","","","","./tasks/HMM-beads/Images/NewTrialWC.png","practice","5","1","1","2","2","false","","","","","","","","","","","","","","","","",""
"image-keyboard-response","30","444140","0.0-4.0-4.0-1.0-1.5","5e127002fa3d108e61b09a99","63690f60c96a0a9a64b48fbc","6369156a200954e2d931dfde","null","","null","","","","","","","","./tasks/HMM-beads/Images/WhiteBeadChoice.png","","","","","","","","","","","","","","","","","","","","","","","",""
"image-keyboard-response","31","444652","0.0-4.0-4.0-1.0-2.5","5e127002fa3d108e61b09a99","63690f60c96a0a9a64b48fbc","6369156a200954e2d931dfde","null","","null","","","","","","","","./tasks/HMM-beads/Images/WhiteBeadChoiceWrong.png","","","","","","","","","","","","","","","","","","","","","","","",""
"image-keyboard-response","32","445761","0.0-4.0-4.0-1.0-0.6","5e127002fa3d108e61b09a99","63690f60c96a0a9a64b48fbc","6369156a200954e2d931dfde","1108","","f","","","","","","","","./tasks/HMM-beads/Images/NewTrialBC.png","practice","6","1","2","1","1","false","","","","","","","","","","","","","","","","",""
"image-keyboard-response","33","446065","0.0-4.0-4.0-1.0-1.6","5e127002fa3d108e61b09a99","63690f60c96a0a9a64b48fbc","6369156a200954e2d931dfde","null","","null","","","","","","","","./tasks/HMM-beads/Images/BlackBeadChoice.png","","","","","","","","","","","","","","","","","","","","","","","",""
"image-keyboard-response","34","446570","0.0-4.0-4.0-1.0-2.6","5e127002fa3d108e61b09a99","63690f60c96a0a9a64b48fbc","6369156a200954e2d931dfde","null","","null","","","","","","","","./tasks/HMM-beads/Images/BlackBeadChoiceWrong.png","","","","","","","","","","","","","","","","","","","","","","","",""
"image-keyboard-response","35","447550","0.0-4.0-4.0-1.0-0.7","5e127002fa3d108e61b09a99","63690f60c96a0a9a64b48fbc","6369156a200954e2d931dfde","980","","j","","","","","","","","./tasks/HMM-beads/Images/NewTrialWC.png","practice","7","1","1","2","2","false","","","","","","","","","","","","","","","","",""
"image-keyboard-response","36","447852","0.0-4.0-4.0-1.0-1.7","5e127002fa3d108e61b09a99","63690f60c96a0a9a64b48fbc","6369156a200954e2d931dfde","null","","null","","","","","","","","./tasks/HMM-beads/Images/WhiteBeadChoice.png","","","","","","","","","","","","","","","","","","","","","","","",""
"image-keyboard-response","37","448364","0.0-4.0-4.0-1.0-2.7","5e127002fa3d108e61b09a99","63690f60c96a0a9a64b48fbc","6369156a200954e2d931dfde","null","","null","","","","","","","","./tasks/HMM-beads/Images/WhiteBeadChoiceWrong.png","","","","","","","","","","","","","","","","","","","","","","","",""
"image-keyboard-response","38","448938","0.0-4.0-4.0-1.0-0.8","5e127002fa3d108e61b09a99","63690f60c96a0a9a64b48fbc","6369156a200954e2d931dfde","566","","f","","","","","","","","./tasks/HMM-beads/Images/NewTrialBC.png","practice","8","1","1","1","1","true","","","","","","","","","","","","","","","","",""
"image-keyboard-response","39","449240","0.0-4.0-4.0-1.0-1.8","5e127002fa3d108e61b09a99","63690f60c96a0a9a64b48fbc","6369156a200954e2d931dfde","null","","null","","","","","","","","./tasks/HMM-beads/Images/BlackBeadChoice.png","","","","","","","","","","","","","","","","","","","","","","","",""
"image-keyboard-response","40","449745","0.0-4.0-4.0-1.0-2.8","5e127002fa3d108e61b09a99","63690f60c96a0a9a64b48fbc","6369156a200954e2d931dfde","null","","null","","","","","","","","./tasks/HMM-beads/Images/BlackBeadChoiceCorrect.png","","","","","","","","","","","","","","","","","","","","","","","",""
"image-keyboard-response","41","450213","0.0-4.0-4.0-1.0-0.9","5e127002fa3d108e61b09a99","63690f60c96a0a9a64b48fbc","6369156a200954e2d931dfde","467","","f","","","","","","","","./tasks/HMM-beads/Images/NewTrialBC.png","practice","9","2","2","1","1","false","","","","","","","","","","","","","","","","",""
"image-keyboard-response","42","450524","0.0-4.0-4.0-1.0-1.9","5e127002fa3d108e61b09a99","63690f60c96a0a9a64b48fbc","6369156a200954e2d931dfde","null","","null","","","","","","","","./tasks/HMM-beads/Images/BlackBeadChoice.png","","","","","","","","","","","","","","","","","","","","","","","",""
"image-keyboard-response","43","451036","0.0-4.0-4.0-1.0-2.9","5e127002fa3d108e61b09a99","63690f60c96a0a9a64b48fbc","6369156a200954e2d931dfde","null","","null","","","","","","","","./tasks/HMM-beads/Images/BlackBeadChoiceWrong.png","","","","","","","","","","","","","","","","","","","","","","","",""
"image-keyboard-response","44","451490","0.0-4.0-4.0-1.0-0.10","5e127002fa3d108e61b09a99","63690f60c96a0a9a64b48fbc","6369156a200954e2d931dfde","453","","j","","","","","","","","./tasks/HMM-beads/Images/NewTrialWC.png","practice","10","2","1","2","2","false","","","","","","","","","","","","","","","","",""
"image-keyboard-response","45","451792","0.0-4.0-4.0-1.0-1.10","5e127002fa3d108e61b09a99","63690f60c96a0a9a64b48fbc","6369156a200954e2d931dfde","null","","null","","","","","","","","./tasks/HMM-beads/Images/WhiteBeadChoice.png","","","","","","","","","","","","","","","","","","","","","","","",""
"image-keyboard-response","46","452300","0.0-4.0-4.0-1.0-2.10","5e127002fa3d108e61b09a99","63690f60c96a0a9a64b48fbc","6369156a200954e2d931dfde","null","","null","","","","","","","","./tasks/HMM-beads/Images/WhiteBeadChoiceWrong.png","","","","","","","","","","","","","","","","","","","","","","","",""
"image-keyboard-response","47","455448","0.0-4.0-4.0-1.0-0.11","5e127002fa3d108e61b09a99","63690f60c96a0a9a64b48fbc","6369156a200954e2d931dfde","3147","","f","","","","","","","","./tasks/HMM-beads/Images/NewTrialBC.png","practice","11","2","2","1","1","false","","","","","","","","","","","","","","","","",""
"image-keyboard-response","48","455752","0.0-4.0-4.0-1.0-1.11","5e127002fa3d108e61b09a99","63690f60c96a0a9a64b48fbc","6369156a200954e2d931dfde","null","","null","","","","","","","","./tasks/HMM-beads/Images/BlackBeadChoice.png","","","","","","","","","","","","","","","","","","","","","","","",""
"image-keyboard-response","49","456258","0.0-4.0-4.0-1.0-2.11","5e127002fa3d108e61b09a99","63690f60c96a0a9a64b48fbc","6369156a200954e2d931dfde","null","","null","","","","","","","","./tasks/HMM-beads/Images/BlackBeadChoiceWrong.png","","","","","","","","","","","","","","","","","","","","","","","",""
"image-keyboard-response","50","456369","0.0-4.0-4.0-1.0-0.12","5e127002fa3d108e61b09a99","63690f60c96a0a9a64b48fbc","6369156a200954e2d931dfde","110","","j","","","","","","","","./tasks/HMM-beads/Images/NewTrialWC.png","practice","12","2","2","2","2","true","","","","","","","","","","","","","","","","",""
"image-keyboard-response","51","456674","0.0-4.0-4.0-1.0-1.12","5e127002fa3d108e61b09a99","63690f60c96a0a9a64b48fbc","6369156a200954e2d931dfde","null","","null","","","","","","","","./tasks/HMM-beads/Images/WhiteBeadChoice.png","","","","","","","","","","","","","","","","","","","","","","","",""
"image-keyboard-response","52","457179","0.0-4.0-4.0-1.0-2.12","5e127002fa3d108e61b09a99","63690f60c96a0a9a64b48fbc","6369156a200954e2d931dfde","null","","null","","","","","","","","./tasks/HMM-beads/Images/WhiteBeadChoiceCorrect.png","","","","","","","","","","","","","","","","","","","","","","","",""
"image-keyboard-response","53","457416","0.0-4.0-4.0-1.0-0.13","5e127002fa3d108e61b09a99","63690f60c96a0a9a64b48fbc","6369156a200954e2d931dfde","236","","j","","","","","","","","./tasks/HMM-beads/Images/NewTrialWC.png","practice","13","2","2","2","2","true","","","","","","","","","","","","","","","","",""
"image-keyboard-response","54","457724","0.0-4.0-4.0-1.0-1.13","5e127002fa3d108e61b09a99","63690f60c96a0a9a64b48fbc","6369156a200954e2d931dfde","null","","null","","","","","","","","./tasks/HMM-beads/Images/WhiteBeadChoice.png","","","","","","","","","","","","","","","","","","","","","","","",""
"image-keyboard-response","55","458235","0.0-4.0-4.0-1.0-2.13","5e127002fa3d108e61b09a99","63690f60c96a0a9a64b48fbc","6369156a200954e2d931dfde","null","","null","","","","","","","","./tasks/HMM-beads/Images/WhiteBeadChoiceCorrect.png","","","","","","","","","","","","","","","","","","","","","","","",""
"image-keyboard-response","56","458528","0.0-4.0-4.0-1.0-0.14","5e127002fa3d108e61b09a99","63690f60c96a0a9a64b48fbc","6369156a200954e2d931dfde","292","","j","","","","","","","","./tasks/HMM-beads/Images/NewTrialWC.png","practice","14","2","2","2","2","true","","","","","","","","","","","","","","","","",""
"image-keyboard-response","57","458836","0.0-4.0-4.0-1.0-1.14","5e127002fa3d108e61b09a99","63690f60c96a0a9a64b48fbc","6369156a200954e2d931dfde","null","","null","","","","","","","","./tasks/HMM-beads/Images/WhiteBeadChoice.png","","","","","","","","","","","","","","","","","","","","","","","",""
"image-keyboard-response","58","459348","0.0-4.0-4.0-1.0-2.14","5e127002fa3d108e61b09a99","63690f60c96a0a9a64b48fbc","6369156a200954e2d931dfde","null","","null","","","","","","","","./tasks/HMM-beads/Images/WhiteBeadChoiceCorrect.png","","","","","","","","","","","","","","","","","","","","","","","",""
"image-keyboard-response","59","459616","0.0-4.0-4.0-1.0-0.15","5e127002fa3d108e61b09a99","63690f60c96a0a9a64b48fbc","6369156a200954e2d931dfde","261","","j","","","","","","","","./tasks/HMM-beads/Images/NewTrialWC.png","practice","15","1","1","2","2","false","","","","","","","","","","","","","","","","",""
"image-keyboard-response","60","459920","0.0-4.0-4.0-1.0-1.15","5e127002fa3d108e61b09a99","63690f60c96a0a9a64b48fbc","6369156a200954e2d931dfde","null","","null","","","","","","","","./tasks/HMM-beads/Images/WhiteBeadChoice.png","","","","","","","","","","","","","","","","","","","","","","","",""
"image-keyboard-response","61","460426","0.0-4.0-4.0-1.0-2.15","5e127002fa3d108e61b09a99","63690f60c96a0a9a64b48fbc","6369156a200954e2d931dfde","null","","null","","","","","","","","./tasks/HMM-beads/Images/WhiteBeadChoiceWrong.png","","","","","","","","","","","","","","","","","","","","","","","",""
"image-keyboard-response","62","461097","0.0-4.0-4.0-1.0-0.16","5e127002fa3d108e61b09a99","63690f60c96a0a9a64b48fbc","6369156a200954e2d931dfde","671","","f","","","","","","","","./tasks/HMM-beads/Images/NewTrialBC.png","practice","16","1","2","1","1","false","","","","","","","","","","","","","","","","",""
"image-keyboard-response","63","461402","0.0-4.0-4.0-1.0-1.16","5e127002fa3d108e61b09a99","63690f60c96a0a9a64b48fbc","6369156a200954e2d931dfde","null","","null","","","","","","","","./tasks/HMM-beads/Images/BlackBeadChoice.png","","","","","","","","","","","","","","","","","","","","","","","",""
"image-keyboard-response","64","461907","0.0-4.0-4.0-1.0-2.16","5e127002fa3d108e61b09a99","63690f60c96a0a9a64b48fbc","6369156a200954e2d931dfde","null","","null","","","","","","","","./tasks/HMM-beads/Images/BlackBeadChoiceWrong.png","","","","","","","","","","","","","","","","","","","","","","","",""
"image-keyboard-response","65","462234","0.0-4.0-4.0-1.0-0.17","5e127002fa3d108e61b09a99","63690f60c96a0a9a64b48fbc","6369156a200954e2d931dfde","327","","j","","","","","","","","./tasks/HMM-beads/Images/NewTrialWC.png","practice","17","1","1","2","2","false","","","","","","","","","","","","","","","","",""
"image-keyboard-response","66","462538","0.0-4.0-4.0-1.0-1.17","5e127002fa3d108e61b09a99","63690f60c96a0a9a64b48fbc","6369156a200954e2d931dfde","null","","null","","","","","","","","./tasks/HMM-beads/Images/WhiteBeadChoice.png","","","","","","","","","","","","","","","","","","","","","","","",""
"image-keyboard-response","67","463045","0.0-4.0-4.0-1.0-2.17","5e127002fa3d108e61b09a99","63690f60c96a0a9a64b48fbc","6369156a200954e2d931dfde","null","","null","","","","","","","","./tasks/HMM-beads/Images/WhiteBeadChoiceWrong.png","","","","","","","","","","","","","","","","","","","","","","","",""
"image-keyboard-response","68","466051","0.0-4.0-4.0-1.0-0.18","5e127002fa3d108e61b09a99","63690f60c96a0a9a64b48fbc","6369156a200954e2d931dfde","3005","","f","","","","","","","","./tasks/HMM-beads/Images/NewTrialBC.png","practice","18","1","1","1","1","true","","","","","","","","","","","","","","","","",""
"image-keyboard-response","69","466361","0.0-4.0-4.0-1.0-1.18","5e127002fa3d108e61b09a99","63690f60c96a0a9a64b48fbc","6369156a200954e2d931dfde","null","","null","","","","","","","","./tasks/HMM-beads/Images/BlackBeadChoice.png","","","","","","","","","","","","","","","","","","","","","","","",""
"image-keyboard-response","70","466869","0.0-4.0-4.0-1.0-2.18","5e127002fa3d108e61b09a99","63690f60c96a0a9a64b48fbc","6369156a200954e2d931dfde","null","","null","","","","","","","","./tasks/HMM-beads/Images/BlackBeadChoiceCorrect.png","","","","","","","","","","","","","","","","","","","","","","","",""
"image-keyboard-response","71","467165","0.0-4.0-4.0-1.0-0.19","5e127002fa3d108e61b09a99","63690f60c96a0a9a64b48fbc","6369156a200954e2d931dfde","296","","f","","","","","","","","./tasks/HMM-beads/Images/NewTrialBC.png","practice","19","1","1","1","1","true","","","","","","","","","","","","","","","","",""
"image-keyboard-response","72","467469","0.0-4.0-4.0-1.0-1.19","5e127002fa3d108e61b09a99","63690f60c96a0a9a64b48fbc","6369156a200954e2d931dfde","null","","null","","","","","","","","./tasks/HMM-beads/Images/BlackBeadChoice.png","","","","","","","","","","","","","","","","","","","","","","","",""
"image-keyboard-response","73","467977","0.0-4.0-4.0-1.0-2.19","5e127002fa3d108e61b09a99","63690f60c96a0a9a64b48fbc","6369156a200954e2d931dfde","null","","null","","","","","","","","./tasks/HMM-beads/Images/BlackBeadChoiceCorrect.png","","","","","","","","","","","","","","","","","","","","","","","",""
"html-keyboard-response","74","472193","0.0-4.0-4.0-2.0","5e127002fa3d108e61b09a99","63690f60c96a0a9a64b48fbc","6369156a200954e2d931dfde","4216",""," ","","","","","","","","","","","","","","","","","","","","","","","","","","","","","","","",""
"instructions","75","484476","0.0-4.0-5.0","5e127002fa3d108e61b09a99","63690f60c96a0a9a64b48fbc","6369156a200954e2d931dfde","12282","","","","[{""page_index"":0,""viewing_time"":10062},{""page_index"":1,""viewing_time"":2220}]","","","","","","","","","","","","","","","","","","","","","","","","","","","","","",""
"html-keyboard-response","76","490101","0.0-4.0-6.0-0.0","5e127002fa3d108e61b09a99","63690f60c96a0a9a64b48fbc","6369156a200954e2d931dfde","5625",""," ","","","","","","","","<div align=center>In this block, there will be a <b>1% chance</b> that the jar on the next trial will be different from the jar on the current trial.<br><br></div>","","","","","","","","","","","","","","","","","","","","","","","",""
"image-keyboard-response","77","491941","0.0-4.0-6.0-1.0-0.0","5e127002fa3d108e61b09a99","63690f60c96a0a9a64b48fbc","6369156a200954e2d931dfde","1839","","f","","","","","","","","./tasks/HMM-beads/Images/NoChoice.png","lowH","0","2","2","0","1","false","","","","","","","","","","","","","","","","",""
"image-keyboard-response","78","492251","0.0-4.0-6.0-1.0-1.0","5e127002fa3d108e61b09a99","63690f60c96a0a9a64b48fbc","6369156a200954e2d931dfde","null","","null","","","","","","","","./tasks/HMM-beads/Images/BlackBeadChoice.png","","","","","","","","","","","","","","","","","","","","","","","",""
"image-keyboard-response","79","492763","0.0-4.0-6.0-1.0-2.0","5e127002fa3d108e61b09a99","63690f60c96a0a9a64b48fbc","6369156a200954e2d931dfde","null","","null","","","","","","","","./tasks/HMM-beads/Images/BlackBeadChoiceWrong.png","","","","","","","","","","","","","","","","","","","","","","","",""
"image-keyboard-response","80","496681","0.0-4.0-6.0-1.0-0.1","5e127002fa3d108e61b09a99","63690f60c96a0a9a64b48fbc","6369156a200954e2d931dfde","3917","","j","","","","","","","","./tasks/HMM-beads/Images/NewTrialWC.png","lowH","1","2","2","2","2","true","","","","","","","","","","","","","","","","",""
"image-keyboard-response","81","496988","0.0-4.0-6.0-1.0-1.1","5e127002fa3d108e61b09a99","63690f60c96a0a9a64b48fbc","6369156a200954e2d931dfde","null","","null","","","","","","","","./tasks/HMM-beads/Images/WhiteBeadChoice.png","","","","","","","","","","","","","","","","","","","","","","","",""
"image-keyboard-response","82","497497","0.0-4.0-6.0-1.0-2.1","5e127002fa3d108e61b09a99","63690f60c96a0a9a64b48fbc","6369156a200954e2d931dfde","null","","null","","","","","","","","./tasks/HMM-beads/Images/WhiteBeadChoiceCorrect.png","","","","","","","","","","","","","","","","","","","","","","","",""
"image-keyboard-response","83","497889","0.0-4.0-6.0-1.0-0.2","5e127002fa3d108e61b09a99","63690f60c96a0a9a64b48fbc","6369156a200954e2d931dfde","392","","j","","","","","","","","./tasks/HMM-beads/Images/NewTrialWC.png","lowH","2","2","2","2","2","true","","","","","","","","","","","","","","","","",""
"image-keyboard-response","84","498196","0.0-4.0-6.0-1.0-1.2","5e127002fa3d108e61b09a99","63690f60c96a0a9a64b48fbc","6369156a200954e2d931dfde","null","","null","","","","","","","","./tasks/HMM-beads/Images/WhiteBeadChoice.png","","","","","","","","","","","","","","","","","","","","","","","",""
"image-keyboard-response","85","498697","0.0-4.0-6.0-1.0-2.2","5e127002fa3d108e61b09a99","63690f60c96a0a9a64b48fbc","6369156a200954e2d931dfde","null","","null","","","","","","","","./tasks/HMM-beads/Images/WhiteBeadChoiceCorrect.png","","","","","","","","","","","","","","","","","","","","","","","",""
"image-keyboard-response","86","499026","0.0-4.0-6.0-1.0-0.3","5e127002fa3d108e61b09a99","63690f60c96a0a9a64b48fbc","6369156a200954e2d931dfde","329","","j","","","","","","","","./tasks/HMM-beads/Images/NewTrialWC.png","lowH","3","2","2","2","2","true","","","","","","","","","","","","","","","","",""
"image-keyboard-response","87","499330","0.0-4.0-6.0-1.0-1.3","5e127002fa3d108e61b09a99","63690f60c96a0a9a64b48fbc","6369156a200954e2d931dfde","null","","null","","","","","","","","./tasks/HMM-beads/Images/WhiteBeadChoice.png","","","","","","","","","","","","","","","","","","","","","","","",""
"image-keyboard-response","88","499835","0.0-4.0-6.0-1.0-2.3","5e127002fa3d108e61b09a99","63690f60c96a0a9a64b48fbc","6369156a200954e2d931dfde","null","","null","","","","","","","","./tasks/HMM-beads/Images/WhiteBeadChoiceCorrect.png","","","","","","","","","","","","","","","","","","","","","","","",""
"image-keyboard-response","89","500149","0.0-4.0-6.0-1.0-0.4","5e127002fa3d108e61b09a99","63690f60c96a0a9a64b48fbc","6369156a200954e2d931dfde","314","","j","","","","","","","","./tasks/HMM-beads/Images/NewTrialWC.png","lowH","4","2","1","2","2","false","","","","","","","","","","","","","","","","",""
"image-keyboard-response","90","500457","0.0-4.0-6.0-1.0-1.4","5e127002fa3d108e61b09a99","63690f60c96a0a9a64b48fbc","6369156a200954e2d931dfde","null","","null","","","","","","","","./tasks/HMM-beads/Images/WhiteBeadChoice.png","","","","","","","","","","","","","","","","","","","","","","","",""
"image-keyboard-response","91","500961","0.0-4.0-6.0-1.0-2.4","5e127002fa3d108e61b09a99","63690f60c96a0a9a64b48fbc","6369156a200954e2d931dfde","null","","null","","","","","","","","./tasks/HMM-beads/Images/WhiteBeadChoiceWrong.png","","","","","","","","","","","","","","","","","","","","","","","",""
"image-keyboard-response","92","502806","0.0-4.0-6.0-1.0-0.5","5e127002fa3d108e61b09a99","63690f60c96a0a9a64b48fbc","6369156a200954e2d931dfde","1844","","j","","","","","","","","./tasks/HMM-beads/Images/NewTrialBC.png","lowH","5","2","2","1","2","true","","","","","","","","","","","","","","","","",""
"image-keyboard-response","93","503112","0.0-4.0-6.0-1.0-1.5","5e127002fa3d108e61b09a99","63690f60c96a0a9a64b48fbc","6369156a200954e2d931dfde","null","","null","","","","","","","","./tasks/HMM-beads/Images/WhiteBeadChoice.png","","","","","","","","","","","","","","","","","","","","","","","",""
"image-keyboard-response","94","503618","0.0-4.0-6.0-1.0-2.5","5e127002fa3d108e61b09a99","63690f60c96a0a9a64b48fbc","6369156a200954e2d931dfde","null","","null","","","","","","","","./tasks/HMM-beads/Images/WhiteBeadChoiceCorrect.png","","","","","","","","","","","","","","","","","","","","","","","",""
"image-keyboard-response","95","504245","0.0-4.0-6.0-1.0-0.6","5e127002fa3d108e61b09a99","63690f60c96a0a9a64b48fbc","6369156a200954e2d931dfde","626","","j","","","","","","","","./tasks/HMM-beads/Images/NewTrialWC.png","lowH","6","2","2","2","2","true","","","","","","","","","","","","","","","","",""
"image-keyboard-response","96","504553","0.0-4.0-6.0-1.0-1.6","5e127002fa3d108e61b09a99","63690f60c96a0a9a64b48fbc","6369156a200954e2d931dfde","null","","null","","","","","","","","./tasks/HMM-beads/Images/WhiteBeadChoice.png","","","","","","","","","","","","","","","","","","","","","","","",""
"image-keyboard-response","97","505058","0.0-4.0-6.0-1.0-2.6","5e127002fa3d108e61b09a99","63690f60c96a0a9a64b48fbc","6369156a200954e2d931dfde","null","","null","","","","","","","","./tasks/HMM-beads/Images/WhiteBeadChoiceCorrect.png","","","","","","","","","","","","","","","","","","","","","","","",""
"image-keyboard-response","98","505669","0.0-4.0-6.0-1.0-0.7","5e127002fa3d108e61b09a99","63690f60c96a0a9a64b48fbc","6369156a200954e2d931dfde","610","","j","","","","","","","","./tasks/HMM-beads/Images/NewTrialWC.png","lowH","7","2","2","2","2","true","","","","","","","","","","","","","","","","",""
"image-keyboard-response","99","505977","0.0-4.0-6.0-1.0-1.7","5e127002fa3d108e61b09a99","63690f60c96a0a9a64b48fbc","6369156a200954e2d931dfde","null","","null","","","","","","","","./tasks/HMM-beads/Images/WhiteBeadChoice.png","","","","","","","","","","","","","","","","","","","","","","","",""
"image-keyboard-response","100","506485","0.0-4.0-6.0-1.0-2.7","5e127002fa3d108e61b09a99","63690f60c96a0a9a64b48fbc","6369156a200954e2d931dfde","null","","null","","","","","","","","./tasks/HMM-beads/Images/WhiteBeadChoiceCorrect.png","","","","","","","","","","","","","","","","","","","","","","","",""
"image-keyboard-response","101","507086","0.0-4.0-6.0-1.0-0.8","5e127002fa3d108e61b09a99","63690f60c96a0a9a64b48fbc","6369156a200954e2d931dfde","601","","j","","","","","","","","./tasks/HMM-beads/Images/NewTrialWC.png","lowH","8","2","2","2","2","true","","","","","","","","","","","","","","","","",""
"image-keyboard-response","102","507392","0.0-4.0-6.0-1.0-1.8","5e127002fa3d108e61b09a99","63690f60c96a0a9a64b48fbc","6369156a200954e2d931dfde","null","","null","","","","","","","","./tasks/HMM-beads/Images/WhiteBeadChoice.png","","","","","","","","","","","","","","","","","","","","","","","",""
"image-keyboard-response","103","507899","0.0-4.0-6.0-1.0-2.8","5e127002fa3d108e61b09a99","63690f60c96a0a9a64b48fbc","6369156a200954e2d931dfde","null","","null","","","","","","","","./tasks/HMM-beads/Images/WhiteBeadChoiceCorrect.png","","","","","","","","","","","","","","","","","","","","","","","",""
"image-keyboard-response","104","508607","0.0-4.0-6.0-1.0-0.9","5e127002fa3d108e61b09a99","63690f60c96a0a9a64b48fbc","6369156a200954e2d931dfde","707","","j","","","","","","","","./tasks/HMM-beads/Images/NewTrialWC.png","lowH","9","2","2","2","2","true","","","","","","","","","","","","","","","","",""
"image-keyboard-response","105","508912","0.0-4.0-6.0-1.0-1.9","5e127002fa3d108e61b09a99","63690f60c96a0a9a64b48fbc","6369156a200954e2d931dfde","null","","null","","","","","","","","./tasks/HMM-beads/Images/WhiteBeadChoice.png","","","","","","","","","","","","","","","","","","","","","","","",""
"image-keyboard-response","106","509418","0.0-4.0-6.0-1.0-2.9","5e127002fa3d108e61b09a99","63690f60c96a0a9a64b48fbc","6369156a200954e2d931dfde","null","","null","","","","","","","","./tasks/HMM-beads/Images/WhiteBeadChoiceCorrect.png","","","","","","","","","","","","","","","","","","","","","","","",""
"image-keyboard-response","107","510187","0.0-4.0-6.0-1.0-0.10","5e127002fa3d108e61b09a99","63690f60c96a0a9a64b48fbc","6369156a200954e2d931dfde","768","","j","","","","","","","","./tasks/HMM-beads/Images/NewTrialWC.png","lowH","10","2","2","2","2","true","","","","","","","","","","","","","","","","",""
"image-keyboard-response","108","510488","0.0-4.0-6.0-1.0-1.10","5e127002fa3d108e61b09a99","63690f60c96a0a9a64b48fbc","6369156a200954e2d931dfde","null","","null","","","","","","","","./tasks/HMM-beads/Images/WhiteBeadChoice.png","","","","","","","","","","","","","","","","","","","","","","","",""
"image-keyboard-response","109","510994","0.0-4.0-6.0-1.0-2.10","5e127002fa3d108e61b09a99","63690f60c96a0a9a64b48fbc","6369156a200954e2d931dfde","null","","null","","","","","","","","./tasks/HMM-beads/Images/WhiteBeadChoiceCorrect.png","","","","","","","","","","","","","","","","","","","","","","","",""
"image-keyboard-response","110","511494","0.0-4.0-6.0-1.0-0.11","5e127002fa3d108e61b09a99","63690f60c96a0a9a64b48fbc","6369156a200954e2d931dfde","499","","j","","","","","","","","./tasks/HMM-beads/Images/NewTrialWC.png","lowH","11","2","2","2","2","true","","","","","","","","","","","","","","","","",""
"image-keyboard-response","111","511801","0.0-4.0-6.0-1.0-1.11","5e127002fa3d108e61b09a99","63690f60c96a0a9a64b48fbc","6369156a200954e2d931dfde","null","","null","","","","","","","","./tasks/HMM-beads/Images/WhiteBeadChoice.png","","","","","","","","","","","","","","","","","","","","","","","",""
"image-keyboard-response","112","512304","0.0-4.0-6.0-1.0-2.11","5e127002fa3d108e61b09a99","63690f60c96a0a9a64b48fbc","6369156a200954e2d931dfde","null","","null","","","","","","","","./tasks/HMM-beads/Images/WhiteBeadChoiceCorrect.png","","","","","","","","","","","","","","","","","","","","","","","",""
"image-keyboard-response","113","512889","0.0-4.0-6.0-1.0-0.12","5e127002fa3d108e61b09a99","63690f60c96a0a9a64b48fbc","6369156a200954e2d931dfde","584","","j","","","","","","","","./tasks/HMM-beads/Images/NewTrialWC.png","lowH","12","2","2","2","2","true","","","","","","","","","","","","","","","","",""
"image-keyboard-response","114","513196","0.0-4.0-6.0-1.0-1.12","5e127002fa3d108e61b09a99","63690f60c96a0a9a64b48fbc","6369156a200954e2d931dfde","null","","null","","","","","","","","./tasks/HMM-beads/Images/WhiteBeadChoice.png","","","","","","","","","","","","","","","","","","","","","","","",""
"image-keyboard-response","115","513707","0.0-4.0-6.0-1.0-2.12","5e127002fa3d108e61b09a99","63690f60c96a0a9a64b48fbc","6369156a200954e2d931dfde","null","","null","","","","","","","","./tasks/HMM-beads/Images/WhiteBeadChoiceCorrect.png","","","","","","","","","","","","","","","","","","","","","","","",""
"image-keyboard-response","116","514390","0.0-4.0-6.0-1.0-0.13","5e127002fa3d108e61b09a99","63690f60c96a0a9a64b48fbc","6369156a200954e2d931dfde","681","","j","","","","","","","","./tasks/HMM-beads/Images/NewTrialWC.png","lowH","13","2","2","2","2","true","","","","","","","","","","","","","","","","",""
"image-keyboard-response","117","514698","0.0-4.0-6.0-1.0-1.13","5e127002fa3d108e61b09a99","63690f60c96a0a9a64b48fbc","6369156a200954e2d931dfde","null","","null","","","","","","","","./tasks/HMM-beads/Images/WhiteBeadChoice.png","","","","","","","","","","","","","","","","","","","","","","","",""
"image-keyboard-response","118","515201","0.0-4.0-6.0-1.0-2.13","5e127002fa3d108e61b09a99","63690f60c96a0a9a64b48fbc","6369156a200954e2d931dfde","null","","null","","","","","","","","./tasks/HMM-beads/Images/WhiteBeadChoiceCorrect.png","","","","","","","","","","","","","","","","","","","","","","","",""
"image-keyboard-response","119","515615","0.0-4.0-6.0-1.0-0.14","5e127002fa3d108e61b09a99","63690f60c96a0a9a64b48fbc","6369156a200954e2d931dfde","413","","j","","","","","","","","./tasks/HMM-beads/Images/NewTrialWC.png","lowH","14","2","2","2","2","true","","","","","","","","","","","","","","","","",""
"image-keyboard-response","120","515921","0.0-4.0-6.0-1.0-1.14","5e127002fa3d108e61b09a99","63690f60c96a0a9a64b48fbc","6369156a200954e2d931dfde","null","","null","","","","","","","","./tasks/HMM-beads/Images/WhiteBeadChoice.png","","","","","","","","","","","","","","","","","","","","","","","",""
"image-keyboard-response","121","516427","0.0-4.0-6.0-1.0-2.14","5e127002fa3d108e61b09a99","63690f60c96a0a9a64b48fbc","6369156a200954e2d931dfde","null","","null","","","","","","","","./tasks/HMM-beads/Images/WhiteBeadChoiceCorrect.png","","","","","","","","","","","","","","","","","","","","","","","",""
"image-keyboard-response","122","516861","0.0-4.0-6.0-1.0-0.15","5e127002fa3d108e61b09a99","63690f60c96a0a9a64b48fbc","6369156a200954e2d931dfde","434","","j","","","","","","","","./tasks/HMM-beads/Images/NewTrialWC.png","lowH","15","2","1","2","2","false","","","","","","","","","","","","","","","","",""
"image-keyboard-response","123","517168","0.0-4.0-6.0-1.0-1.15","5e127002fa3d108e61b09a99","63690f60c96a0a9a64b48fbc","6369156a200954e2d931dfde","null","","null","","","","","","","","./tasks/HMM-beads/Images/WhiteBeadChoice.png","","","","","","","","","","","","","","","","","","","","","","","",""
"image-keyboard-response","124","517674","0.0-4.0-6.0-1.0-2.15","5e127002fa3d108e61b09a99","63690f60c96a0a9a64b48fbc","6369156a200954e2d931dfde","null","","null","","","","","","","","./tasks/HMM-beads/Images/WhiteBeadChoiceWrong.png","","","","","","","","","","","","","","","","","","","","","","","",""
"image-keyboard-response","125","518675","0.0-4.0-6.0-1.0-0.16","5e127002fa3d108e61b09a99","63690f60c96a0a9a64b48fbc","6369156a200954e2d931dfde","1001","","j","","","","","","","","./tasks/HMM-beads/Images/NewTrialBC.png","lowH","16","2","1","1","2","false","","","","","","","","","","","","","","","","",""
"image-keyboard-response","126","518984","0.0-4.0-6.0-1.0-1.16","5e127002fa3d108e61b09a99","63690f60c96a0a9a64b48fbc","6369156a200954e2d931dfde","null","","null","","","","","","","","./tasks/HMM-beads/Images/WhiteBeadChoice.png","","","","","","","","","","","","","","","","","","","","","","","",""
"image-keyboard-response","127","519496","0.0-4.0-6.0-1.0-2.16","5e127002fa3d108e61b09a99","63690f60c96a0a9a64b48fbc","6369156a200954e2d931dfde","null","","null","","","","","","","","./tasks/HMM-beads/Images/WhiteBeadChoiceWrong.png","","","","","","","","","","","","","","","","","","","","","","","",""
"image-keyboard-response","128","520909","0.0-4.0-6.0-1.0-0.17","5e127002fa3d108e61b09a99","63690f60c96a0a9a64b48fbc","6369156a200954e2d931dfde","1412","","f","","","","","","","","./tasks/HMM-beads/Images/NewTrialBC.png","lowH","17","2","2","1","1","false","","","","","","","","","","","","","","","","",""
"image-keyboard-response","129","521218","0.0-4.0-6.0-1.0-1.17","5e127002fa3d108e61b09a99","63690f60c96a0a9a64b48fbc","6369156a200954e2d931dfde","null","","null","","","","","","","","./tasks/HMM-beads/Images/BlackBeadChoice.png","","","","","","","","","","","","","","","","","","","","","","","",""
"image-keyboard-response","130","521720","0.0-4.0-6.0-1.0-2.17","5e127002fa3d108e61b09a99","63690f60c96a0a9a64b48fbc","6369156a200954e2d931dfde","null","","null","","","","","","","","./tasks/HMM-beads/Images/BlackBeadChoiceWrong.png","","","","","","","","","","","","","","","","","","","","","","","",""
"image-keyboard-response","131","523215","0.0-4.0-6.0-1.0-0.18","5e127002fa3d108e61b09a99","63690f60c96a0a9a64b48fbc","6369156a200954e2d931dfde","1495","","f","","","","","","","","./tasks/HMM-beads/Images/NewTrialWC.png","lowH","18","2","2","2","1","false","","","","","","","","","","","","","","","","",""
"image-keyboard-response","132","523521","0.0-4.0-6.0-1.0-1.18","5e127002fa3d108e61b09a99","63690f60c96a0a9a64b48fbc","6369156a200954e2d931dfde","null","","null","","","","","","","","./tasks/HMM-beads/Images/BlackBeadChoice.png","","","","","","","","","","","","","","","","","","","","","","","",""
"image-keyboard-response","133","524029","0.0-4.0-6.0-1.0-2.18","5e127002fa3d108e61b09a99","63690f60c96a0a9a64b48fbc","6369156a200954e2d931dfde","null","","null","","","","","","","","./tasks/HMM-beads/Images/BlackBeadChoiceWrong.png","","","","","","","","","","","","","","","","","","","","","","","",""
"image-keyboard-response","134","524756","0.0-4.0-6.0-1.0-0.19","5e127002fa3d108e61b09a99","63690f60c96a0a9a64b48fbc","6369156a200954e2d931dfde","727","","f","","","","","","","","./tasks/HMM-beads/Images/NewTrialWC.png","lowH","19","2","2","2","1","false","","","","","","","","","","","","","","","","",""
"image-keyboard-response","135","525067","0.0-4.0-6.0-1.0-1.19","5e127002fa3d108e61b09a99","63690f60c96a0a9a64b48fbc","6369156a200954e2d931dfde","null","","null","","","","","","","","./tasks/HMM-beads/Images/BlackBeadChoice.png","","","","","","","","","","","","","","","","","","","","","","","",""
"image-keyboard-response","136","525578","0.0-4.0-6.0-1.0-2.19","5e127002fa3d108e61b09a99","63690f60c96a0a9a64b48fbc","6369156a200954e2d931dfde","null","","null","","","","","","","","./tasks/HMM-beads/Images/BlackBeadChoiceWrong.png","","","","","","","","","","","","","","","","","","","","","","","",""
"image-keyboard-response","137","526145","0.0-4.0-6.0-1.0-0.20","5e127002fa3d108e61b09a99","63690f60c96a0a9a64b48fbc","6369156a200954e2d931dfde","566","","j","","","","","","","","./tasks/HMM-beads/Images/NewTrialWC.png","lowH","20","2","2","2","2","true","","","","","","","","","","","","","","","","",""
"image-keyboard-response","138","526451","0.0-4.0-6.0-1.0-1.20","5e127002fa3d108e61b09a99","63690f60c96a0a9a64b48fbc","6369156a200954e2d931dfde","null","","null","","","","","","","","./tasks/HMM-beads/Images/WhiteBeadChoice.png","","","","","","","","","","","","","","","","","","","","","","","",""
"image-keyboard-response","139","526961","0.0-4.0-6.0-1.0-2.20","5e127002fa3d108e61b09a99","63690f60c96a0a9a64b48fbc","6369156a200954e2d931dfde","null","","null","","","","","","","","./tasks/HMM-beads/Images/WhiteBeadChoiceCorrect.png","","","","","","","","","","","","","","","","","","","","","","","",""
"image-keyboard-response","140","527627","0.0-4.0-6.0-1.0-0.21","5e127002fa3d108e61b09a99","63690f60c96a0a9a64b48fbc","6369156a200954e2d931dfde","666","","j","","","","","","","","./tasks/HMM-beads/Images/NewTrialWC.png","lowH","21","2","2","2","2","true","","","","","","","","","","","","","","","","",""
"image-keyboard-response","141","527937","0.0-4.0-6.0-1.0-1.21","5e127002fa3d108e61b09a99","63690f60c96a0a9a64b48fbc","6369156a200954e2d931dfde","null","","null","","","","","","","","./tasks/HMM-beads/Images/WhiteBeadChoice.png","","","","","","","","","","","","","","","","","","","","","","","",""
"image-keyboard-response","142","528440","0.0-4.0-6.0-1.0-2.21","5e127002fa3d108e61b09a99","63690f60c96a0a9a64b48fbc","6369156a200954e2d931dfde","null","","null","","","","","","","","./tasks/HMM-beads/Images/WhiteBeadChoiceCorrect.png","","","","","","","","","","","","","","","","","","","","","","","",""
"image-keyboard-response","143","529086","0.0-4.0-6.0-1.0-0.22","5e127002fa3d108e61b09a99","63690f60c96a0a9a64b48fbc","6369156a200954e2d931dfde","646","","j","","","","","","","","./tasks/HMM-beads/Images/NewTrialWC.png","lowH","22","2","2","2","2","true","","","","","","","","","","","","","","","","",""
"image-keyboard-response","144","529392","0.0-4.0-6.0-1.0-1.22","5e127002fa3d108e61b09a99","63690f60c96a0a9a64b48fbc","6369156a200954e2d931dfde","null","","null","","","","","","","","./tasks/HMM-beads/Images/WhiteBeadChoice.png","","","","","","","","","","","","","","","","","","","","","","","",""
"image-keyboard-response","145","529897","0.0-4.0-6.0-1.0-2.22","5e127002fa3d108e61b09a99","63690f60c96a0a9a64b48fbc","6369156a200954e2d931dfde","null","","null","","","","","","","","./tasks/HMM-beads/Images/WhiteBeadChoiceCorrect.png","","","","","","","","","","","","","","","","","","","","","","","",""
"image-keyboard-response","146","530359","0.0-4.0-6.0-1.0-0.23","5e127002fa3d108e61b09a99","63690f60c96a0a9a64b48fbc","6369156a200954e2d931dfde","462","","j","","","","","","","","./tasks/HMM-beads/Images/NewTrialWC.png","lowH","23","2","2","2","2","true","","","","","","","","","","","","","","","","",""
"image-keyboard-response","147","530667","0.0-4.0-6.0-1.0-1.23","5e127002fa3d108e61b09a99","63690f60c96a0a9a64b48fbc","6369156a200954e2d931dfde","null","","null","","","","","","","","./tasks/HMM-beads/Images/WhiteBeadChoice.png","","","","","","","","","","","","","","","","","","","","","","","",""
"image-keyboard-response","148","531178","0.0-4.0-6.0-1.0-2.23","5e127002fa3d108e61b09a99","63690f60c96a0a9a64b48fbc","6369156a200954e2d931dfde","null","","null","","","","","","","","./tasks/HMM-beads/Images/WhiteBeadChoiceCorrect.png","","","","","","","","","","","","","","","","","","","","","","","",""
"image-keyboard-response","149","531607","0.0-4.0-6.0-1.0-0.24","5e127002fa3d108e61b09a99","63690f60c96a0a9a64b48fbc","6369156a200954e2d931dfde","428","","j","","","","","","","","./tasks/HMM-beads/Images/NewTrialWC.png","lowH","24","2","2","2","2","true","","","","","","","","","","","","","","","","",""
"image-keyboard-response","150","531914","0.0-4.0-6.0-1.0-1.24","5e127002fa3d108e61b09a99","63690f60c96a0a9a64b48fbc","6369156a200954e2d931dfde","null","","null","","","","","","","","./tasks/HMM-beads/Images/WhiteBeadChoice.png","","","","","","","","","","","","","","","","","","","","","","","",""
"image-keyboard-response","151","532417","0.0-4.0-6.0-1.0-2.24","5e127002fa3d108e61b09a99","63690f60c96a0a9a64b48fbc","6369156a200954e2d931dfde","null","","null","","","","","","","","./tasks/HMM-beads/Images/WhiteBeadChoiceCorrect.png","","","","","","","","","","","","","","","","","","","","","","","",""
"image-keyboard-response","152","532732","0.0-4.0-6.0-1.0-0.25","5e127002fa3d108e61b09a99","63690f60c96a0a9a64b48fbc","6369156a200954e2d931dfde","314","","j","","","","","","","","./tasks/HMM-beads/Images/NewTrialWC.png","lowH","25","2","2","2","2","true","","","","","","","","","","","","","","","","",""
"image-keyboard-response","153","533040","0.0-4.0-6.0-1.0-1.25","5e127002fa3d108e61b09a99","63690f60c96a0a9a64b48fbc","6369156a200954e2d931dfde","null","","null","","","","","","","","./tasks/HMM-beads/Images/WhiteBeadChoice.png","","","","","","","","","","","","","","","","","","","","","","","",""
"image-keyboard-response","154","533547","0.0-4.0-6.0-1.0-2.25","5e127002fa3d108e61b09a99","63690f60c96a0a9a64b48fbc","6369156a200954e2d931dfde","null","","null","","","","","","","","./tasks/HMM-beads/Images/WhiteBeadChoiceCorrect.png","","","","","","","","","","","","","","","","","","","","","","","",""
"image-keyboard-response","155","533920","0.0-4.0-6.0-1.0-0.26","5e127002fa3d108e61b09a99","63690f60c96a0a9a64b48fbc","6369156a200954e2d931dfde","373","","j","","","","","","","","./tasks/HMM-beads/Images/NewTrialWC.png","lowH","26","2","2","2","2","true","","","","","","","","","","","","","","","","",""
"image-keyboard-response","156","534227","0.0-4.0-6.0-1.0-1.26","5e127002fa3d108e61b09a99","63690f60c96a0a9a64b48fbc","6369156a200954e2d931dfde","null","","null","","","","","","","","./tasks/HMM-beads/Images/WhiteBeadChoice.png","","","","","","","","","","","","","","","","","","","","","","","",""
"image-keyboard-response","157","534735","0.0-4.0-6.0-1.0-2.26","5e127002fa3d108e61b09a99","63690f60c96a0a9a64b48fbc","6369156a200954e2d931dfde","null","","null","","","","","","","","./tasks/HMM-beads/Images/WhiteBeadChoiceCorrect.png","","","","","","","","","","","","","","","","","","","","","","","",""
"image-keyboard-response","158","535018","0.0-4.0-6.0-1.0-0.27","5e127002fa3d108e61b09a99","63690f60c96a0a9a64b48fbc","6369156a200954e2d931dfde","282","","j","","","","","","","","./tasks/HMM-beads/Images/NewTrialWC.png","lowH","27","2","2","2","2","true","","","","","","","","","","","","","","","","",""
"image-keyboard-response","159","535321","0.0-4.0-6.0-1.0-1.27","5e127002fa3d108e61b09a99","63690f60c96a0a9a64b48fbc","6369156a200954e2d931dfde","null","","null","","","","","","","","./tasks/HMM-beads/Images/WhiteBeadChoice.png","","","","","","","","","","","","","","","","","","","","","","","",""
"image-keyboard-response","160","535835","0.0-4.0-6.0-1.0-2.27","5e127002fa3d108e61b09a99","63690f60c96a0a9a64b48fbc","6369156a200954e2d931dfde","null","","null","","","","","","","","./tasks/HMM-beads/Images/WhiteBeadChoiceCorrect.png","","","","","","","","","","","","","","","","","","","","","","","",""
"image-keyboard-response","161","536336","0.0-4.0-6.0-1.0-0.28","5e127002fa3d108e61b09a99","63690f60c96a0a9a64b48fbc","6369156a200954e2d931dfde","501","","j","","","","","","","","./tasks/HMM-beads/Images/NewTrialWC.png","lowH","28","2","2","2","2","true","","","","","","","","","","","","","","","","",""
"image-keyboard-response","162","536641","0.0-4.0-6.0-1.0-1.28","5e127002fa3d108e61b09a99","63690f60c96a0a9a64b48fbc","6369156a200954e2d931dfde","null","","null","","","","","","","","./tasks/HMM-beads/Images/WhiteBeadChoice.png","","","","","","","","","","","","","","","","","","","","","","","",""
"image-keyboard-response","163","537145","0.0-4.0-6.0-1.0-2.28","5e127002fa3d108e61b09a99","63690f60c96a0a9a64b48fbc","6369156a200954e2d931dfde","null","","null","","","","","","","","./tasks/HMM-beads/Images/WhiteBeadChoiceCorrect.png","","","","","","","","","","","","","","","","","","","","","","","",""
"image-keyboard-response","164","537614","0.0-4.0-6.0-1.0-0.29","5e127002fa3d108e61b09a99","63690f60c96a0a9a64b48fbc","6369156a200954e2d931dfde","469","","j","","","","","","","","./tasks/HMM-beads/Images/NewTrialWC.png","lowH","29","2","1","2","2","false","","","","","","","","","","","","","","","","",""
"image-keyboard-response","165","537921","0.0-4.0-6.0-1.0-1.29","5e127002fa3d108e61b09a99","63690f60c96a0a9a64b48fbc","6369156a200954e2d931dfde","null","","null","","","","","","","","./tasks/HMM-beads/Images/WhiteBeadChoice.png","","","","","","","","","","","","","","","","","","","","","","","",""
"image-keyboard-response","166","538424","0.0-4.0-6.0-1.0-2.29","5e127002fa3d108e61b09a99","63690f60c96a0a9a64b48fbc","6369156a200954e2d931dfde","null","","null","","","","","","","","./tasks/HMM-beads/Images/WhiteBeadChoiceWrong.png","","","","","","","","","","","","","","","","","","","","","","","",""
"image-keyboard-response","167","541555","0.0-4.0-6.0-1.0-0.30","5e127002fa3d108e61b09a99","63690f60c96a0a9a64b48fbc","6369156a200954e2d931dfde","3130","","f","","","","","","","","./tasks/HMM-beads/Images/NewTrialBC.png","lowH","30","2","2","1","1","false","","","","","","","","","","","","","","","","",""
"image-keyboard-response","168","541867","0.0-4.0-6.0-1.0-1.30","5e127002fa3d108e61b09a99","63690f60c96a0a9a64b48fbc","6369156a200954e2d931dfde","null","","null","","","","","","","","./tasks/HMM-beads/Images/BlackBeadChoice.png","","","","","","","","","","","","","","","","","","","","","","","",""
"image-keyboard-response","169","542378","0.0-4.0-6.0-1.0-2.30","5e127002fa3d108e61b09a99","63690f60c96a0a9a64b48fbc","6369156a200954e2d931dfde","null","","null","","","","","","","","./tasks/HMM-beads/Images/BlackBeadChoiceWrong.png","","","","","","","","","","","","","","","","","","","","","","","",""
"image-keyboard-response","170","542881","0.0-4.0-6.0-1.0-0.31","5e127002fa3d108e61b09a99","63690f60c96a0a9a64b48fbc","6369156a200954e2d931dfde","503","","j","","","","","","","","./tasks/HMM-beads/Images/NewTrialWC.png","lowH","31","2","1","2","2","false","","","","","","","","","","","","","","","","",""
"image-keyboard-response","171","543184","0.0-4.0-6.0-1.0-1.31","5e127002fa3d108e61b09a99","63690f60c96a0a9a64b48fbc","6369156a200954e2d931dfde","null","","null","","","","","","","","./tasks/HMM-beads/Images/WhiteBeadChoice.png","","","","","","","","","","","","","","","","","","","","","","","",""
"image-keyboard-response","172","543692","0.0-4.0-6.0-1.0-2.31","5e127002fa3d108e61b09a99","63690f60c96a0a9a64b48fbc","6369156a200954e2d931dfde","null","","null","","","","","","","","./tasks/HMM-beads/Images/WhiteBeadChoiceWrong.png","","","","","","","","","","","","","","","","","","","","","","","",""
"image-keyboard-response","173","544273","0.0-4.0-6.0-1.0-0.32","5e127002fa3d108e61b09a99","63690f60c96a0a9a64b48fbc","6369156a200954e2d931dfde","576","","j","","","","","","","","./tasks/HMM-beads/Images/NewTrialBC.png","lowH","32","2","2","1","2","true","","","","","","","","","","","","","","","","",""
"image-keyboard-response","174","544579","0.0-4.0-6.0-1.0-1.32","5e127002fa3d108e61b09a99","63690f60c96a0a9a64b48fbc","6369156a200954e2d931dfde","null","","null","","","","","","","","./tasks/HMM-beads/Images/WhiteBeadChoice.png","","","","","","","","","","","","","","","","","","","","","","","",""
"image-keyboard-response","175","545090","0.0-4.0-6.0-1.0-2.32","5e127002fa3d108e61b09a99","63690f60c96a0a9a64b48fbc","6369156a200954e2d931dfde","null","","null","","","","","","","","./tasks/HMM-beads/Images/WhiteBeadChoiceCorrect.png","","","","","","","","","","","","","","","","","","","","","","","",""
"image-keyboard-response","176","545725","0.0-4.0-6.0-1.0-0.33","5e127002fa3d108e61b09a99","63690f60c96a0a9a64b48fbc","6369156a200954e2d931dfde","634","","j","","","","","","","","./tasks/HMM-beads/Images/NewTrialWC.png","lowH","33","2","2","2","2","true","","","","","","","","","","","","","","","","",""
"image-keyboard-response","177","546034","0.0-4.0-6.0-1.0-1.33","5e127002fa3d108e61b09a99","63690f60c96a0a9a64b48fbc","6369156a200954e2d931dfde","null","","null","","","","","","","","./tasks/HMM-beads/Images/WhiteBeadChoice.png","","","","","","","","","","","","","","","","","","","","","","","",""
"image-keyboard-response","178","546538","0.0-4.0-6.0-1.0-2.33","5e127002fa3d108e61b09a99","63690f60c96a0a9a64b48fbc","6369156a200954e2d931dfde","null","","null","","","","","","","","./tasks/HMM-beads/Images/WhiteBeadChoiceCorrect.png","","","","","","","","","","","","","","","","","","","","","","","",""
"image-keyboard-response","179","547052","0.0-4.0-6.0-1.0-0.34","5e127002fa3d108e61b09a99","63690f60c96a0a9a64b48fbc","6369156a200954e2d931dfde","513","","j","","","","","","","","./tasks/HMM-beads/Images/NewTrialWC.png","lowH","34","2","2","2","2","true","","","","","","","","","","","","","","","","",""
"image-keyboard-response","180","547361","0.0-4.0-6.0-1.0-1.34","5e127002fa3d108e61b09a99","63690f60c96a0a9a64b48fbc","6369156a200954e2d931dfde","null","","null","","","","","","","","./tasks/HMM-beads/Images/WhiteBeadChoice.png","","","","","","","","","","","","","","","","","","","","","","","",""
"image-keyboard-response","181","547867","0.0-4.0-6.0-1.0-2.34","5e127002fa3d108e61b09a99","63690f60c96a0a9a64b48fbc","6369156a200954e2d931dfde","null","","null","","","","","","","","./tasks/HMM-beads/Images/WhiteBeadChoiceCorrect.png","","","","","","","","","","","","","","","","","","","","","","","",""
"image-keyboard-response","182","548414","0.0-4.0-6.0-1.0-0.35","5e127002fa3d108e61b09a99","63690f60c96a0a9a64b48fbc","6369156a200954e2d931dfde","546","","j","","","","","","","","./tasks/HMM-beads/Images/NewTrialWC.png","lowH","35","2","2","2","2","true","","","","","","","","","","","","","","","","",""
"image-keyboard-response","183","548729","0.0-4.0-6.0-1.0-1.35","5e127002fa3d108e61b09a99","63690f60c96a0a9a64b48fbc","6369156a200954e2d931dfde","null","","null","","","","","","","","./tasks/HMM-beads/Images/WhiteBeadChoice.png","","","","","","","","","","","","","","","","","","","","","","","",""
"image-keyboard-response","184","549234","0.0-4.0-6.0-1.0-2.35","5e127002fa3d108e61b09a99","63690f60c96a0a9a64b48fbc","6369156a200954e2d931dfde","null","","null","","","","","","","","./tasks/HMM-beads/Images/WhiteBeadChoiceCorrect.png","","","","","","","","","","","","","","","","","","","","","","","",""
"image-keyboard-response","185","549596","0.0-4.0-6.0-1.0-0.36","5e127002fa3d108e61b09a99","63690f60c96a0a9a64b48fbc","6369156a200954e2d931dfde","362","","j","","","","","","","","./tasks/HMM-beads/Images/NewTrialWC.png","lowH","36","2","2","2","2","true","","","","","","","","","","","","","","","","",""
"image-keyboard-response","186","549907","0.0-4.0-6.0-1.0-1.36","5e127002fa3d108e61b09a99","63690f60c96a0a9a64b48fbc","6369156a200954e2d931dfde","null","","null","","","","","","","","./tasks/HMM-beads/Images/WhiteBeadChoice.png","","","","","","","","","","","","","","","","","","","","","","","",""
"image-keyboard-response","187","550420","0.0-4.0-6.0-1.0-2.36","5e127002fa3d108e61b09a99","63690f60c96a0a9a64b48fbc","6369156a200954e2d931dfde","null","","null","","","","","","","","./tasks/HMM-beads/Images/WhiteBeadChoiceCorrect.png","","","","","","","","","","","","","","","","","","","","","","","",""
"image-keyboard-response","188","550699","0.0-4.0-6.0-1.0-0.37","5e127002fa3d108e61b09a99","63690f60c96a0a9a64b48fbc","6369156a200954e2d931dfde","278","","j","","","","","","","","./tasks/HMM-beads/Images/NewTrialWC.png","lowH","37","2","2","2","2","true","","","","","","","","","","","","","","","","",""
"image-keyboard-response","189","551012","0.0-4.0-6.0-1.0-1.37","5e127002fa3d108e61b09a99","63690f60c96a0a9a64b48fbc","6369156a200954e2d931dfde","null","","null","","","","","","","","./tasks/HMM-beads/Images/WhiteBeadChoice.png","","","","","","","","","","","","","","","","","","","","","","","",""
"image-keyboard-response","190","551521","0.0-4.0-6.0-1.0-2.37","5e127002fa3d108e61b09a99","63690f60c96a0a9a64b48fbc","6369156a200954e2d931dfde","null","","null","","","","","","","","./tasks/HMM-beads/Images/WhiteBeadChoiceCorrect.png","","","","","","","","","","","","","","","","","","","","","","","",""
"image-keyboard-response","191","551664","0.0-4.0-6.0-1.0-0.38","5e127002fa3d108e61b09a99","63690f60c96a0a9a64b48fbc","6369156a200954e2d931dfde","142","","j","","","","","","","","./tasks/HMM-beads/Images/NewTrialWC.png","lowH","38","2","2","2","2","true","","","","","","","","","","","","","","","","",""
"image-keyboard-response","192","551968","0.0-4.0-6.0-1.0-1.38","5e127002fa3d108e61b09a99","63690f60c96a0a9a64b48fbc","6369156a200954e2d931dfde","null","","null","","","","","","","","./tasks/HMM-beads/Images/WhiteBeadChoice.png","","","","","","","","","","","","","","","","","","","","","","","",""
"image-keyboard-response","193","552473","0.0-4.0-6.0-1.0-2.38","5e127002fa3d108e61b09a99","63690f60c96a0a9a64b48fbc","6369156a200954e2d931dfde","null","","null","","","","","","","","./tasks/HMM-beads/Images/WhiteBeadChoiceCorrect.png","","","","","","","","","","","","","","","","","","","","","","","",""
"image-keyboard-response","194","552793","0.0-4.0-6.0-1.0-0.39","5e127002fa3d108e61b09a99","63690f60c96a0a9a64b48fbc","6369156a200954e2d931dfde","319","","j","","","","","","","","./tasks/HMM-beads/Images/NewTrialWC.png","lowH","39","2","1","2","2","false","","","","","","","","","","","","","","","","",""
"image-keyboard-response","195","553100","0.0-4.0-6.0-1.0-1.39","5e127002fa3d108e61b09a99","63690f60c96a0a9a64b48fbc","6369156a200954e2d931dfde","null","","null","","","","","","","","./tasks/HMM-beads/Images/WhiteBeadChoice.png","","","","","","","","","","","","","","","","","","","","","","","",""
"image-keyboard-response","196","553612","0.0-4.0-6.0-1.0-2.39","5e127002fa3d108e61b09a99","63690f60c96a0a9a64b48fbc","6369156a200954e2d931dfde","null","","null","","","","","","","","./tasks/HMM-beads/Images/WhiteBeadChoiceWrong.png","","","","","","","","","","","","","","","","","","","","","","","",""
"image-keyboard-response","197","554183","0.0-4.0-6.0-1.0-0.40","5e127002fa3d108e61b09a99","63690f60c96a0a9a64b48fbc","6369156a200954e2d931dfde","570","","j","","","","","","","","./tasks/HMM-beads/Images/NewTrialBC.png","lowH","40","2","2","1","2","true","","","","","","","","","","","","","","","","",""
"image-keyboard-response","198","554489","0.0-4.0-6.0-1.0-1.40","5e127002fa3d108e61b09a99","63690f60c96a0a9a64b48fbc","6369156a200954e2d931dfde","null","","null","","","","","","","","./tasks/HMM-beads/Images/WhiteBeadChoice.png","","","","","","","","","","","","","","","","","","","","","","","",""
"image-keyboard-response","199","554991","0.0-4.0-6.0-1.0-2.40","5e127002fa3d108e61b09a99","63690f60c96a0a9a64b48fbc","6369156a200954e2d931dfde","null","","null","","","","","","","","./tasks/HMM-beads/Images/WhiteBeadChoiceCorrect.png","","","","","","","","","","","","","","","","","","","","","","","",""
"image-keyboard-response","200","555446","0.0-4.0-6.0-1.0-0.41","5e127002fa3d108e61b09a99","63690f60c96a0a9a64b48fbc","6369156a200954e2d931dfde","453","","j","","","","","","","","./tasks/HMM-beads/Images/NewTrialWC.png","lowH","41","2","1","2","2","false","","","","","","","","","","","","","","","","",""
"image-keyboard-response","201","555752","0.0-4.0-6.0-1.0-1.41","5e127002fa3d108e61b09a99","63690f60c96a0a9a64b48fbc","6369156a200954e2d931dfde","null","","null","","","","","","","","./tasks/HMM-beads/Images/WhiteBeadChoice.png","","","","","","","","","","","","","","","","","","","","","","","",""
"image-keyboard-response","202","556261","0.0-4.0-6.0-1.0-2.41","5e127002fa3d108e61b09a99","63690f60c96a0a9a64b48fbc","6369156a200954e2d931dfde","null","","null","","","","","","","","./tasks/HMM-beads/Images/WhiteBeadChoiceWrong.png","","","","","","","","","","","","","","","","","","","","","","","",""
"image-keyboard-response","203","556728","0.0-4.0-6.0-1.0-0.42","5e127002fa3d108e61b09a99","63690f60c96a0a9a64b48fbc","6369156a200954e2d931dfde","466","","j","","","","","","","","./tasks/HMM-beads/Images/NewTrialBC.png","lowH","42","2","1","1","2","false","","","","","","","","","","","","","","","","",""
"image-keyboard-response","204","557034","0.0-4.0-6.0-1.0-1.42","5e127002fa3d108e61b09a99","63690f60c96a0a9a64b48fbc","6369156a200954e2d931dfde","null","","null","","","","","","","","./tasks/HMM-beads/Images/WhiteBeadChoice.png","","","","","","","","","","","","","","","","","","","","","","","",""
"image-keyboard-response","205","557537","0.0-4.0-6.0-1.0-2.42","5e127002fa3d108e61b09a99","63690f60c96a0a9a64b48fbc","6369156a200954e2d931dfde","null","","null","","","","","","","","./tasks/HMM-beads/Images/WhiteBeadChoiceWrong.png","","","","","","","","","","","","","","","","","","","","","","","",""
"image-keyboard-response","206","558032","0.0-4.0-6.0-1.0-0.43","5e127002fa3d108e61b09a99","63690f60c96a0a9a64b48fbc","6369156a200954e2d931dfde","494","","j","","","","","","","","./tasks/HMM-beads/Images/NewTrialBC.png","lowH","43","2","2","1","2","true","","","","","","","","","","","","","","","","",""
"image-keyboard-response","207","558337","0.0-4.0-6.0-1.0-1.43","5e127002fa3d108e61b09a99","63690f60c96a0a9a64b48fbc","6369156a200954e2d931dfde","null","","null","","","","","","","","./tasks/HMM-beads/Images/WhiteBeadChoice.png","","","","","","","","","","","","","","","","","","","","","","","",""
"image-keyboard-response","208","558839","0.0-4.0-6.0-1.0-2.43","5e127002fa3d108e61b09a99","63690f60c96a0a9a64b48fbc","6369156a200954e2d931dfde","null","","null","","","","","","","","./tasks/HMM-beads/Images/WhiteBeadChoiceCorrect.png","","","","","","","","","","","","","","","","","","","","","","","",""
"image-keyboard-response","209","559344","0.0-4.0-6.0-1.0-0.44","5e127002fa3d108e61b09a99","63690f60c96a0a9a64b48fbc","6369156a200954e2d931dfde","503","","j","","","","","","","","./tasks/HMM-beads/Images/NewTrialWC.png","lowH","44","2","2","2","2","true","","","","","","","","","","","","","","","","",""
"image-keyboard-response","210","559650","0.0-4.0-6.0-1.0-1.44","5e127002fa3d108e61b09a99","63690f60c96a0a9a64b48fbc","6369156a200954e2d931dfde","null","","null","","","","","","","","./tasks/HMM-beads/Images/WhiteBeadChoice.png","","","","","","","","","","","","","","","","","","","","","","","",""
"image-keyboard-response","211","560160","0.0-4.0-6.0-1.0-2.44","5e127002fa3d108e61b09a99","63690f60c96a0a9a64b48fbc","6369156a200954e2d931dfde","null","","null","","","","","","","","./tasks/HMM-beads/Images/WhiteBeadChoiceCorrect.png","","","","","","","","","","","","","","","","","","","","","","","",""
"image-keyboard-response","212","560620","0.0-4.0-6.0-1.0-0.45","5e127002fa3d108e61b09a99","63690f60c96a0a9a64b48fbc","6369156a200954e2d931dfde","459","","j","","","","","","","","./tasks/HMM-beads/Images/NewTrialWC.png","lowH","45","2","1","2","2","false","","","","","","","","","","","","","","","","",""
"image-keyboard-response","213","560932","0.0-4.0-6.0-1.0-1.45","5e127002fa3d108e61b09a99","63690f60c96a0a9a64b48fbc","6369156a200954e2d931dfde","null","","null","","","","","","","","./tasks/HMM-beads/Images/WhiteBeadChoice.png","","","","","","","","","","","","","","","","","","","","","","","",""
"image-keyboard-response","214","561442","0.0-4.0-6.0-1.0-2.45","5e127002fa3d108e61b09a99","63690f60c96a0a9a64b48fbc","6369156a200954e2d931dfde","null","","null","","","","","","","","./tasks/HMM-beads/Images/WhiteBeadChoiceWrong.png","","","","","","","","","","","","","","","","","","","","","","","",""
"image-keyboard-response","215","561964","0.0-4.0-6.0-1.0-0.46","5e127002fa3d108e61b09a99","63690f60c96a0a9a64b48fbc","6369156a200954e2d931dfde","522","","j","","","","","","","","./tasks/HMM-beads/Images/NewTrialBC.png","lowH","46","2","2","1","2","true","","","","","","","","","","","","","","","","",""
"image-keyboard-response","216","562276","0.0-4.0-6.0-1.0-1.46","5e127002fa3d108e61b09a99","63690f60c96a0a9a64b48fbc","6369156a200954e2d931dfde","null","","null","","","","","","","","./tasks/HMM-beads/Images/WhiteBeadChoice.png","","","","","","","","","","","","","","","","","","","","","","","",""
"image-keyboard-response","217","562784","0.0-4.0-6.0-1.0-2.46","5e127002fa3d108e61b09a99","63690f60c96a0a9a64b48fbc","6369156a200954e2d931dfde","null","","null","","","","","","","","./tasks/HMM-beads/Images/WhiteBeadChoiceCorrect.png","","","","","","","","","","","","","","","","","","","","","","","",""
"image-keyboard-response","218","563229","0.0-4.0-6.0-1.0-0.47","5e127002fa3d108e61b09a99","63690f60c96a0a9a64b48fbc","6369156a200954e2d931dfde","444","","j","","","","","","","","./tasks/HMM-beads/Images/NewTrialWC.png","lowH","47","2","2","2","2","true","","","","","","","","","","","","","","","","",""
"image-keyboard-response","219","563537","0.0-4.0-6.0-1.0-1.47","5e127002fa3d108e61b09a99","63690f60c96a0a9a64b48fbc","6369156a200954e2d931dfde","null","","null","","","","","","","","./tasks/HMM-beads/Images/WhiteBeadChoice.png","","","","","","","","","","","","","","","","","","","","","","","",""
"image-keyboard-response","220","564043","0.0-4.0-6.0-1.0-2.47","5e127002fa3d108e61b09a99","63690f60c96a0a9a64b48fbc","6369156a200954e2d931dfde","null","","null","","","","","","","","./tasks/HMM-beads/Images/WhiteBeadChoiceCorrect.png","","","","","","","","","","","","","","","","","","","","","","","",""
"image-keyboard-response","221","564542","0.0-4.0-6.0-1.0-0.48","5e127002fa3d108e61b09a99","63690f60c96a0a9a64b48fbc","6369156a200954e2d931dfde","498","","j","","","","","","","","./tasks/HMM-beads/Images/NewTrialWC.png","lowH","48","2","2","2","2","true","","","","","","","","","","","","","","","","",""
"image-keyboard-response","222","564850","0.0-4.0-6.0-1.0-1.48","5e127002fa3d108e61b09a99","63690f60c96a0a9a64b48fbc","6369156a200954e2d931dfde","null","","null","","","","","","","","./tasks/HMM-beads/Images/WhiteBeadChoice.png","","","","","","","","","","","","","","","","","","","","","","","",""
"image-keyboard-response","223","565353","0.0-4.0-6.0-1.0-2.48","5e127002fa3d108e61b09a99","63690f60c96a0a9a64b48fbc","6369156a200954e2d931dfde","null","","null","","","","","","","","./tasks/HMM-beads/Images/WhiteBeadChoiceCorrect.png","","","","","","","","","","","","","","","","","","","","","","","",""
"image-keyboard-response","224","565798","0.0-4.0-6.0-1.0-0.49","5e127002fa3d108e61b09a99","63690f60c96a0a9a64b48fbc","6369156a200954e2d931dfde","445","","j","","","","","","","","./tasks/HMM-beads/Images/NewTrialWC.png","lowH","49","2","2","2","2","true","","","","","","","","","","","","","","","","",""
"image-keyboard-response","225","566106","0.0-4.0-6.0-1.0-1.49","5e127002fa3d108e61b09a99","63690f60c96a0a9a64b48fbc","6369156a200954e2d931dfde","null","","null","","","","","","","","./tasks/HMM-beads/Images/WhiteBeadChoice.png","","","","","","","","","","","","","","","","","","","","","","","",""
"image-keyboard-response","226","566612","0.0-4.0-6.0-1.0-2.49","5e127002fa3d108e61b09a99","63690f60c96a0a9a64b48fbc","6369156a200954e2d931dfde","null","","null","","","","","","","","./tasks/HMM-beads/Images/WhiteBeadChoiceCorrect.png","","","","","","","","","","","","","","","","","","","","","","","",""
"image-keyboard-response","227","567044","0.0-4.0-6.0-1.0-0.50","5e127002fa3d108e61b09a99","63690f60c96a0a9a64b48fbc","6369156a200954e2d931dfde","430","","j","","","","","","","","./tasks/HMM-beads/Images/NewTrialWC.png","lowH","50","2","1","2","2","false","","","","","","","","","","","","","","","","",""
"image-keyboard-response","228","567352","0.0-4.0-6.0-1.0-1.50","5e127002fa3d108e61b09a99","63690f60c96a0a9a64b48fbc","6369156a200954e2d931dfde","null","","null","","","","","","","","./tasks/HMM-beads/Images/WhiteBeadChoice.png","","","","","","","","","","","","","","","","","","","","","","","",""
"image-keyboard-response","229","567861","0.0-4.0-6.0-1.0-2.50","5e127002fa3d108e61b09a99","63690f60c96a0a9a64b48fbc","6369156a200954e2d931dfde","null","","null","","","","","","","","./tasks/HMM-beads/Images/WhiteBeadChoiceWrong.png","","","","","","","","","","","","","","","","","","","","","","","",""
"image-keyboard-response","230","568274","0.0-4.0-6.0-1.0-0.51","5e127002fa3d108e61b09a99","63690f60c96a0a9a64b48fbc","6369156a200954e2d931dfde","413","","j","","","","","","","","./tasks/HMM-beads/Images/NewTrialBC.png","lowH","51","2","1","1","2","false","","","","","","","","","","","","","","","","",""
"image-keyboard-response","231","568579","0.0-4.0-6.0-1.0-1.51","5e127002fa3d108e61b09a99","63690f60c96a0a9a64b48fbc","6369156a200954e2d931dfde","null","","null","","","","","","","","./tasks/HMM-beads/Images/WhiteBeadChoice.png","","","","","","","","","","","","","","","","","","","","","","","",""
"image-keyboard-response","232","569090","0.0-4.0-6.0-1.0-2.51","5e127002fa3d108e61b09a99","63690f60c96a0a9a64b48fbc","6369156a200954e2d931dfde","null","","null","","","","","","","","./tasks/HMM-beads/Images/WhiteBeadChoiceWrong.png","","","","","","","","","","","","","","","","","","","","","","","",""
"image-keyboard-response","233","569341","0.0-4.0-6.0-1.0-0.52","5e127002fa3d108e61b09a99","63690f60c96a0a9a64b48fbc","6369156a200954e2d931dfde","250","","j","","","","","","","","./tasks/HMM-beads/Images/NewTrialBC.png","lowH","52","2","2","1","2","true","","","","","","","","","","","","","","","","",""
"image-keyboard-response","234","569650","0.0-4.0-6.0-1.0-1.52","5e127002fa3d108e61b09a99","63690f60c96a0a9a64b48fbc","6369156a200954e2d931dfde","null","","null","","","","","","","","./tasks/HMM-beads/Images/WhiteBeadChoice.png","","","","","","","","","","","","","","","","","","","","","","","",""
"image-keyboard-response","235","570156","0.0-4.0-6.0-1.0-2.52","5e127002fa3d108e61b09a99","63690f60c96a0a9a64b48fbc","6369156a200954e2d931dfde","null","","null","","","","","","","","./tasks/HMM-beads/Images/WhiteBeadChoiceCorrect.png","","","","","","","","","","","","","","","","","","","","","","","",""
"image-keyboard-response","236","570572","0.0-4.0-6.0-1.0-0.53","5e127002fa3d108e61b09a99","63690f60c96a0a9a64b48fbc","6369156a200954e2d931dfde","415","","j","","","","","","","","./tasks/HMM-beads/Images/NewTrialWC.png","lowH","53","2","2","2","2","true","","","","","","","","","","","","","","","","",""
"image-keyboard-response","237","570884","0.0-4.0-6.0-1.0-1.53","5e127002fa3d108e61b09a99","63690f60c96a0a9a64b48fbc","6369156a200954e2d931dfde","null","","null","","","","","","","","./tasks/HMM-beads/Images/WhiteBeadChoice.png","","","","","","","","","","","","","","","","","","","","","","","",""
"image-keyboard-response","238","571393","0.0-4.0-6.0-1.0-2.53","5e127002fa3d108e61b09a99","63690f60c96a0a9a64b48fbc","6369156a200954e2d931dfde","null","","null","","","","","","","","./tasks/HMM-beads/Images/WhiteBeadChoiceCorrect.png","","","","","","","","","","","","","","","","","","","","","","","",""
"image-keyboard-response","239","571755","0.0-4.0-6.0-1.0-0.54","5e127002fa3d108e61b09a99","63690f60c96a0a9a64b48fbc","6369156a200954e2d931dfde","361","","j","","","","","","","","./tasks/HMM-beads/Images/NewTrialWC.png","lowH","54","2","2","2","2","true","","","","","","","","","","","","","","","","",""
"image-keyboard-response","240","572067","0.0-4.0-6.0-1.0-1.54","5e127002fa3d108e61b09a99","63690f60c96a0a9a64b48fbc","6369156a200954e2d931dfde","null","","null","","","","","","","","./tasks/HMM-beads/Images/WhiteBeadChoice.png","","","","","","","","","","","","","","","","","","","","","","","",""
"image-keyboard-response","241","572578","0.0-4.0-6.0-1.0-2.54","5e127002fa3d108e61b09a99","63690f60c96a0a9a64b48fbc","6369156a200954e2d931dfde","null","","null","","","","","","","","./tasks/HMM-beads/Images/WhiteBeadChoiceCorrect.png","","","","","","","","","","","","","","","","","","","","","","","",""
"image-keyboard-response","242","572925","0.0-4.0-6.0-1.0-0.55","5e127002fa3d108e61b09a99","63690f60c96a0a9a64b48fbc","6369156a200954e2d931dfde","346","","j","","","","","","","","./tasks/HMM-beads/Images/NewTrialWC.png","lowH","55","2","2","2","2","true","","","","","","","","","","","","","","","","",""
"image-keyboard-response","243","573234","0.0-4.0-6.0-1.0-1.55","5e127002fa3d108e61b09a99","63690f60c96a0a9a64b48fbc","6369156a200954e2d931dfde","null","","null","","","","","","","","./tasks/HMM-beads/Images/WhiteBeadChoice.png","","","","","","","","","","","","","","","","","","","","","","","",""
"image-keyboard-response","244","573739","0.0-4.0-6.0-1.0-2.55","5e127002fa3d108e61b09a99","63690f60c96a0a9a64b48fbc","6369156a200954e2d931dfde","null","","null","","","","","","","","./tasks/HMM-beads/Images/WhiteBeadChoiceCorrect.png","","","","","","","","","","","","","","","","","","","","","","","",""
"image-keyboard-response","245","574007","0.0-4.0-6.0-1.0-0.56","5e127002fa3d108e61b09a99","63690f60c96a0a9a64b48fbc","6369156a200954e2d931dfde","267","","j","","","","","","","","./tasks/HMM-beads/Images/NewTrialWC.png","lowH","56","2","1","2","2","false","","","","","","","","","","","","","","","","",""
"image-keyboard-response","246","574312","0.0-4.0-6.0-1.0-1.56","5e127002fa3d108e61b09a99","63690f60c96a0a9a64b48fbc","6369156a200954e2d931dfde","null","","null","","","","","","","","./tasks/HMM-beads/Images/WhiteBeadChoice.png","","","","","","","","","","","","","","","","","","","","","","","",""
"image-keyboard-response","247","574823","0.0-4.0-6.0-1.0-2.56","5e127002fa3d108e61b09a99","63690f60c96a0a9a64b48fbc","6369156a200954e2d931dfde","null","","null","","","","","","","","./tasks/HMM-beads/Images/WhiteBeadChoiceWrong.png","","","","","","","","","","","","","","","","","","","","","","","",""
"image-keyboard-response","248","575107","0.0-4.0-6.0-1.0-0.57","5e127002fa3d108e61b09a99","63690f60c96a0a9a64b48fbc","6369156a200954e2d931dfde","283","","j","","","","","","","","./tasks/HMM-beads/Images/NewTrialBC.png","lowH","57","2","2","1","2","true","","","","","","","","","","","","","","","","",""
"image-keyboard-response","249","575417","0.0-4.0-6.0-1.0-1.57","5e127002fa3d108e61b09a99","63690f60c96a0a9a64b48fbc","6369156a200954e2d931dfde","null","","null","","","","","","","","./tasks/HMM-beads/Images/WhiteBeadChoice.png","","","","","","","","","","","","","","","","","","","","","","","",""
"image-keyboard-response","250","575924","0.0-4.0-6.0-1.0-2.57","5e127002fa3d108e61b09a99","63690f60c96a0a9a64b48fbc","6369156a200954e2d931dfde","null","","null","","","","","","","","./tasks/HMM-beads/Images/WhiteBeadChoiceCorrect.png","","","","","","","","","","","","","","","","","","","","","","","",""
"image-keyboard-response","251","576200","0.0-4.0-6.0-1.0-0.58","5e127002fa3d108e61b09a99","63690f60c96a0a9a64b48fbc","6369156a200954e2d931dfde","275","","j","","","","","","","","./tasks/HMM-beads/Images/NewTrialWC.png","lowH","58","2","1","2","2","false","","","","","","","","","","","","","","","","",""
"image-keyboard-response","252","576504","0.0-4.0-6.0-1.0-1.58","5e127002fa3d108e61b09a99","63690f60c96a0a9a64b48fbc","6369156a200954e2d931dfde","null","","null","","","","","","","","./tasks/HMM-beads/Images/WhiteBeadChoice.png","","","","","","","","","","","","","","","","","","","","","","","",""
"image-keyboard-response","253","577012","0.0-4.0-6.0-1.0-2.58","5e127002fa3d108e61b09a99","63690f60c96a0a9a64b48fbc","6369156a200954e2d931dfde","null","","null","","","","","","","","./tasks/HMM-beads/Images/WhiteBeadChoiceWrong.png","","","","","","","","","","","","","","","","","","","","","","","",""
"image-keyboard-response","254","577765","0.0-4.0-6.0-1.0-0.59","5e127002fa3d108e61b09a99","63690f60c96a0a9a64b48fbc","6369156a200954e2d931dfde","752","","f","","","","","","","","./tasks/HMM-beads/Images/NewTrialBC.png","lowH","59","2","1","1","1","true","","","","","","","","","","","","","","","","",""
"image-keyboard-response","255","578074","0.0-4.0-6.0-1.0-1.59","5e127002fa3d108e61b09a99","63690f60c96a0a9a64b48fbc","6369156a200954e2d931dfde","null","","null","","","","","","","","./tasks/HMM-beads/Images/BlackBeadChoice.png","","","","","","","","","","","","","","","","","","","","","","","",""
"image-keyboard-response","256","578586","0.0-4.0-6.0-1.0-2.59","5e127002fa3d108e61b09a99","63690f60c96a0a9a64b48fbc","6369156a200954e2d931dfde","null","","null","","","","","","","","./tasks/HMM-beads/Images/BlackBeadChoiceCorrect.png","","","","","","","","","","","","","","","","","","","","","","","",""
"image-keyboard-response","257","579033","0.0-4.0-6.0-1.0-0.60","5e127002fa3d108e61b09a99","63690f60c96a0a9a64b48fbc","6369156a200954e2d931dfde","446","","f","","","","","","","","./tasks/HMM-beads/Images/NewTrialBC.png","lowH","60","2","2","1","1","false","","","","","","","","","","","","","","","","",""
"image-keyboard-response","258","579336","0.0-4.0-6.0-1.0-1.60","5e127002fa3d108e61b09a99","63690f60c96a0a9a64b48fbc","6369156a200954e2d931dfde","null","","null","","","","","","","","./tasks/HMM-beads/Images/BlackBeadChoice.png","","","","","","","","","","","","","","","","","","","","","","","",""
"image-keyboard-response","259","579844","0.0-4.0-6.0-1.0-2.60","5e127002fa3d108e61b09a99","63690f60c96a0a9a64b48fbc","6369156a200954e2d931dfde","null","","null","","","","","","","","./tasks/HMM-beads/Images/BlackBeadChoiceWrong.png","","","","","","","","","","","","","","","","","","","","","","","",""
"image-keyboard-response","260","580167","0.0-4.0-6.0-1.0-0.61","5e127002fa3d108e61b09a99","63690f60c96a0a9a64b48fbc","6369156a200954e2d931dfde","322","","j","","","","","","","","./tasks/HMM-beads/Images/NewTrialWC.png","lowH","61","2","2","2","2","true","","","","","","","","","","","","","","","","",""
"image-keyboard-response","261","580474","0.0-4.0-6.0-1.0-1.61","5e127002fa3d108e61b09a99","63690f60c96a0a9a64b48fbc","6369156a200954e2d931dfde","null","","null","","","","","","","","./tasks/HMM-beads/Images/WhiteBeadChoice.png","","","","","","","","","","","","","","","","","","","","","","","",""
"image-keyboard-response","262","580979","0.0-4.0-6.0-1.0-2.61","5e127002fa3d108e61b09a99","63690f60c96a0a9a64b48fbc","6369156a200954e2d931dfde","null","","null","","","","","","","","./tasks/HMM-beads/Images/WhiteBeadChoiceCorrect.png","","","","","","","","","","","","","","","","","","","","","","","",""
"image-keyboard-response","263","581253","0.0-4.0-6.0-1.0-0.62","5e127002fa3d108e61b09a99","63690f60c96a0a9a64b48fbc","6369156a200954e2d931dfde","272","","j","","","","","","","","./tasks/HMM-beads/Images/NewTrialWC.png","lowH","62","2","2","2","2","true","","","","","","","","","","","","","","","","",""
"image-keyboard-response","264","581564","0.0-4.0-6.0-1.0-1.62","5e127002fa3d108e61b09a99","63690f60c96a0a9a64b48fbc","6369156a200954e2d931dfde","null","","null","","","","","","","","./tasks/HMM-beads/Images/WhiteBeadChoice.png","","","","","","","","","","","","","","","","","","","","","","","",""
"image-keyboard-response","265","582076","0.0-4.0-6.0-1.0-2.62","5e127002fa3d108e61b09a99","63690f60c96a0a9a64b48fbc","6369156a200954e2d931dfde","null","","null","","","","","","","","./tasks/HMM-beads/Images/WhiteBeadChoiceCorrect.png","","","","","","","","","","","","","","","","","","","","","","","",""
"image-keyboard-response","266","582322","0.0-4.0-6.0-1.0-0.63","5e127002fa3d108e61b09a99","63690f60c96a0a9a64b48fbc","6369156a200954e2d931dfde","244","","j","","","","","","","","./tasks/HMM-beads/Images/NewTrialWC.png","lowH","63","2","1","2","2","false","","","","","","","","","","","","","","","","",""
"image-keyboard-response","267","582624","0.0-4.0-6.0-1.0-1.63","5e127002fa3d108e61b09a99","63690f60c96a0a9a64b48fbc","6369156a200954e2d931dfde","null","","null","","","","","","","","./tasks/HMM-beads/Images/WhiteBeadChoice.png","","","","","","","","","","","","","","","","","","","","","","","",""
"image-keyboard-response","268","583131","0.0-4.0-6.0-1.0-2.63","5e127002fa3d108e61b09a99","63690f60c96a0a9a64b48fbc","6369156a200954e2d931dfde","null","","null","","","","","","","","./tasks/HMM-beads/Images/WhiteBeadChoiceWrong.png","","","","","","","","","","","","","","","","","","","","","","","",""
"image-keyboard-response","269","583455","0.0-4.0-6.0-1.0-0.64","5e127002fa3d108e61b09a99","63690f60c96a0a9a64b48fbc","6369156a200954e2d931dfde","323","","j","","","","","","","","./tasks/HMM-beads/Images/NewTrialBC.png","lowH","64","2","2","1","2","true","","","","","","","","","","","","","","","","",""
"image-keyboard-response","270","583769","0.0-4.0-6.0-1.0-1.64","5e127002fa3d108e61b09a99","63690f60c96a0a9a64b48fbc","6369156a200954e2d931dfde","null","","null","","","","","","","","./tasks/HMM-beads/Images/WhiteBeadChoice.png","","","","","","","","","","","","","","","","","","","","","","","",""
"image-keyboard-response","271","584275","0.0-4.0-6.0-1.0-2.64","5e127002fa3d108e61b09a99","63690f60c96a0a9a64b48fbc","6369156a200954e2d931dfde","null","","null","","","","","","","","./tasks/HMM-beads/Images/WhiteBeadChoiceCorrect.png","","","","","","","","","","","","","","","","","","","","","","","",""
"image-keyboard-response","272","584610","0.0-4.0-6.0-1.0-0.65","5e127002fa3d108e61b09a99","63690f60c96a0a9a64b48fbc","6369156a200954e2d931dfde","334","","j","","","","","","","","./tasks/HMM-beads/Images/NewTrialWC.png","lowH","65","2","2","2","2","true","","","","","","","","","","","","","","","","",""
"image-keyboard-response","273","584912","0.0-4.0-6.0-1.0-1.65","5e127002fa3d108e61b09a99","63690f60c96a0a9a64b48fbc","6369156a200954e2d931dfde","null","","null","","","","","","","","./tasks/HMM-beads/Images/WhiteBeadChoice.png","","","","","","","","","","","","","","","","","","","","","","","",""
"image-keyboard-response","274","585420","0.0-4.0-6.0-1.0-2.65","5e127002fa3d108e61b09a99","63690f60c96a0a9a64b48fbc","6369156a200954e2d931dfde","null","","null","","","","","","","","./tasks/HMM-beads/Images/WhiteBeadChoiceCorrect.png","","","","","","","","","","","","","","","","","","","","","","","",""
"image-keyboard-response","275","585755","0.0-4.0-6.0-1.0-0.66","5e127002fa3d108e61b09a99","63690f60c96a0a9a64b48fbc","6369156a200954e2d931dfde","334","","j","","","","","","","","./tasks/HMM-beads/Images/NewTrialWC.png","lowH","66","2","1","2","2","false","","","","","","","","","","","","","","","","",""
"image-keyboard-response","276","586067","0.0-4.0-6.0-1.0-1.66","5e127002fa3d108e61b09a99","63690f60c96a0a9a64b48fbc","6369156a200954e2d931dfde","null","","null","","","","","","","","./tasks/HMM-beads/Images/WhiteBeadChoice.png","","","","","","","","","","","","","","","","","","","","","","","",""
"image-keyboard-response","277","586577","0.0-4.0-6.0-1.0-2.66","5e127002fa3d108e61b09a99","63690f60c96a0a9a64b48fbc","6369156a200954e2d931dfde","null","","null","","","","","","","","./tasks/HMM-beads/Images/WhiteBeadChoiceWrong.png","","","","","","","","","","","","","","","","","","","","","","","",""
"image-keyboard-response","278","586860","0.0-4.0-6.0-1.0-0.67","5e127002fa3d108e61b09a99","63690f60c96a0a9a64b48fbc","6369156a200954e2d931dfde","283","","j","","","","","","","","./tasks/HMM-beads/Images/NewTrialBC.png","lowH","67","2","2","1","2","true","","","","","","","","","","","","","","","","",""
"image-keyboard-response","279","587169","0.0-4.0-6.0-1.0-1.67","5e127002fa3d108e61b09a99","63690f60c96a0a9a64b48fbc","6369156a200954e2d931dfde","null","","null","","","","","","","","./tasks/HMM-beads/Images/WhiteBeadChoice.png","","","","","","","","","","","","","","","","","","","","","","","",""
"image-keyboard-response","280","587672","0.0-4.0-6.0-1.0-2.67","5e127002fa3d108e61b09a99","63690f60c96a0a9a64b48fbc","6369156a200954e2d931dfde","null","","null","","","","","","","","./tasks/HMM-beads/Images/WhiteBeadChoiceCorrect.png","","","","","","","","","","","","","","","","","","","","","","","",""
"image-keyboard-response","281","587958","0.0-4.0-6.0-1.0-0.68","5e127002fa3d108e61b09a99","63690f60c96a0a9a64b48fbc","6369156a200954e2d931dfde","286","","j","","","","","","","","./tasks/HMM-beads/Images/NewTrialWC.png","lowH","68","2","2","2","2","true","","","","","","","","","","","","","","","","",""
"image-keyboard-response","282","588266","0.0-4.0-6.0-1.0-1.68","5e127002fa3d108e61b09a99","63690f60c96a0a9a64b48fbc","6369156a200954e2d931dfde","null","","null","","","","","","","","./tasks/HMM-beads/Images/WhiteBeadChoice.png","","","","","","","","","","","","","","","","","","","","","","","",""
"image-keyboard-response","283","588779","0.0-4.0-6.0-1.0-2.68","5e127002fa3d108e61b09a99","63690f60c96a0a9a64b48fbc","6369156a200954e2d931dfde","null","","null","","","","","","","","./tasks/HMM-beads/Images/WhiteBeadChoiceCorrect.png","","","","","","","","","","","","","","","","","","","","","","","",""
"image-keyboard-response","284","589025","0.0-4.0-6.0-1.0-0.69","5e127002fa3d108e61b09a99","63690f60c96a0a9a64b48fbc","6369156a200954e2d931dfde","245","","j","","","","","","","","./tasks/HMM-beads/Images/NewTrialWC.png","lowH","69","2","2","2","2","true","","","","","","","","","","","","","","","","",""
"image-keyboard-response","285","589330","0.0-4.0-6.0-1.0-1.69","5e127002fa3d108e61b09a99","63690f60c96a0a9a64b48fbc","6369156a200954e2d931dfde","null","","null","","","","","","","","./tasks/HMM-beads/Images/WhiteBeadChoice.png","","","","","","","","","","","","","","","","","","","","","","","",""
"image-keyboard-response","286","589839","0.0-4.0-6.0-1.0-2.69","5e127002fa3d108e61b09a99","63690f60c96a0a9a64b48fbc","6369156a200954e2d931dfde","null","","null","","","","","","","","./tasks/HMM-beads/Images/WhiteBeadChoiceCorrect.png","","","","","","","","","","","","","","","","","","","","","","","",""
"image-keyboard-response","287","590090","0.0-4.0-6.0-1.0-0.70","5e127002fa3d108e61b09a99","63690f60c96a0a9a64b48fbc","6369156a200954e2d931dfde","250","","j","","","","","","","","./tasks/HMM-beads/Images/NewTrialWC.png","lowH","70","2","2","2","2","true","","","","","","","","","","","","","","","","",""
"image-keyboard-response","288","590400","0.0-4.0-6.0-1.0-1.70","5e127002fa3d108e61b09a99","63690f60c96a0a9a64b48fbc","6369156a200954e2d931dfde","null","","null","","","","","","","","./tasks/HMM-beads/Images/WhiteBeadChoice.png","","","","","","","","","","","","","","","","","","","","","","","",""
"image-keyboard-response","289","590907","0.0-4.0-6.0-1.0-2.70","5e127002fa3d108e61b09a99","63690f60c96a0a9a64b48fbc","6369156a200954e2d931dfde","null","","null","","","","","","","","./tasks/HMM-beads/Images/WhiteBeadChoiceCorrect.png","","","","","","","","","","","","","","","","","","","","","","","",""
"image-keyboard-response","290","591075","0.0-4.0-6.0-1.0-0.71","5e127002fa3d108e61b09a99","63690f60c96a0a9a64b48fbc","6369156a200954e2d931dfde","167","","j","","","","","","","","./tasks/HMM-beads/Images/NewTrialWC.png","lowH","71","2","2","2","2","true","","","","","","","","","","","","","","","","",""
"image-keyboard-response","291","591387","0.0-4.0-6.0-1.0-1.71","5e127002fa3d108e61b09a99","63690f60c96a0a9a64b48fbc","6369156a200954e2d931dfde","null","","null","","","","","","","","./tasks/HMM-beads/Images/WhiteBeadChoice.png","","","","","","","","","","","","","","","","","","","","","","","",""
"image-keyboard-response","292","591900","0.0-4.0-6.0-1.0-2.71","5e127002fa3d108e61b09a99","63690f60c96a0a9a64b48fbc","6369156a200954e2d931dfde","null","","null","","","","","","","","./tasks/HMM-beads/Images/WhiteBeadChoiceCorrect.png","","","","","","","","","","","","","","","","","","","","","","","",""
"image-keyboard-response","293","592032","0.0-4.0-6.0-1.0-0.72","5e127002fa3d108e61b09a99","63690f60c96a0a9a64b48fbc","6369156a200954e2d931dfde","131","","j","","","","","","","","./tasks/HMM-beads/Images/NewTrialWC.png","lowH","72","2","1","2","2","false","","","","","","","","","","","","","","","","",""
"image-keyboard-response","294","592337","0.0-4.0-6.0-1.0-1.72","5e127002fa3d108e61b09a99","63690f60c96a0a9a64b48fbc","6369156a200954e2d931dfde","null","","null","","","","","","","","./tasks/HMM-beads/Images/WhiteBeadChoice.png","","","","","","","","","","","","","","","","","","","","","","","",""
"image-keyboard-response","295","592842","0.0-4.0-6.0-1.0-2.72","5e127002fa3d108e61b09a99","63690f60c96a0a9a64b48fbc","6369156a200954e2d931dfde","null","","null","","","","","","","","./tasks/HMM-beads/Images/WhiteBeadChoiceWrong.png","","","","","","","","","","","","","","","","","","","","","","","",""
"image-keyboard-response","296","593324","0.0-4.0-6.0-1.0-0.73","5e127002fa3d108e61b09a99","63690f60c96a0a9a64b48fbc","6369156a200954e2d931dfde","482","","f","","","","","","","","./tasks/HMM-beads/Images/NewTrialBC.png","lowH","73","2","2","1","1","false","","","","","","","","","","","","","","","","",""
"image-keyboard-response","297","593633","0.0-4.0-6.0-1.0-1.73","5e127002fa3d108e61b09a99","63690f60c96a0a9a64b48fbc","6369156a200954e2d931dfde","null","","null","","","","","","","","./tasks/HMM-beads/Images/BlackBeadChoice.png","","","","","","","","","","","","","","","","","","","","","","","",""
"image-keyboard-response","298","594136","0.0-4.0-6.0-1.0-2.73","5e127002fa3d108e61b09a99","63690f60c96a0a9a64b48fbc","6369156a200954e2d931dfde","null","","null","","","","","","","","./tasks/HMM-beads/Images/BlackBeadChoiceWrong.png","","","","","","","","","","","","","","","","","","","","","","","",""
"image-keyboard-response","299","594734","0.0-4.0-6.0-1.0-0.74","5e127002fa3d108e61b09a99","63690f60c96a0a9a64b48fbc","6369156a200954e2d931dfde","597","","j","","","","","","","","./tasks/HMM-beads/Images/NewTrialWC.png","lowH","74","2","1","2","2","false","","","","","","","","","","","","","","","","",""
"image-keyboard-response","300","595044","0.0-4.0-6.0-1.0-1.74","5e127002fa3d108e61b09a99","63690f60c96a0a9a64b48fbc","6369156a200954e2d931dfde","null","","null","","","","","","","","./tasks/HMM-beads/Images/WhiteBeadChoice.png","","","","","","","","","","","","","","","","","","","","","","","",""
"image-keyboard-response","301","595553","0.0-4.0-6.0-1.0-2.74","5e127002fa3d108e61b09a99","63690f60c96a0a9a64b48fbc","6369156a200954e2d931dfde","null","","null","","","","","","","","./tasks/HMM-beads/Images/WhiteBeadChoiceWrong.png","","","","","","","","","","","","","","","","","","","","","","","",""
"image-keyboard-response","302","595806","0.0-4.0-6.0-1.0-0.75","5e127002fa3d108e61b09a99","63690f60c96a0a9a64b48fbc","6369156a200954e2d931dfde","251","","f","","","","","","","","./tasks/HMM-beads/Images/NewTrialBC.png","lowH","75","2","2","1","1","false","","","","","","","","","","","","","","","","",""
"image-keyboard-response","303","596116","0.0-4.0-6.0-1.0-1.75","5e127002fa3d108e61b09a99","63690f60c96a0a9a64b48fbc","6369156a200954e2d931dfde","null","","null","","","","","","","","./tasks/HMM-beads/Images/BlackBeadChoice.png","","","","","","","","","","","","","","","","","","","","","","","",""
"image-keyboard-response","304","596624","0.0-4.0-6.0-1.0-2.75","5e127002fa3d108e61b09a99","63690f60c96a0a9a64b48fbc","6369156a200954e2d931dfde","null","","null","","","","","","","","./tasks/HMM-beads/Images/BlackBeadChoiceWrong.png","","","","","","","","","","","","","","","","","","","","","","","",""
"image-keyboard-response","305","596695","0.0-4.0-6.0-1.0-0.76","5e127002fa3d108e61b09a99","63690f60c96a0a9a64b48fbc","6369156a200954e2d931dfde","71","","j","","","","","","","","./tasks/HMM-beads/Images/NewTrialWC.png","lowH","76","2","1","2","2","false","","","","","","","","","","","","","","","","",""
"image-keyboard-response","306","597000","0.0-4.0-6.0-1.0-1.76","5e127002fa3d108e61b09a99","63690f60c96a0a9a64b48fbc","6369156a200954e2d931dfde","null","","null","","","","","","","","./tasks/HMM-beads/Images/WhiteBeadChoice.png","","","","","","","","","","","","","","","","","","","","","","","",""
"image-keyboard-response","307","597505","0.0-4.0-6.0-1.0-2.76","5e127002fa3d108e61b09a99","63690f60c96a0a9a64b48fbc","6369156a200954e2d931dfde","null","","null","","","","","","","","./tasks/HMM-beads/Images/WhiteBeadChoiceWrong.png","","","","","","","","","","","","","","","","","","","","","","","",""
"image-keyboard-response","308","597624","0.0-4.0-6.0-1.0-0.77","5e127002fa3d108e61b09a99","63690f60c96a0a9a64b48fbc","6369156a200954e2d931dfde","118","","j","","","","","","","","./tasks/HMM-beads/Images/NewTrialBC.png","lowH","77","2","2","1","2","true","","","","","","","","","","","","","","","","",""
"image-keyboard-response","309","597930","0.0-4.0-6.0-1.0-1.77","5e127002fa3d108e61b09a99","63690f60c96a0a9a64b48fbc","6369156a200954e2d931dfde","null","","null","","","","","","","","./tasks/HMM-beads/Images/WhiteBeadChoice.png","","","","","","","","","","","","","","","","","","","","","","","",""
"image-keyboard-response","310","598433","0.0-4.0-6.0-1.0-2.77","5e127002fa3d108e61b09a99","63690f60c96a0a9a64b48fbc","6369156a200954e2d931dfde","null","","null","","","","","","","","./tasks/HMM-beads/Images/WhiteBeadChoiceCorrect.png","","","","","","","","","","","","","","","","","","","","","","","",""
"image-keyboard-response","311","598527","0.0-4.0-6.0-1.0-0.78","5e127002fa3d108e61b09a99","63690f60c96a0a9a64b48fbc","6369156a200954e2d931dfde","94","","j","","","","","","","","./tasks/HMM-beads/Images/NewTrialWC.png","lowH","78","2","2","2","2","true","","","","","","","","","","","","","","","","",""
"image-keyboard-response","312","598833","0.0-4.0-6.0-1.0-1.78","5e127002fa3d108e61b09a99","63690f60c96a0a9a64b48fbc","6369156a200954e2d931dfde","null","","null","","","","","","","","./tasks/HMM-beads/Images/WhiteBeadChoice.png","","","","","","","","","","","","","","","","","","","","","","","",""
"image-keyboard-response","313","599339","0.0-4.0-6.0-1.0-2.78","5e127002fa3d108e61b09a99","63690f60c96a0a9a64b48fbc","6369156a200954e2d931dfde","null","","null","","","","","","","","./tasks/HMM-beads/Images/WhiteBeadChoiceCorrect.png","","","","","","","","","","","","","","","","","","","","","","","",""
"image-keyboard-response","314","599441","0.0-4.0-6.0-1.0-0.79","5e127002fa3d108e61b09a99","63690f60c96a0a9a64b48fbc","6369156a200954e2d931dfde","101","","j","","","","","","","","./tasks/HMM-beads/Images/NewTrialWC.png","lowH","79","2","2","2","2","true","","","","","","","","","","","","","","","","",""
"image-keyboard-response","315","599744","0.0-4.0-6.0-1.0-1.79","5e127002fa3d108e61b09a99","63690f60c96a0a9a64b48fbc","6369156a200954e2d931dfde","null","","null","","","","","","","","./tasks/HMM-beads/Images/WhiteBeadChoice.png","","","","","","","","","","","","","","","","","","","","","","","",""
"image-keyboard-response","316","600250","0.0-4.0-6.0-1.0-2.79","5e127002fa3d108e61b09a99","63690f60c96a0a9a64b48fbc","6369156a200954e2d931dfde","null","","null","","","","","","","","./tasks/HMM-beads/Images/WhiteBeadChoiceCorrect.png","","","","","","","","","","","","","","","","","","","","","","","",""
"image-keyboard-response","317","600342","0.0-4.0-6.0-1.0-0.80","5e127002fa3d108e61b09a99","63690f60c96a0a9a64b48fbc","6369156a200954e2d931dfde","91","","j","","","","","","","","./tasks/HMM-beads/Images/NewTrialWC.png","lowH","80","2","2","2","2","true","","","","","","","","","","","","","","","","",""
"image-keyboard-response","318","600650","0.0-4.0-6.0-1.0-1.80","5e127002fa3d108e61b09a99","63690f60c96a0a9a64b48fbc","6369156a200954e2d931dfde","null","","null","","","","","","","","./tasks/HMM-beads/Images/WhiteBeadChoice.png","","","","","","","","","","","","","","","","","","","","","","","",""
"image-keyboard-response","319","601152","0.0-4.0-6.0-1.0-2.80","5e127002fa3d108e61b09a99","63690f60c96a0a9a64b48fbc","6369156a200954e2d931dfde","null","","null","","","","","","","","./tasks/HMM-beads/Images/WhiteBeadChoiceCorrect.png","","","","","","","","","","","","","","","","","","","","","","","",""
"image-keyboard-response","320","601293","0.0-4.0-6.0-1.0-0.81","5e127002fa3d108e61b09a99","63690f60c96a0a9a64b48fbc","6369156a200954e2d931dfde","140","","j","","","","","","","","./tasks/HMM-beads/Images/NewTrialWC.png","lowH","81","2","2","2","2","true","","","","","","","","","","","","","","","","",""
"image-keyboard-response","321","601600","0.0-4.0-6.0-1.0-1.81","5e127002fa3d108e61b09a99","63690f60c96a0a9a64b48fbc","6369156a200954e2d931dfde","null","","null","","","","","","","","./tasks/HMM-beads/Images/WhiteBeadChoice.png","","","","","","","","","","","","","","","","","","","","","","","",""
