"trial_type","trial_index","time_elapsed","internal_node_id","subject_id","study_id","session_id","rt","url","response","question_order","view_history","success","timeout","failed_images","failed_audio","failed_video","stimulus","block","trial_number","jar","bead","previous_bead","choice","correct","lowH_score","highH_score","state","rewarded","state1_action","state2_visited","state1_key","state2_key","state1_rt","state2_rt","block_num","seq_file","trial_seq_info","two_arm_score_block1","two_arm_score_block2","two_arm_score_total","total_bonus"
"pavlovia","0","1007","0.0-0.0","57564c3d947a3d0007b545d6","63690f60c96a0a9a64b48fbd","63691626d63b0d82a8c351e5","","","","","","","","","","","","","","","","","","","","","","","","","","","","","","","","","","",""
"external-html","1","15618","0.0-1.0-0.0","57564c3d947a3d0007b545d6","63690f60c96a0a9a64b48fbd","63691626d63b0d82a8c351e5","14508","new_consent.html","","","","","","","","","","","","","","","","","","","","","","","","","","","","","","","","",""
"survey-multi-choice","2","22185","0.0-1.0-1.0","57564c3d947a3d0007b545d6","63690f60c96a0a9a64b48fbd","63691626d63b0d82a8c351e5","6562","","{""Q0"":""Female"",""Q1"":""White""}","[0,1]","","","","","","","","","","","","","","","","","","","","","","","","","","","","","","",""
"survey-text","3","25909","0.0-1.0-2.0","57564c3d947a3d0007b545d6","63690f60c96a0a9a64b48fbd","63691626d63b0d82a8c351e5","3719","","{""Q0"":""38""}","","","","","","","","","","","","","","","","","","","","","","","","","","","","","","","",""
"instructions","4","47994","0.0-2.0","57564c3d947a3d0007b545d6","63690f60c96a0a9a64b48fbd","63691626d63b0d82a8c351e5","21968","","","","[{""page_index"":0,""viewing_time"":20408},{""page_index"":1,""viewing_time"":1558}]","","","","","","","","","","","","","","","","","","","","","","","","","","","","","",""
"instructions","5","49195","0.0-3.0","57564c3d947a3d0007b545d6","63690f60c96a0a9a64b48fbd","63691626d63b0d82a8c351e5","1201","","","","[{""page_index"":0,""viewing_time"":1200}]","","","","","","","","","","","","","","","","","","","","","","","","","","","","","",""
"preload","6","50151","0.0-4.0-0.0","57564c3d947a3d0007b545d6","63690f60c96a0a9a64b48fbd","63691626d63b0d82a8c351e5","","","","","","true","false","[]","[]","[]","","","","","","","","","","","","","","","","","","","","","","","","",""
"instructions","7","163640","0.0-4.0-1.0","57564c3d947a3d0007b545d6","63690f60c96a0a9a64b48fbd","63691626d63b0d82a8c351e5","113489","","","","[{""page_index"":0,""viewing_time"":9884},{""page_index"":1,""viewing_time"":8079},{""page_index"":2,""viewing_time"":3855},{""page_index"":3,""viewing_time"":1588},{""page_index"":4,""viewing_time"":6303},{""page_index"":5,""viewing_time"":21424},{""page_index"":6,""viewing_time"":13203},{""page_index"":7,""viewing_time"":7240},{""page_index"":8,""viewing_time"":6220},{""page_index"":9,""viewing_time"":9244},{""page_index"":10,""viewing_time"":8657},{""page_index"":11,""viewing_time"":3270},{""page_index"":10,""viewing_time"":13110},{""page_index"":11,""viewing_time"":1412}]","","","","","","","","","","","","","","","","","","","","","","","","","","","","","",""
"html-button-response","8","163858","0.0-4.0-2.0-0.0-0.0","57564c3d947a3d0007b545d6","63690f60c96a0a9a64b48fbd","63691626d63b0d82a8c351e5","216","","1","","","","","","","","<div align=center>Your goal is to predict…?<br><br></div>","","","","","","","","","","","","","","","","","","","","","","","",""
"html-button-response","9","173293","0.0-4.0-2.0-1.0-0.0","57564c3d947a3d0007b545d6","63690f60c96a0a9a64b48fbd","63691626d63b0d82a8c351e5","5697","","2","","","","","","","","<div align=center>In the jar with mostly white beads, there are ___% white beads and ___% black beads?<br><br></div>","","","","","","","","","","","","","","","","","","","","","","","",""
"html-button-response","10","187271","0.0-4.0-2.0-2.0-0.0","57564c3d947a3d0007b545d6","63690f60c96a0a9a64b48fbd","63691626d63b0d82a8c351e5","12713","","0","","","","","","","","<div align=center>When there is a 1% probability that the jars will switch, the next bead will most likely be drawn from the…<br><br></div>","","","","","","","","","","","","","","","","","","","","","","","",""
"html-button-response","11","192582","0.0-4.0-2.0-3.0-0.0","57564c3d947a3d0007b545d6","63690f60c96a0a9a64b48fbd","63691626d63b0d82a8c351e5","3503","","1","","","","","","","","<div align=center>When there is a 99% probability that the jars will switch, the next bead will most likely be drawn from the…<br><br></div>","","","","","","","","","","","","","","","","","","","","","","","",""
"instructions","12","200819","0.0-4.0-3.0","57564c3d947a3d0007b545d6","63690f60c96a0a9a64b48fbd","63691626d63b0d82a8c351e5","7063","","","","[{""page_index"":0,""viewing_time"":7062}]","","","","","","","","","","","","","","","","","","","","","","","","","","","","","",""
"html-keyboard-response","13","214115","0.0-4.0-4.0-0.0","57564c3d947a3d0007b545d6","63690f60c96a0a9a64b48fbd","63691626d63b0d82a8c351e5","13294",""," ","","","","","","","","<div align=center>In this practice block, there will be a <b>10% chance</b> that the jar on the next trial will be different from the jar on the current trial.<br><br></div>","","","","","","","","","","","","","","","","","","","","","","","",""
"image-keyboard-response","14","220009","0.0-4.0-4.0-1.0-0.0","57564c3d947a3d0007b545d6","63690f60c96a0a9a64b48fbd","63691626d63b0d82a8c351e5","5887","","j","","","","","","","","./tasks/HMM-beads/Images/NoChoice.png","practice","0","1","1","0","2","false","","","","","","","","","","","","","","","","",""
"image-keyboard-response","15","220327","0.0-4.0-4.0-1.0-1.0","57564c3d947a3d0007b545d6","63690f60c96a0a9a64b48fbd","63691626d63b0d82a8c351e5","null","","null","","","","","","","","./tasks/HMM-beads/Images/WhiteBeadChoice.png","","","","","","","","","","","","","","","","","","","","","","","",""
"image-keyboard-response","16","220842","0.0-4.0-4.0-1.0-2.0","57564c3d947a3d0007b545d6","63690f60c96a0a9a64b48fbd","63691626d63b0d82a8c351e5","null","","null","","","","","","","","./tasks/HMM-beads/Images/WhiteBeadChoiceWrong.png","","","","","","","","","","","","","","","","","","","","","","","",""
"image-keyboard-response","17","225200","0.0-4.0-4.0-1.0-0.1","57564c3d947a3d0007b545d6","63690f60c96a0a9a64b48fbd","63691626d63b0d82a8c351e5","4356","","f","","","","","","","","./tasks/HMM-beads/Images/NewTrialBC.png","practice","1","1","1","1","1","true","","","","","","","","","","","","","","","","",""
"image-keyboard-response","18","225510","0.0-4.0-4.0-1.0-1.1","57564c3d947a3d0007b545d6","63690f60c96a0a9a64b48fbd","63691626d63b0d82a8c351e5","null","","null","","","","","","","","./tasks/HMM-beads/Images/BlackBeadChoice.png","","","","","","","","","","","","","","","","","","","","","","","",""
"image-keyboard-response","19","226025","0.0-4.0-4.0-1.0-2.1","57564c3d947a3d0007b545d6","63690f60c96a0a9a64b48fbd","63691626d63b0d82a8c351e5","null","","null","","","","","","","","./tasks/HMM-beads/Images/BlackBeadChoiceCorrect.png","","","","","","","","","","","","","","","","","","","","","","","",""
"image-keyboard-response","20","229031","0.0-4.0-4.0-1.0-0.2","57564c3d947a3d0007b545d6","63690f60c96a0a9a64b48fbd","63691626d63b0d82a8c351e5","3004","","f","","","","","","","","./tasks/HMM-beads/Images/NewTrialBC.png","practice","2","1","2","1","1","false","","","","","","","","","","","","","","","","",""
"image-keyboard-response","21","229350","0.0-4.0-4.0-1.0-1.2","57564c3d947a3d0007b545d6","63690f60c96a0a9a64b48fbd","63691626d63b0d82a8c351e5","null","","null","","","","","","","","./tasks/HMM-beads/Images/BlackBeadChoice.png","","","","","","","","","","","","","","","","","","","","","","","",""
"image-keyboard-response","22","229863","0.0-4.0-4.0-1.0-2.2","57564c3d947a3d0007b545d6","63690f60c96a0a9a64b48fbd","63691626d63b0d82a8c351e5","null","","null","","","","","","","","./tasks/HMM-beads/Images/BlackBeadChoiceWrong.png","","","","","","","","","","","","","","","","","","","","","","","",""
"image-keyboard-response","23","231523","0.0-4.0-4.0-1.0-0.3","57564c3d947a3d0007b545d6","63690f60c96a0a9a64b48fbd","63691626d63b0d82a8c351e5","1659","","f","","","","","","","","./tasks/HMM-beads/Images/NewTrialWC.png","practice","3","1","1","2","1","true","","","","","","","","","","","","","","","","",""
"image-keyboard-response","24","231838","0.0-4.0-4.0-1.0-1.3","57564c3d947a3d0007b545d6","63690f60c96a0a9a64b48fbd","63691626d63b0d82a8c351e5","null","","null","","","","","","","","./tasks/HMM-beads/Images/BlackBeadChoice.png","","","","","","","","","","","","","","","","","","","","","","","",""
"image-keyboard-response","25","232353","0.0-4.0-4.0-1.0-2.3","57564c3d947a3d0007b545d6","63690f60c96a0a9a64b48fbd","63691626d63b0d82a8c351e5","null","","null","","","","","","","","./tasks/HMM-beads/Images/BlackBeadChoiceCorrect.png","","","","","","","","","","","","","","","","","","","","","","","",""
"image-keyboard-response","26","233685","0.0-4.0-4.0-1.0-0.4","57564c3d947a3d0007b545d6","63690f60c96a0a9a64b48fbd","63691626d63b0d82a8c351e5","1322","","f","","","","","","","","./tasks/HMM-beads/Images/NewTrialBC.png","practice","4","1","2","1","1","false","","","","","","","","","","","","","","","","",""
"image-keyboard-response","27","233997","0.0-4.0-4.0-1.0-1.4","57564c3d947a3d0007b545d6","63690f60c96a0a9a64b48fbd","63691626d63b0d82a8c351e5","null","","null","","","","","","","","./tasks/HMM-beads/Images/BlackBeadChoice.png","","","","","","","","","","","","","","","","","","","","","","","",""
"image-keyboard-response","28","234511","0.0-4.0-4.0-1.0-2.4","57564c3d947a3d0007b545d6","63690f60c96a0a9a64b48fbd","63691626d63b0d82a8c351e5","null","","null","","","","","","","","./tasks/HMM-beads/Images/BlackBeadChoiceWrong.png","","","","","","","","","","","","","","","","","","","","","","","",""
"image-keyboard-response","29","235998","0.0-4.0-4.0-1.0-0.5","57564c3d947a3d0007b545d6","63690f60c96a0a9a64b48fbd","63691626d63b0d82a8c351e5","1486","","j","","","","","","","","./tasks/HMM-beads/Images/NewTrialWC.png","practice","5","1","1","2","2","false","","","","","","","","","","","","","","","","",""
"image-keyboard-response","30","236313","0.0-4.0-4.0-1.0-1.5","57564c3d947a3d0007b545d6","63690f60c96a0a9a64b48fbd","63691626d63b0d82a8c351e5","null","","null","","","","","","","","./tasks/HMM-beads/Images/WhiteBeadChoice.png","","","","","","","","","","","","","","","","","","","","","","","",""
"image-keyboard-response","31","236826","0.0-4.0-4.0-1.0-2.5","57564c3d947a3d0007b545d6","63690f60c96a0a9a64b48fbd","63691626d63b0d82a8c351e5","null","","null","","","","","","","","./tasks/HMM-beads/Images/WhiteBeadChoiceWrong.png","","","","","","","","","","","","","","","","","","","","","","","",""
"image-keyboard-response","32","237566","0.0-4.0-4.0-1.0-0.6","57564c3d947a3d0007b545d6","63690f60c96a0a9a64b48fbd","63691626d63b0d82a8c351e5","739","","f","","","","","","","","./tasks/HMM-beads/Images/NewTrialBC.png","practice","6","1","2","1","1","false","","","","","","","","","","","","","","","","",""
"image-keyboard-response","33","237885","0.0-4.0-4.0-1.0-1.6","57564c3d947a3d0007b545d6","63690f60c96a0a9a64b48fbd","63691626d63b0d82a8c351e5","null","","null","","","","","","","","./tasks/HMM-beads/Images/BlackBeadChoice.png","","","","","","","","","","","","","","","","","","","","","","","",""
"image-keyboard-response","34","238401","0.0-4.0-4.0-1.0-2.6","57564c3d947a3d0007b545d6","63690f60c96a0a9a64b48fbd","63691626d63b0d82a8c351e5","null","","null","","","","","","","","./tasks/HMM-beads/Images/BlackBeadChoiceWrong.png","","","","","","","","","","","","","","","","","","","","","","","",""
"image-keyboard-response","35","240453","0.0-4.0-4.0-1.0-0.7","57564c3d947a3d0007b545d6","63690f60c96a0a9a64b48fbd","63691626d63b0d82a8c351e5","2051","","f","","","","","","","","./tasks/HMM-beads/Images/NewTrialWC.png","practice","7","1","1","2","1","true","","","","","","","","","","","","","","","","",""
"image-keyboard-response","36","240766","0.0-4.0-4.0-1.0-1.7","57564c3d947a3d0007b545d6","63690f60c96a0a9a64b48fbd","63691626d63b0d82a8c351e5","null","","null","","","","","","","","./tasks/HMM-beads/Images/BlackBeadChoice.png","","","","","","","","","","","","","","","","","","","","","","","",""
"image-keyboard-response","37","241278","0.0-4.0-4.0-1.0-2.7","57564c3d947a3d0007b545d6","63690f60c96a0a9a64b48fbd","63691626d63b0d82a8c351e5","null","","null","","","","","","","","./tasks/HMM-beads/Images/BlackBeadChoiceCorrect.png","","","","","","","","","","","","","","","","","","","","","","","",""
"image-keyboard-response","38","243205","0.0-4.0-4.0-1.0-0.8","57564c3d947a3d0007b545d6","63690f60c96a0a9a64b48fbd","63691626d63b0d82a8c351e5","1926","","j","","","","","","","","./tasks/HMM-beads/Images/NewTrialBC.png","practice","8","1","1","1","2","false","","","","","","","","","","","","","","","","",""
"image-keyboard-response","39","243527","0.0-4.0-4.0-1.0-1.8","57564c3d947a3d0007b545d6","63690f60c96a0a9a64b48fbd","63691626d63b0d82a8c351e5","null","","null","","","","","","","","./tasks/HMM-beads/Images/WhiteBeadChoice.png","","","","","","","","","","","","","","","","","","","","","","","",""
"image-keyboard-response","40","244037","0.0-4.0-4.0-1.0-2.8","57564c3d947a3d0007b545d6","63690f60c96a0a9a64b48fbd","63691626d63b0d82a8c351e5","null","","null","","","","","","","","./tasks/HMM-beads/Images/WhiteBeadChoiceWrong.png","","","","","","","","","","","","","","","","","","","","","","","",""
"image-keyboard-response","41","244953","0.0-4.0-4.0-1.0-0.9","57564c3d947a3d0007b545d6","63690f60c96a0a9a64b48fbd","63691626d63b0d82a8c351e5","915","","f","","","","","","","","./tasks/HMM-beads/Images/NewTrialBC.png","practice","9","2","2","1","1","false","","","","","","","","","","","","","","","","",""
"image-keyboard-response","42","245277","0.0-4.0-4.0-1.0-1.9","57564c3d947a3d0007b545d6","63690f60c96a0a9a64b48fbd","63691626d63b0d82a8c351e5","null","","null","","","","","","","","./tasks/HMM-beads/Images/BlackBeadChoice.png","","","","","","","","","","","","","","","","","","","","","","","",""
"image-keyboard-response","43","245789","0.0-4.0-4.0-1.0-2.9","57564c3d947a3d0007b545d6","63690f60c96a0a9a64b48fbd","63691626d63b0d82a8c351e5","null","","null","","","","","","","","./tasks/HMM-beads/Images/BlackBeadChoiceWrong.png","","","","","","","","","","","","","","","","","","","","","","","",""
"image-keyboard-response","44","249108","0.0-4.0-4.0-1.0-0.10","57564c3d947a3d0007b545d6","63690f60c96a0a9a64b48fbd","63691626d63b0d82a8c351e5","3316","","f","","","","","","","","./tasks/HMM-beads/Images/NewTrialWC.png","practice","10","2","1","2","1","true","","","","","","","","","","","","","","","","",""
"image-keyboard-response","45","249416","0.0-4.0-4.0-1.0-1.10","57564c3d947a3d0007b545d6","63690f60c96a0a9a64b48fbd","63691626d63b0d82a8c351e5","null","","null","","","","","","","","./tasks/HMM-beads/Images/BlackBeadChoice.png","","","","","","","","","","","","","","","","","","","","","","","",""
"image-keyboard-response","46","249930","0.0-4.0-4.0-1.0-2.10","57564c3d947a3d0007b545d6","63690f60c96a0a9a64b48fbd","63691626d63b0d82a8c351e5","null","","null","","","","","","","","./tasks/HMM-beads/Images/BlackBeadChoiceCorrect.png","","","","","","","","","","","","","","","","","","","","","","","",""
"image-keyboard-response","47","250608","0.0-4.0-4.0-1.0-0.11","57564c3d947a3d0007b545d6","63690f60c96a0a9a64b48fbd","63691626d63b0d82a8c351e5","677","","f","","","","","","","","./tasks/HMM-beads/Images/NewTrialBC.png","practice","11","2","2","1","1","false","","","","","","","","","","","","","","","","",""
"image-keyboard-response","48","250925","0.0-4.0-4.0-1.0-1.11","57564c3d947a3d0007b545d6","63690f60c96a0a9a64b48fbd","63691626d63b0d82a8c351e5","null","","null","","","","","","","","./tasks/HMM-beads/Images/BlackBeadChoice.png","","","","","","","","","","","","","","","","","","","","","","","",""
"image-keyboard-response","49","251440","0.0-4.0-4.0-1.0-2.11","57564c3d947a3d0007b545d6","63690f60c96a0a9a64b48fbd","63691626d63b0d82a8c351e5","null","","null","","","","","","","","./tasks/HMM-beads/Images/BlackBeadChoiceWrong.png","","","","","","","","","","","","","","","","","","","","","","","",""
"image-keyboard-response","50","252439","0.0-4.0-4.0-1.0-0.12","57564c3d947a3d0007b545d6","63690f60c96a0a9a64b48fbd","63691626d63b0d82a8c351e5","998","","f","","","","","","","","./tasks/HMM-beads/Images/NewTrialWC.png","practice","12","2","2","2","1","false","","","","","","","","","","","","","","","","",""
"image-keyboard-response","51","252748","0.0-4.0-4.0-1.0-1.12","57564c3d947a3d0007b545d6","63690f60c96a0a9a64b48fbd","63691626d63b0d82a8c351e5","null","","null","","","","","","","","./tasks/HMM-beads/Images/BlackBeadChoice.png","","","","","","","","","","","","","","","","","","","","","","","",""
"image-keyboard-response","52","253262","0.0-4.0-4.0-1.0-2.12","57564c3d947a3d0007b545d6","63690f60c96a0a9a64b48fbd","63691626d63b0d82a8c351e5","null","","null","","","","","","","","./tasks/HMM-beads/Images/BlackBeadChoiceWrong.png","","","","","","","","","","","","","","","","","","","","","","","",""
"image-keyboard-response","53","253876","0.0-4.0-4.0-1.0-0.13","57564c3d947a3d0007b545d6","63690f60c96a0a9a64b48fbd","63691626d63b0d82a8c351e5","611","","j","","","","","","","","./tasks/HMM-beads/Images/NewTrialWC.png","practice","13","2","2","2","2","true","","","","","","","","","","","","","","","","",""
"image-keyboard-response","54","254196","0.0-4.0-4.0-1.0-1.13","57564c3d947a3d0007b545d6","63690f60c96a0a9a64b48fbd","63691626d63b0d82a8c351e5","null","","null","","","","","","","","./tasks/HMM-beads/Images/WhiteBeadChoice.png","","","","","","","","","","","","","","","","","","","","","","","",""
"image-keyboard-response","55","254713","0.0-4.0-4.0-1.0-2.13","57564c3d947a3d0007b545d6","63690f60c96a0a9a64b48fbd","63691626d63b0d82a8c351e5","null","","null","","","","","","","","./tasks/HMM-beads/Images/WhiteBeadChoiceCorrect.png","","","","","","","","","","","","","","","","","","","","","","","",""
"image-keyboard-response","56","255496","0.0-4.0-4.0-1.0-0.14","57564c3d947a3d0007b545d6","63690f60c96a0a9a64b48fbd","63691626d63b0d82a8c351e5","781","","j","","","","","","","","./tasks/HMM-beads/Images/NewTrialWC.png","practice","14","2","2","2","2","true","","","","","","","","","","","","","","","","",""
"image-keyboard-response","57","255805","0.0-4.0-4.0-1.0-1.14","57564c3d947a3d0007b545d6","63690f60c96a0a9a64b48fbd","63691626d63b0d82a8c351e5","null","","null","","","","","","","","./tasks/HMM-beads/Images/WhiteBeadChoice.png","","","","","","","","","","","","","","","","","","","","","","","",""
"image-keyboard-response","58","256321","0.0-4.0-4.0-1.0-2.14","57564c3d947a3d0007b545d6","63690f60c96a0a9a64b48fbd","63691626d63b0d82a8c351e5","null","","null","","","","","","","","./tasks/HMM-beads/Images/WhiteBeadChoiceCorrect.png","","","","","","","","","","","","","","","","","","","","","","","",""
"image-keyboard-response","59","258028","0.0-4.0-4.0-1.0-0.15","57564c3d947a3d0007b545d6","63690f60c96a0a9a64b48fbd","63691626d63b0d82a8c351e5","1705","","j","","","","","","","","./tasks/HMM-beads/Images/NewTrialWC.png","practice","15","1","1","2","2","false","","","","","","","","","","","","","","","","",""
"image-keyboard-response","60","258340","0.0-4.0-4.0-1.0-1.15","57564c3d947a3d0007b545d6","63690f60c96a0a9a64b48fbd","63691626d63b0d82a8c351e5","null","","null","","","","","","","","./tasks/HMM-beads/Images/WhiteBeadChoice.png","","","","","","","","","","","","","","","","","","","","","","","",""
"image-keyboard-response","61","258854","0.0-4.0-4.0-1.0-2.15","57564c3d947a3d0007b545d6","63690f60c96a0a9a64b48fbd","63691626d63b0d82a8c351e5","null","","null","","","","","","","","./tasks/HMM-beads/Images/WhiteBeadChoiceWrong.png","","","","","","","","","","","","","","","","","","","","","","","",""
"image-keyboard-response","62","259977","0.0-4.0-4.0-1.0-0.16","57564c3d947a3d0007b545d6","63690f60c96a0a9a64b48fbd","63691626d63b0d82a8c351e5","1122","","j","","","","","","","","./tasks/HMM-beads/Images/NewTrialBC.png","practice","16","1","2","1","2","true","","","","","","","","","","","","","","","","",""
"image-keyboard-response","63","260293","0.0-4.0-4.0-1.0-1.16","57564c3d947a3d0007b545d6","63690f60c96a0a9a64b48fbd","63691626d63b0d82a8c351e5","null","","null","","","","","","","","./tasks/HMM-beads/Images/WhiteBeadChoice.png","","","","","","","","","","","","","","","","","","","","","","","",""
"image-keyboard-response","64","260811","0.0-4.0-4.0-1.0-2.16","57564c3d947a3d0007b545d6","63690f60c96a0a9a64b48fbd","63691626d63b0d82a8c351e5","null","","null","","","","","","","","./tasks/HMM-beads/Images/WhiteBeadChoiceCorrect.png","","","","","","","","","","","","","","","","","","","","","","","",""
"image-keyboard-response","65","261791","0.0-4.0-4.0-1.0-0.17","57564c3d947a3d0007b545d6","63690f60c96a0a9a64b48fbd","63691626d63b0d82a8c351e5","978","","j","","","","","","","","./tasks/HMM-beads/Images/NewTrialWC.png","practice","17","1","1","2","2","false","","","","","","","","","","","","","","","","",""
"image-keyboard-response","66","262109","0.0-4.0-4.0-1.0-1.17","57564c3d947a3d0007b545d6","63690f60c96a0a9a64b48fbd","63691626d63b0d82a8c351e5","null","","null","","","","","","","","./tasks/HMM-beads/Images/WhiteBeadChoice.png","","","","","","","","","","","","","","","","","","","","","","","",""
"image-keyboard-response","67","262622","0.0-4.0-4.0-1.0-2.17","57564c3d947a3d0007b545d6","63690f60c96a0a9a64b48fbd","63691626d63b0d82a8c351e5","null","","null","","","","","","","","./tasks/HMM-beads/Images/WhiteBeadChoiceWrong.png","","","","","","","","","","","","","","","","","","","","","","","",""
"image-keyboard-response","68","263695","0.0-4.0-4.0-1.0-0.18","57564c3d947a3d0007b545d6","63690f60c96a0a9a64b48fbd","63691626d63b0d82a8c351e5","1072","","j","","","","","","","","./tasks/HMM-beads/Images/NewTrialBC.png","practice","18","1","1","1","2","false","","","","","","","","","","","","","","","","",""
"image-keyboard-response","69","264005","0.0-4.0-4.0-1.0-1.18","57564c3d947a3d0007b545d6","63690f60c96a0a9a64b48fbd","63691626d63b0d82a8c351e5","null","","null","","","","","","","","./tasks/HMM-beads/Images/WhiteBeadChoice.png","","","","","","","","","","","","","","","","","","","","","","","",""
"image-keyboard-response","70","264522","0.0-4.0-4.0-1.0-2.18","57564c3d947a3d0007b545d6","63690f60c96a0a9a64b48fbd","63691626d63b0d82a8c351e5","null","","null","","","","","","","","./tasks/HMM-beads/Images/WhiteBeadChoiceWrong.png","","","","","","","","","","","","","","","","","","","","","","","",""
"image-keyboard-response","71","264905","0.0-4.0-4.0-1.0-0.19","57564c3d947a3d0007b545d6","63690f60c96a0a9a64b48fbd","63691626d63b0d82a8c351e5","381","","f","","","","","","","","./tasks/HMM-beads/Images/NewTrialBC.png","practice","19","1","1","1","1","true","","","","","","","","","","","","","","","","",""
"image-keyboard-response","72","265207","0.0-4.0-4.0-1.0-1.19","57564c3d947a3d0007b545d6","63690f60c96a0a9a64b48fbd","63691626d63b0d82a8c351e5","null","","null","","","","","","","","./tasks/HMM-beads/Images/BlackBeadChoice.png","","","","","","","","","","","","","","","","","","","","","","","",""
"image-keyboard-response","73","265723","0.0-4.0-4.0-1.0-2.19","57564c3d947a3d0007b545d6","63690f60c96a0a9a64b48fbd","63691626d63b0d82a8c351e5","null","","null","","","","","","","","./tasks/HMM-beads/Images/BlackBeadChoiceCorrect.png","","","","","","","","","","","","","","","","","","","","","","","",""
"html-keyboard-response","74","268616","0.0-4.0-4.0-2.0","57564c3d947a3d0007b545d6","63690f60c96a0a9a64b48fbd","63691626d63b0d82a8c351e5","2891",""," ","","","","","","","","","","","","","","","","","","","","","","","","","","","","","","","",""
"instructions","75","319026","0.0-4.0-5.0","57564c3d947a3d0007b545d6","63690f60c96a0a9a64b48fbd","63691626d63b0d82a8c351e5","50410","","","","[{""page_index"":0,""viewing_time"":43939},{""page_index"":1,""viewing_time"":6471}]","","","","","","","","","","","","","","","","","","","","","","","","","","","","","",""
"html-keyboard-response","76","324289","0.0-4.0-6.0-0.0","57564c3d947a3d0007b545d6","63690f60c96a0a9a64b48fbd","63691626d63b0d82a8c351e5","5262",""," ","","","","","","","","<div align=center>In this block, there will be a <b>1% chance</b> that the jar on the next trial will be different from the jar on the current trial.<br><br></div>","","","","","","","","","","","","","","","","","","","","","","","",""
"image-keyboard-response","77","325960","0.0-4.0-6.0-1.0-0.0","57564c3d947a3d0007b545d6","63690f60c96a0a9a64b48fbd","63691626d63b0d82a8c351e5","1669","","f","","","","","","","","./tasks/HMM-beads/Images/NoChoice.png","lowH","0","2","2","0","1","false","","","","","","","","","","","","","","","","",""
"image-keyboard-response","78","326265","0.0-4.0-6.0-1.0-1.0","57564c3d947a3d0007b545d6","63690f60c96a0a9a64b48fbd","63691626d63b0d82a8c351e5","null","","null","","","","","","","","./tasks/HMM-beads/Images/BlackBeadChoice.png","","","","","","","","","","","","","","","","","","","","","","","",""
"image-keyboard-response","79","326780","0.0-4.0-6.0-1.0-2.0","57564c3d947a3d0007b545d6","63690f60c96a0a9a64b48fbd","63691626d63b0d82a8c351e5","null","","null","","","","","","","","./tasks/HMM-beads/Images/BlackBeadChoiceWrong.png","","","","","","","","","","","","","","","","","","","","","","","",""
"image-keyboard-response","80","327109","0.0-4.0-6.0-1.0-0.1","57564c3d947a3d0007b545d6","63690f60c96a0a9a64b48fbd","63691626d63b0d82a8c351e5","328","","f","","","","","","","","./tasks/HMM-beads/Images/NewTrialWC.png","lowH","1","2","2","2","1","false","","","","","","","","","","","","","","","","",""
"image-keyboard-response","81","327421","0.0-4.0-6.0-1.0-1.1","57564c3d947a3d0007b545d6","63690f60c96a0a9a64b48fbd","63691626d63b0d82a8c351e5","null","","null","","","","","","","","./tasks/HMM-beads/Images/BlackBeadChoice.png","","","","","","","","","","","","","","","","","","","","","","","",""
"image-keyboard-response","82","327935","0.0-4.0-6.0-1.0-2.1","57564c3d947a3d0007b545d6","63690f60c96a0a9a64b48fbd","63691626d63b0d82a8c351e5","null","","null","","","","","","","","./tasks/HMM-beads/Images/BlackBeadChoiceWrong.png","","","","","","","","","","","","","","","","","","","","","","","",""
"image-keyboard-response","83","328522","0.0-4.0-6.0-1.0-0.2","57564c3d947a3d0007b545d6","63690f60c96a0a9a64b48fbd","63691626d63b0d82a8c351e5","585","","j","","","","","","","","./tasks/HMM-beads/Images/NewTrialWC.png","lowH","2","2","2","2","2","true","","","","","","","","","","","","","","","","",""
"image-keyboard-response","84","328838","0.0-4.0-6.0-1.0-1.2","57564c3d947a3d0007b545d6","63690f60c96a0a9a64b48fbd","63691626d63b0d82a8c351e5","null","","null","","","","","","","","./tasks/HMM-beads/Images/WhiteBeadChoice.png","","","","","","","","","","","","","","","","","","","","","","","",""
"image-keyboard-response","85","329356","0.0-4.0-6.0-1.0-2.2","57564c3d947a3d0007b545d6","63690f60c96a0a9a64b48fbd","63691626d63b0d82a8c351e5","null","","null","","","","","","","","./tasks/HMM-beads/Images/WhiteBeadChoiceCorrect.png","","","","","","","","","","","","","","","","","","","","","","","",""
"image-keyboard-response","86","329687","0.0-4.0-6.0-1.0-0.3","57564c3d947a3d0007b545d6","63690f60c96a0a9a64b48fbd","63691626d63b0d82a8c351e5","329","","j","","","","","","","","./tasks/HMM-beads/Images/NewTrialWC.png","lowH","3","2","2","2","2","true","","","","","","","","","","","","","","","","",""
"image-keyboard-response","87","329995","0.0-4.0-6.0-1.0-1.3","57564c3d947a3d0007b545d6","63690f60c96a0a9a64b48fbd","63691626d63b0d82a8c351e5","null","","null","","","","","","","","./tasks/HMM-beads/Images/WhiteBeadChoice.png","","","","","","","","","","","","","","","","","","","","","","","",""
"image-keyboard-response","88","330506","0.0-4.0-6.0-1.0-2.3","57564c3d947a3d0007b545d6","63690f60c96a0a9a64b48fbd","63691626d63b0d82a8c351e5","null","","null","","","","","","","","./tasks/HMM-beads/Images/WhiteBeadChoiceCorrect.png","","","","","","","","","","","","","","","","","","","","","","","",""
"image-keyboard-response","89","330913","0.0-4.0-6.0-1.0-0.4","57564c3d947a3d0007b545d6","63690f60c96a0a9a64b48fbd","63691626d63b0d82a8c351e5","399","","j","","","","","","","","./tasks/HMM-beads/Images/NewTrialWC.png","lowH","4","2","1","2","2","false","","","","","","","","","","","","","","","","",""
"image-keyboard-response","90","331222","0.0-4.0-6.0-1.0-1.4","57564c3d947a3d0007b545d6","63690f60c96a0a9a64b48fbd","63691626d63b0d82a8c351e5","null","","null","","","","","","","","./tasks/HMM-beads/Images/WhiteBeadChoice.png","","","","","","","","","","","","","","","","","","","","","","","",""
"image-keyboard-response","91","331738","0.0-4.0-6.0-1.0-2.4","57564c3d947a3d0007b545d6","63690f60c96a0a9a64b48fbd","63691626d63b0d82a8c351e5","null","","null","","","","","","","","./tasks/HMM-beads/Images/WhiteBeadChoiceWrong.png","","","","","","","","","","","","","","","","","","","","","","","",""
"image-keyboard-response","92","333065","0.0-4.0-6.0-1.0-0.5","57564c3d947a3d0007b545d6","63690f60c96a0a9a64b48fbd","63691626d63b0d82a8c351e5","1326","","j","","","","","","","","./tasks/HMM-beads/Images/NewTrialBC.png","lowH","5","2","2","1","2","true","","","","","","","","","","","","","","","","",""
"image-keyboard-response","93","333375","0.0-4.0-6.0-1.0-1.5","57564c3d947a3d0007b545d6","63690f60c96a0a9a64b48fbd","63691626d63b0d82a8c351e5","null","","null","","","","","","","","./tasks/HMM-beads/Images/WhiteBeadChoice.png","","","","","","","","","","","","","","","","","","","","","","","",""
"image-keyboard-response","94","333892","0.0-4.0-6.0-1.0-2.5","57564c3d947a3d0007b545d6","63690f60c96a0a9a64b48fbd","63691626d63b0d82a8c351e5","null","","null","","","","","","","","./tasks/HMM-beads/Images/WhiteBeadChoiceCorrect.png","","","","","","","","","","","","","","","","","","","","","","","",""
"image-keyboard-response","95","334764","0.0-4.0-6.0-1.0-0.6","57564c3d947a3d0007b545d6","63690f60c96a0a9a64b48fbd","63691626d63b0d82a8c351e5","870","","j","","","","","","","","./tasks/HMM-beads/Images/NewTrialWC.png","lowH","6","2","2","2","2","true","","","","","","","","","","","","","","","","",""
"image-keyboard-response","96","335085","0.0-4.0-6.0-1.0-1.6","57564c3d947a3d0007b545d6","63690f60c96a0a9a64b48fbd","63691626d63b0d82a8c351e5","null","","null","","","","","","","","./tasks/HMM-beads/Images/WhiteBeadChoice.png","","","","","","","","","","","","","","","","","","","","","","","",""
"image-keyboard-response","97","335598","0.0-4.0-6.0-1.0-2.6","57564c3d947a3d0007b545d6","63690f60c96a0a9a64b48fbd","63691626d63b0d82a8c351e5","null","","null","","","","","","","","./tasks/HMM-beads/Images/WhiteBeadChoiceCorrect.png","","","","","","","","","","","","","","","","","","","","","","","",""
"image-keyboard-response","98","335943","0.0-4.0-6.0-1.0-0.7","57564c3d947a3d0007b545d6","63690f60c96a0a9a64b48fbd","63691626d63b0d82a8c351e5","343","","j","","","","","","","","./tasks/HMM-beads/Images/NewTrialWC.png","lowH","7","2","2","2","2","true","","","","","","","","","","","","","","","","",""
"image-keyboard-response","99","336252","0.0-4.0-6.0-1.0-1.7","57564c3d947a3d0007b545d6","63690f60c96a0a9a64b48fbd","63691626d63b0d82a8c351e5","null","","null","","","","","","","","./tasks/HMM-beads/Images/WhiteBeadChoice.png","","","","","","","","","","","","","","","","","","","","","","","",""
"image-keyboard-response","100","336768","0.0-4.0-6.0-1.0-2.7","57564c3d947a3d0007b545d6","63690f60c96a0a9a64b48fbd","63691626d63b0d82a8c351e5","null","","null","","","","","","","","./tasks/HMM-beads/Images/WhiteBeadChoiceCorrect.png","","","","","","","","","","","","","","","","","","","","","","","",""
"image-keyboard-response","101","337207","0.0-4.0-6.0-1.0-0.8","57564c3d947a3d0007b545d6","63690f60c96a0a9a64b48fbd","63691626d63b0d82a8c351e5","438","","j","","","","","","","","./tasks/HMM-beads/Images/NewTrialWC.png","lowH","8","2","2","2","2","true","","","","","","","","","","","","","","","","",""
"image-keyboard-response","102","337530","0.0-4.0-6.0-1.0-1.8","57564c3d947a3d0007b545d6","63690f60c96a0a9a64b48fbd","63691626d63b0d82a8c351e5","null","","null","","","","","","","","./tasks/HMM-beads/Images/WhiteBeadChoice.png","","","","","","","","","","","","","","","","","","","","","","","",""
"image-keyboard-response","103","338044","0.0-4.0-6.0-1.0-2.8","57564c3d947a3d0007b545d6","63690f60c96a0a9a64b48fbd","63691626d63b0d82a8c351e5","null","","null","","","","","","","","./tasks/HMM-beads/Images/WhiteBeadChoiceCorrect.png","","","","","","","","","","","","","","","","","","","","","","","",""
"image-keyboard-response","104","338372","0.0-4.0-6.0-1.0-0.9","57564c3d947a3d0007b545d6","63690f60c96a0a9a64b48fbd","63691626d63b0d82a8c351e5","326","","j","","","","","","","","./tasks/HMM-beads/Images/NewTrialWC.png","lowH","9","2","2","2","2","true","","","","","","","","","","","","","","","","",""
"image-keyboard-response","105","338686","0.0-4.0-6.0-1.0-1.9","57564c3d947a3d0007b545d6","63690f60c96a0a9a64b48fbd","63691626d63b0d82a8c351e5","null","","null","","","","","","","","./tasks/HMM-beads/Images/WhiteBeadChoice.png","","","","","","","","","","","","","","","","","","","","","","","",""
"image-keyboard-response","106","339201","0.0-4.0-6.0-1.0-2.9","57564c3d947a3d0007b545d6","63690f60c96a0a9a64b48fbd","63691626d63b0d82a8c351e5","null","","null","","","","","","","","./tasks/HMM-beads/Images/WhiteBeadChoiceCorrect.png","","","","","","","","","","","","","","","","","","","","","","","",""
"image-keyboard-response","107","339362","0.0-4.0-6.0-1.0-0.10","57564c3d947a3d0007b545d6","63690f60c96a0a9a64b48fbd","63691626d63b0d82a8c351e5","159","","j","","","","","","","","./tasks/HMM-beads/Images/NewTrialWC.png","lowH","10","2","2","2","2","true","","","","","","","","","","","","","","","","",""
"image-keyboard-response","108","339676","0.0-4.0-6.0-1.0-1.10","57564c3d947a3d0007b545d6","63690f60c96a0a9a64b48fbd","63691626d63b0d82a8c351e5","null","","null","","","","","","","","./tasks/HMM-beads/Images/WhiteBeadChoice.png","","","","","","","","","","","","","","","","","","","","","","","",""
"image-keyboard-response","109","340197","0.0-4.0-6.0-1.0-2.10","57564c3d947a3d0007b545d6","63690f60c96a0a9a64b48fbd","63691626d63b0d82a8c351e5","null","","null","","","","","","","","./tasks/HMM-beads/Images/WhiteBeadChoiceCorrect.png","","","","","","","","","","","","","","","","","","","","","","","",""
"image-keyboard-response","110","340434","0.0-4.0-6.0-1.0-0.11","57564c3d947a3d0007b545d6","63690f60c96a0a9a64b48fbd","63691626d63b0d82a8c351e5","235","","j","","","","","","","","./tasks/HMM-beads/Images/NewTrialWC.png","lowH","11","2","2","2","2","true","","","","","","","","","","","","","","","","",""
"image-keyboard-response","111","340747","0.0-4.0-6.0-1.0-1.11","57564c3d947a3d0007b545d6","63690f60c96a0a9a64b48fbd","63691626d63b0d82a8c351e5","null","","null","","","","","","","","./tasks/HMM-beads/Images/WhiteBeadChoice.png","","","","","","","","","","","","","","","","","","","","","","","",""
"image-keyboard-response","112","341263","0.0-4.0-6.0-1.0-2.11","57564c3d947a3d0007b545d6","63690f60c96a0a9a64b48fbd","63691626d63b0d82a8c351e5","null","","null","","","","","","","","./tasks/HMM-beads/Images/WhiteBeadChoiceCorrect.png","","","","","","","","","","","","","","","","","","","","","","","",""
"image-keyboard-response","113","341425","0.0-4.0-6.0-1.0-0.12","57564c3d947a3d0007b545d6","63690f60c96a0a9a64b48fbd","63691626d63b0d82a8c351e5","160","","j","","","","","","","","./tasks/HMM-beads/Images/NewTrialWC.png","lowH","12","2","2","2","2","true","","","","","","","","","","","","","","","","",""
"image-keyboard-response","114","341732","0.0-4.0-6.0-1.0-1.12","57564c3d947a3d0007b545d6","63690f60c96a0a9a64b48fbd","63691626d63b0d82a8c351e5","null","","null","","","","","","","","./tasks/HMM-beads/Images/WhiteBeadChoice.png","","","","","","","","","","","","","","","","","","","","","","","",""
"image-keyboard-response","115","342246","0.0-4.0-6.0-1.0-2.12","57564c3d947a3d0007b545d6","63690f60c96a0a9a64b48fbd","63691626d63b0d82a8c351e5","null","","null","","","","","","","","./tasks/HMM-beads/Images/WhiteBeadChoiceCorrect.png","","","","","","","","","","","","","","","","","","","","","","","",""
"image-keyboard-response","116","342318","0.0-4.0-6.0-1.0-0.13","57564c3d947a3d0007b545d6","63690f60c96a0a9a64b48fbd","63691626d63b0d82a8c351e5","70","","j","","","","","","","","./tasks/HMM-beads/Images/NewTrialWC.png","lowH","13","2","2","2","2","true","","","","","","","","","","","","","","","","",""
"image-keyboard-response","117","342635","0.0-4.0-6.0-1.0-1.13","57564c3d947a3d0007b545d6","63690f60c96a0a9a64b48fbd","63691626d63b0d82a8c351e5","null","","null","","","","","","","","./tasks/HMM-beads/Images/WhiteBeadChoice.png","","","","","","","","","","","","","","","","","","","","","","","",""
"image-keyboard-response","118","343150","0.0-4.0-6.0-1.0-2.13","57564c3d947a3d0007b545d6","63690f60c96a0a9a64b48fbd","63691626d63b0d82a8c351e5","null","","null","","","","","","","","./tasks/HMM-beads/Images/WhiteBeadChoiceCorrect.png","","","","","","","","","","","","","","","","","","","","","","","",""
"image-keyboard-response","119","343312","0.0-4.0-6.0-1.0-0.14","57564c3d947a3d0007b545d6","63690f60c96a0a9a64b48fbd","63691626d63b0d82a8c351e5","160","","j","","","","","","","","./tasks/HMM-beads/Images/NewTrialWC.png","lowH","14","2","2","2","2","true","","","","","","","","","","","","","","","","",""
"image-keyboard-response","120","343619","0.0-4.0-6.0-1.0-1.14","57564c3d947a3d0007b545d6","63690f60c96a0a9a64b48fbd","63691626d63b0d82a8c351e5","null","","null","","","","","","","","./tasks/HMM-beads/Images/WhiteBeadChoice.png","","","","","","","","","","","","","","","","","","","","","","","",""
"image-keyboard-response","121","344139","0.0-4.0-6.0-1.0-2.14","57564c3d947a3d0007b545d6","63690f60c96a0a9a64b48fbd","63691626d63b0d82a8c351e5","null","","null","","","","","","","","./tasks/HMM-beads/Images/WhiteBeadChoiceCorrect.png","","","","","","","","","","","","","","","","","","","","","","","",""
"image-keyboard-response","122","344248","0.0-4.0-6.0-1.0-0.15","57564c3d947a3d0007b545d6","63690f60c96a0a9a64b48fbd","63691626d63b0d82a8c351e5","101","","f","","","","","","","","./tasks/HMM-beads/Images/NewTrialWC.png","lowH","15","2","1","2","1","true","","","","","","","","","","","","","","","","",""
"image-keyboard-response","123","344566","0.0-4.0-6.0-1.0-1.15","57564c3d947a3d0007b545d6","63690f60c96a0a9a64b48fbd","63691626d63b0d82a8c351e5","null","","null","","","","","","","","./tasks/HMM-beads/Images/BlackBeadChoice.png","","","","","","","","","","","","","","","","","","","","","","","",""
"image-keyboard-response","124","345078","0.0-4.0-6.0-1.0-2.15","57564c3d947a3d0007b545d6","63690f60c96a0a9a64b48fbd","63691626d63b0d82a8c351e5","null","","null","","","","","","","","./tasks/HMM-beads/Images/BlackBeadChoiceCorrect.png","","","","","","","","","","","","","","","","","","","","","","","",""
"image-keyboard-response","125","345422","0.0-4.0-6.0-1.0-0.16","57564c3d947a3d0007b545d6","63690f60c96a0a9a64b48fbd","63691626d63b0d82a8c351e5","343","","j","","","","","","","","./tasks/HMM-beads/Images/NewTrialBC.png","lowH","16","2","1","1","2","false","","","","","","","","","","","","","","","","",""
"image-keyboard-response","126","345740","0.0-4.0-6.0-1.0-1.16","57564c3d947a3d0007b545d6","63690f60c96a0a9a64b48fbd","63691626d63b0d82a8c351e5","null","","null","","","","","","","","./tasks/HMM-beads/Images/WhiteBeadChoice.png","","","","","","","","","","","","","","","","","","","","","","","",""
"image-keyboard-response","127","346260","0.0-4.0-6.0-1.0-2.16","57564c3d947a3d0007b545d6","63690f60c96a0a9a64b48fbd","63691626d63b0d82a8c351e5","null","","null","","","","","","","","./tasks/HMM-beads/Images/WhiteBeadChoiceWrong.png","","","","","","","","","","","","","","","","","","","","","","","",""
"image-keyboard-response","128","346570","0.0-4.0-6.0-1.0-0.17","57564c3d947a3d0007b545d6","63690f60c96a0a9a64b48fbd","63691626d63b0d82a8c351e5","308","","j","","","","","","","","./tasks/HMM-beads/Images/NewTrialBC.png","lowH","17","2","2","1","2","true","","","","","","","","","","","","","","","","",""
"image-keyboard-response","129","346884","0.0-4.0-6.0-1.0-1.17","57564c3d947a3d0007b545d6","63690f60c96a0a9a64b48fbd","63691626d63b0d82a8c351e5","null","","null","","","","","","","","./tasks/HMM-beads/Images/WhiteBeadChoice.png","","","","","","","","","","","","","","","","","","","","","","","",""
"image-keyboard-response","130","347398","0.0-4.0-6.0-1.0-2.17","57564c3d947a3d0007b545d6","63690f60c96a0a9a64b48fbd","63691626d63b0d82a8c351e5","null","","null","","","","","","","","./tasks/HMM-beads/Images/WhiteBeadChoiceCorrect.png","","","","","","","","","","","","","","","","","","","","","","","",""
"image-keyboard-response","131","347848","0.0-4.0-6.0-1.0-0.18","57564c3d947a3d0007b545d6","63690f60c96a0a9a64b48fbd","63691626d63b0d82a8c351e5","448","","j","","","","","","","","./tasks/HMM-beads/Images/NewTrialWC.png","lowH","18","2","2","2","2","true","","","","","","","","","","","","","","","","",""
"image-keyboard-response","132","348152","0.0-4.0-6.0-1.0-1.18","57564c3d947a3d0007b545d6","63690f60c96a0a9a64b48fbd","63691626d63b0d82a8c351e5","null","","null","","","","","","","","./tasks/HMM-beads/Images/WhiteBeadChoice.png","","","","","","","","","","","","","","","","","","","","","","","",""
"image-keyboard-response","133","348666","0.0-4.0-6.0-1.0-2.18","57564c3d947a3d0007b545d6","63690f60c96a0a9a64b48fbd","63691626d63b0d82a8c351e5","null","","null","","","","","","","","./tasks/HMM-beads/Images/WhiteBeadChoiceCorrect.png","","","","","","","","","","","","","","","","","","","","","","","",""
"image-keyboard-response","134","349057","0.0-4.0-6.0-1.0-0.19","57564c3d947a3d0007b545d6","63690f60c96a0a9a64b48fbd","63691626d63b0d82a8c351e5","389","","j","","","","","","","","./tasks/HMM-beads/Images/NewTrialWC.png","lowH","19","2","2","2","2","true","","","","","","","","","","","","","","","","",""
"image-keyboard-response","135","349369","0.0-4.0-6.0-1.0-1.19","57564c3d947a3d0007b545d6","63690f60c96a0a9a64b48fbd","63691626d63b0d82a8c351e5","null","","null","","","","","","","","./tasks/HMM-beads/Images/WhiteBeadChoice.png","","","","","","","","","","","","","","","","","","","","","","","",""
"image-keyboard-response","136","349871","0.0-4.0-6.0-1.0-2.19","57564c3d947a3d0007b545d6","63690f60c96a0a9a64b48fbd","63691626d63b0d82a8c351e5","null","","null","","","","","","","","./tasks/HMM-beads/Images/WhiteBeadChoiceCorrect.png","","","","","","","","","","","","","","","","","","","","","","","",""
"image-keyboard-response","137","350077","0.0-4.0-6.0-1.0-0.20","57564c3d947a3d0007b545d6","63690f60c96a0a9a64b48fbd","63691626d63b0d82a8c351e5","205","","j","","","","","","","","./tasks/HMM-beads/Images/NewTrialWC.png","lowH","20","2","2","2","2","true","","","","","","","","","","","","","","","","",""
"image-keyboard-response","138","350398","0.0-4.0-6.0-1.0-1.20","57564c3d947a3d0007b545d6","63690f60c96a0a9a64b48fbd","63691626d63b0d82a8c351e5","null","","null","","","","","","","","./tasks/HMM-beads/Images/WhiteBeadChoice.png","","","","","","","","","","","","","","","","","","","","","","","",""
"image-keyboard-response","139","350912","0.0-4.0-6.0-1.0-2.20","57564c3d947a3d0007b545d6","63690f60c96a0a9a64b48fbd","63691626d63b0d82a8c351e5","null","","null","","","","","","","","./tasks/HMM-beads/Images/WhiteBeadChoiceCorrect.png","","","","","","","","","","","","","","","","","","","","","","","",""
"image-keyboard-response","140","351273","0.0-4.0-6.0-1.0-0.21","57564c3d947a3d0007b545d6","63690f60c96a0a9a64b48fbd","63691626d63b0d82a8c351e5","359","","j","","","","","","","","./tasks/HMM-beads/Images/NewTrialWC.png","lowH","21","2","2","2","2","true","","","","","","","","","","","","","","","","",""
"image-keyboard-response","141","351584","0.0-4.0-6.0-1.0-1.21","57564c3d947a3d0007b545d6","63690f60c96a0a9a64b48fbd","63691626d63b0d82a8c351e5","null","","null","","","","","","","","./tasks/HMM-beads/Images/WhiteBeadChoice.png","","","","","","","","","","","","","","","","","","","","","","","",""
"image-keyboard-response","142","352098","0.0-4.0-6.0-1.0-2.21","57564c3d947a3d0007b545d6","63690f60c96a0a9a64b48fbd","63691626d63b0d82a8c351e5","null","","null","","","","","","","","./tasks/HMM-beads/Images/WhiteBeadChoiceCorrect.png","","","","","","","","","","","","","","","","","","","","","","","",""
"image-keyboard-response","143","352270","0.0-4.0-6.0-1.0-0.22","57564c3d947a3d0007b545d6","63690f60c96a0a9a64b48fbd","63691626d63b0d82a8c351e5","170","","j","","","","","","","","./tasks/HMM-beads/Images/NewTrialWC.png","lowH","22","2","2","2","2","true","","","","","","","","","","","","","","","","",""
"image-keyboard-response","144","352581","0.0-4.0-6.0-1.0-1.22","57564c3d947a3d0007b545d6","63690f60c96a0a9a64b48fbd","63691626d63b0d82a8c351e5","null","","null","","","","","","","","./tasks/HMM-beads/Images/WhiteBeadChoice.png","","","","","","","","","","","","","","","","","","","","","","","",""
"image-keyboard-response","145","353097","0.0-4.0-6.0-1.0-2.22","57564c3d947a3d0007b545d6","63690f60c96a0a9a64b48fbd","63691626d63b0d82a8c351e5","null","","null","","","","","","","","./tasks/HMM-beads/Images/WhiteBeadChoiceCorrect.png","","","","","","","","","","","","","","","","","","","","","","","",""
"image-keyboard-response","146","353395","0.0-4.0-6.0-1.0-0.23","57564c3d947a3d0007b545d6","63690f60c96a0a9a64b48fbd","63691626d63b0d82a8c351e5","295","","j","","","","","","","","./tasks/HMM-beads/Images/NewTrialWC.png","lowH","23","2","2","2","2","true","","","","","","","","","","","","","","","","",""
"image-keyboard-response","147","353716","0.0-4.0-6.0-1.0-1.23","57564c3d947a3d0007b545d6","63690f60c96a0a9a64b48fbd","63691626d63b0d82a8c351e5","null","","null","","","","","","","","./tasks/HMM-beads/Images/WhiteBeadChoice.png","","","","","","","","","","","","","","","","","","","","","","","",""
"image-keyboard-response","148","354224","0.0-4.0-6.0-1.0-2.23","57564c3d947a3d0007b545d6","63690f60c96a0a9a64b48fbd","63691626d63b0d82a8c351e5","null","","null","","","","","","","","./tasks/HMM-beads/Images/WhiteBeadChoiceCorrect.png","","","","","","","","","","","","","","","","","","","","","","","",""
"image-keyboard-response","149","354844","0.0-4.0-6.0-1.0-0.24","57564c3d947a3d0007b545d6","63690f60c96a0a9a64b48fbd","63691626d63b0d82a8c351e5","618","","j","","","","","","","","./tasks/HMM-beads/Images/NewTrialWC.png","lowH","24","2","2","2","2","true","","","","","","","","","","","","","","","","",""
"image-keyboard-response","150","355154","0.0-4.0-6.0-1.0-1.24","57564c3d947a3d0007b545d6","63690f60c96a0a9a64b48fbd","63691626d63b0d82a8c351e5","null","","null","","","","","","","","./tasks/HMM-beads/Images/WhiteBeadChoice.png","","","","","","","","","","","","","","","","","","","","","","","",""
"image-keyboard-response","151","355671","0.0-4.0-6.0-1.0-2.24","57564c3d947a3d0007b545d6","63690f60c96a0a9a64b48fbd","63691626d63b0d82a8c351e5","null","","null","","","","","","","","./tasks/HMM-beads/Images/WhiteBeadChoiceCorrect.png","","","","","","","","","","","","","","","","","","","","","","","",""
"image-keyboard-response","152","356130","0.0-4.0-6.0-1.0-0.25","57564c3d947a3d0007b545d6","63690f60c96a0a9a64b48fbd","63691626d63b0d82a8c351e5","457","","j","","","","","","","","./tasks/HMM-beads/Images/NewTrialWC.png","lowH","25","2","2","2","2","true","","","","","","","","","","","","","","","","",""
"image-keyboard-response","153","356450","0.0-4.0-6.0-1.0-1.25","57564c3d947a3d0007b545d6","63690f60c96a0a9a64b48fbd","63691626d63b0d82a8c351e5","null","","null","","","","","","","","./tasks/HMM-beads/Images/WhiteBeadChoice.png","","","","","","","","","","","","","","","","","","","","","","","",""
"image-keyboard-response","154","356964","0.0-4.0-6.0-1.0-2.25","57564c3d947a3d0007b545d6","63690f60c96a0a9a64b48fbd","63691626d63b0d82a8c351e5","null","","null","","","","","","","","./tasks/HMM-beads/Images/WhiteBeadChoiceCorrect.png","","","","","","","","","","","","","","","","","","","","","","","",""
"image-keyboard-response","155","357093","0.0-4.0-6.0-1.0-0.26","57564c3d947a3d0007b545d6","63690f60c96a0a9a64b48fbd","63691626d63b0d82a8c351e5","128","","j","","","","","","","","./tasks/HMM-beads/Images/NewTrialWC.png","lowH","26","2","2","2","2","true","","","","","","","","","","","","","","","","",""
"image-keyboard-response","156","357402","0.0-4.0-6.0-1.0-1.26","57564c3d947a3d0007b545d6","63690f60c96a0a9a64b48fbd","63691626d63b0d82a8c351e5","null","","null","","","","","","","","./tasks/HMM-beads/Images/WhiteBeadChoice.png","","","","","","","","","","","","","","","","","","","","","","","",""
"image-keyboard-response","157","357917","0.0-4.0-6.0-1.0-2.26","57564c3d947a3d0007b545d6","63690f60c96a0a9a64b48fbd","63691626d63b0d82a8c351e5","null","","null","","","","","","","","./tasks/HMM-beads/Images/WhiteBeadChoiceCorrect.png","","","","","","","","","","","","","","","","","","","","","","","",""
"image-keyboard-response","158","358317","0.0-4.0-6.0-1.0-0.27","57564c3d947a3d0007b545d6","63690f60c96a0a9a64b48fbd","63691626d63b0d82a8c351e5","399","","j","","","","","","","","./tasks/HMM-beads/Images/NewTrialWC.png","lowH","27","2","2","2","2","true","","","","","","","","","","","","","","","","",""
"image-keyboard-response","159","358635","0.0-4.0-6.0-1.0-1.27","57564c3d947a3d0007b545d6","63690f60c96a0a9a64b48fbd","63691626d63b0d82a8c351e5","null","","null","","","","","","","","./tasks/HMM-beads/Images/WhiteBeadChoice.png","","","","","","","","","","","","","","","","","","","","","","","",""
"image-keyboard-response","160","359152","0.0-4.0-6.0-1.0-2.27","57564c3d947a3d0007b545d6","63690f60c96a0a9a64b48fbd","63691626d63b0d82a8c351e5","null","","null","","","","","","","","./tasks/HMM-beads/Images/WhiteBeadChoiceCorrect.png","","","","","","","","","","","","","","","","","","","","","","","",""
"image-keyboard-response","161","359417","0.0-4.0-6.0-1.0-0.28","57564c3d947a3d0007b545d6","63690f60c96a0a9a64b48fbd","63691626d63b0d82a8c351e5","263","","j","","","","","","","","./tasks/HMM-beads/Images/NewTrialWC.png","lowH","28","2","2","2","2","true","","","","","","","","","","","","","","","","",""
"image-keyboard-response","162","359731","0.0-4.0-6.0-1.0-1.28","57564c3d947a3d0007b545d6","63690f60c96a0a9a64b48fbd","63691626d63b0d82a8c351e5","null","","null","","","","","","","","./tasks/HMM-beads/Images/WhiteBeadChoice.png","","","","","","","","","","","","","","","","","","","","","","","",""
"image-keyboard-response","163","360248","0.0-4.0-6.0-1.0-2.28","57564c3d947a3d0007b545d6","63690f60c96a0a9a64b48fbd","63691626d63b0d82a8c351e5","null","","null","","","","","","","","./tasks/HMM-beads/Images/WhiteBeadChoiceCorrect.png","","","","","","","","","","","","","","","","","","","","","","","",""
"image-keyboard-response","164","360489","0.0-4.0-6.0-1.0-0.29","57564c3d947a3d0007b545d6","63690f60c96a0a9a64b48fbd","63691626d63b0d82a8c351e5","240","","j","","","","","","","","./tasks/HMM-beads/Images/NewTrialWC.png","lowH","29","2","1","2","2","false","","","","","","","","","","","","","","","","",""
"image-keyboard-response","165","360792","0.0-4.0-6.0-1.0-1.29","57564c3d947a3d0007b545d6","63690f60c96a0a9a64b48fbd","63691626d63b0d82a8c351e5","null","","null","","","","","","","","./tasks/HMM-beads/Images/WhiteBeadChoice.png","","","","","","","","","","","","","","","","","","","","","","","",""
"image-keyboard-response","166","361308","0.0-4.0-6.0-1.0-2.29","57564c3d947a3d0007b545d6","63690f60c96a0a9a64b48fbd","63691626d63b0d82a8c351e5","null","","null","","","","","","","","./tasks/HMM-beads/Images/WhiteBeadChoiceWrong.png","","","","","","","","","","","","","","","","","","","","","","","",""
"image-keyboard-response","167","362309","0.0-4.0-6.0-1.0-0.30","57564c3d947a3d0007b545d6","63690f60c96a0a9a64b48fbd","63691626d63b0d82a8c351e5","999","","j","","","","","","","","./tasks/HMM-beads/Images/NewTrialBC.png","lowH","30","2","2","1","2","true","","","","","","","","","","","","","","","","",""
"image-keyboard-response","168","362621","0.0-4.0-6.0-1.0-1.30","57564c3d947a3d0007b545d6","63690f60c96a0a9a64b48fbd","63691626d63b0d82a8c351e5","null","","null","","","","","","","","./tasks/HMM-beads/Images/WhiteBeadChoice.png","","","","","","","","","","","","","","","","","","","","","","","",""
"image-keyboard-response","169","363128","0.0-4.0-6.0-1.0-2.30","57564c3d947a3d0007b545d6","63690f60c96a0a9a64b48fbd","63691626d63b0d82a8c351e5","null","","null","","","","","","","","./tasks/HMM-beads/Images/WhiteBeadChoiceCorrect.png","","","","","","","","","","","","","","","","","","","","","","","",""
"image-keyboard-response","170","363697","0.0-4.0-6.0-1.0-0.31","57564c3d947a3d0007b545d6","63690f60c96a0a9a64b48fbd","63691626d63b0d82a8c351e5","567","","j","","","","","","","","./tasks/HMM-beads/Images/NewTrialWC.png","lowH","31","2","1","2","2","false","","","","","","","","","","","","","","","","",""
"image-keyboard-response","171","364003","0.0-4.0-6.0-1.0-1.31","57564c3d947a3d0007b545d6","63690f60c96a0a9a64b48fbd","63691626d63b0d82a8c351e5","null","","null","","","","","","","","./tasks/HMM-beads/Images/WhiteBeadChoice.png","","","","","","","","","","","","","","","","","","","","","","","",""
"image-keyboard-response","172","364521","0.0-4.0-6.0-1.0-2.31","57564c3d947a3d0007b545d6","63690f60c96a0a9a64b48fbd","63691626d63b0d82a8c351e5","null","","null","","","","","","","","./tasks/HMM-beads/Images/WhiteBeadChoiceWrong.png","","","","","","","","","","","","","","","","","","","","","","","",""
"image-keyboard-response","173","364903","0.0-4.0-6.0-1.0-0.32","57564c3d947a3d0007b545d6","63690f60c96a0a9a64b48fbd","63691626d63b0d82a8c351e5","381","","j","","","","","","","","./tasks/HMM-beads/Images/NewTrialBC.png","lowH","32","2","2","1","2","true","","","","","","","","","","","","","","","","",""
"image-keyboard-response","174","365209","0.0-4.0-6.0-1.0-1.32","57564c3d947a3d0007b545d6","63690f60c96a0a9a64b48fbd","63691626d63b0d82a8c351e5","null","","null","","","","","","","","./tasks/HMM-beads/Images/WhiteBeadChoice.png","","","","","","","","","","","","","","","","","","","","","","","",""
"image-keyboard-response","175","365714","0.0-4.0-6.0-1.0-2.32","57564c3d947a3d0007b545d6","63690f60c96a0a9a64b48fbd","63691626d63b0d82a8c351e5","null","","null","","","","","","","","./tasks/HMM-beads/Images/WhiteBeadChoiceCorrect.png","","","","","","","","","","","","","","","","","","","","","","","",""
"image-keyboard-response","176","365907","0.0-4.0-6.0-1.0-0.33","57564c3d947a3d0007b545d6","63690f60c96a0a9a64b48fbd","63691626d63b0d82a8c351e5","192","","j","","","","","","","","./tasks/HMM-beads/Images/NewTrialWC.png","lowH","33","2","2","2","2","true","","","","","","","","","","","","","","","","",""
"image-keyboard-response","177","366228","0.0-4.0-6.0-1.0-1.33","57564c3d947a3d0007b545d6","63690f60c96a0a9a64b48fbd","63691626d63b0d82a8c351e5","null","","null","","","","","","","","./tasks/HMM-beads/Images/WhiteBeadChoice.png","","","","","","","","","","","","","","","","","","","","","","","",""
"image-keyboard-response","178","366746","0.0-4.0-6.0-1.0-2.33","57564c3d947a3d0007b545d6","63690f60c96a0a9a64b48fbd","63691626d63b0d82a8c351e5","null","","null","","","","","","","","./tasks/HMM-beads/Images/WhiteBeadChoiceCorrect.png","","","","","","","","","","","","","","","","","","","","","","","",""
"image-keyboard-response","179","366969","0.0-4.0-6.0-1.0-0.34","57564c3d947a3d0007b545d6","63690f60c96a0a9a64b48fbd","63691626d63b0d82a8c351e5","222","","j","","","","","","","","./tasks/HMM-beads/Images/NewTrialWC.png","lowH","34","2","2","2","2","true","","","","","","","","","","","","","","","","",""
"image-keyboard-response","180","367271","0.0-4.0-6.0-1.0-1.34","57564c3d947a3d0007b545d6","63690f60c96a0a9a64b48fbd","63691626d63b0d82a8c351e5","null","","null","","","","","","","","./tasks/HMM-beads/Images/WhiteBeadChoice.png","","","","","","","","","","","","","","","","","","","","","","","",""
"image-keyboard-response","181","367787","0.0-4.0-6.0-1.0-2.34","57564c3d947a3d0007b545d6","63690f60c96a0a9a64b48fbd","63691626d63b0d82a8c351e5","null","","null","","","","","","","","./tasks/HMM-beads/Images/WhiteBeadChoiceCorrect.png","","","","","","","","","","","","","","","","","","","","","","","",""
"image-keyboard-response","182","367974","0.0-4.0-6.0-1.0-0.35","57564c3d947a3d0007b545d6","63690f60c96a0a9a64b48fbd","63691626d63b0d82a8c351e5","185","","j","","","","","","","","./tasks/HMM-beads/Images/NewTrialWC.png","lowH","35","2","2","2","2","true","","","","","","","","","","","","","","","","",""
"image-keyboard-response","183","368286","0.0-4.0-6.0-1.0-1.35","57564c3d947a3d0007b545d6","63690f60c96a0a9a64b48fbd","63691626d63b0d82a8c351e5","null","","null","","","","","","","","./tasks/HMM-beads/Images/WhiteBeadChoice.png","","","","","","","","","","","","","","","","","","","","","","","",""
"image-keyboard-response","184","368800","0.0-4.0-6.0-1.0-2.35","57564c3d947a3d0007b545d6","63690f60c96a0a9a64b48fbd","63691626d63b0d82a8c351e5","null","","null","","","","","","","","./tasks/HMM-beads/Images/WhiteBeadChoiceCorrect.png","","","","","","","","","","","","","","","","","","","","","","","",""
"image-keyboard-response","185","369049","0.0-4.0-6.0-1.0-0.36","57564c3d947a3d0007b545d6","63690f60c96a0a9a64b48fbd","63691626d63b0d82a8c351e5","241","","j","","","","","","","","./tasks/HMM-beads/Images/NewTrialWC.png","lowH","36","2","2","2","2","true","","","","","","","","","","","","","","","","",""
"image-keyboard-response","186","369362","0.0-4.0-6.0-1.0-1.36","57564c3d947a3d0007b545d6","63690f60c96a0a9a64b48fbd","63691626d63b0d82a8c351e5","null","","null","","","","","","","","./tasks/HMM-beads/Images/WhiteBeadChoice.png","","","","","","","","","","","","","","","","","","","","","","","",""
"image-keyboard-response","187","369876","0.0-4.0-6.0-1.0-2.36","57564c3d947a3d0007b545d6","63690f60c96a0a9a64b48fbd","63691626d63b0d82a8c351e5","null","","null","","","","","","","","./tasks/HMM-beads/Images/WhiteBeadChoiceCorrect.png","","","","","","","","","","","","","","","","","","","","","","","",""
"image-keyboard-response","188","371015","0.0-4.0-6.0-1.0-0.37","57564c3d947a3d0007b545d6","63690f60c96a0a9a64b48fbd","63691626d63b0d82a8c351e5","1138","","f","","","","","","","","./tasks/HMM-beads/Images/NewTrialWC.png","lowH","37","2","2","2","1","false","","","","","","","","","","","","","","","","",""
"image-keyboard-response","189","371325","0.0-4.0-6.0-1.0-1.37","57564c3d947a3d0007b545d6","63690f60c96a0a9a64b48fbd","63691626d63b0d82a8c351e5","null","","null","","","","","","","","./tasks/HMM-beads/Images/BlackBeadChoice.png","","","","","","","","","","","","","","","","","","","","","","","",""
"image-keyboard-response","190","371841","0.0-4.0-6.0-1.0-2.37","57564c3d947a3d0007b545d6","63690f60c96a0a9a64b48fbd","63691626d63b0d82a8c351e5","null","","null","","","","","","","","./tasks/HMM-beads/Images/BlackBeadChoiceWrong.png","","","","","","","","","","","","","","","","","","","","","","","",""
"image-keyboard-response","191","371871","0.0-4.0-6.0-1.0-0.38","57564c3d947a3d0007b545d6","63690f60c96a0a9a64b48fbd","63691626d63b0d82a8c351e5","29","","j","","","","","","","","./tasks/HMM-beads/Images/NewTrialWC.png","lowH","38","2","2","2","2","true","","","","","","","","","","","","","","","","",""
"image-keyboard-response","192","372183","0.0-4.0-6.0-1.0-1.38","57564c3d947a3d0007b545d6","63690f60c96a0a9a64b48fbd","63691626d63b0d82a8c351e5","null","","null","","","","","","","","./tasks/HMM-beads/Images/WhiteBeadChoice.png","","","","","","","","","","","","","","","","","","","","","","","",""
"image-keyboard-response","193","372696","0.0-4.0-6.0-1.0-2.38","57564c3d947a3d0007b545d6","63690f60c96a0a9a64b48fbd","63691626d63b0d82a8c351e5","null","","null","","","","","","","","./tasks/HMM-beads/Images/WhiteBeadChoiceCorrect.png","","","","","","","","","","","","","","","","","","","","","","","",""
"image-keyboard-response","194","372860","0.0-4.0-6.0-1.0-0.39","57564c3d947a3d0007b545d6","63690f60c96a0a9a64b48fbd","63691626d63b0d82a8c351e5","163","","j","","","","","","","","./tasks/HMM-beads/Images/NewTrialWC.png","lowH","39","2","1","2","2","false","","","","","","","","","","","","","","","","",""
"image-keyboard-response","195","373179","0.0-4.0-6.0-1.0-1.39","57564c3d947a3d0007b545d6","63690f60c96a0a9a64b48fbd","63691626d63b0d82a8c351e5","null","","null","","","","","","","","./tasks/HMM-beads/Images/WhiteBeadChoice.png","","","","","","","","","","","","","","","","","","","","","","","",""
"image-keyboard-response","196","373698","0.0-4.0-6.0-1.0-2.39","57564c3d947a3d0007b545d6","63690f60c96a0a9a64b48fbd","63691626d63b0d82a8c351e5","null","","null","","","","","","","","./tasks/HMM-beads/Images/WhiteBeadChoiceWrong.png","","","","","","","","","","","","","","","","","","","","","","","",""
"image-keyboard-response","197","374613","0.0-4.0-6.0-1.0-0.40","57564c3d947a3d0007b545d6","63690f60c96a0a9a64b48fbd","63691626d63b0d82a8c351e5","912","","j","","","","","","","","./tasks/HMM-beads/Images/NewTrialBC.png","lowH","40","2","2","1","2","true","","","","","","","","","","","","","","","","",""
"image-keyboard-response","198","374932","0.0-4.0-6.0-1.0-1.40","57564c3d947a3d0007b545d6","63690f60c96a0a9a64b48fbd","63691626d63b0d82a8c351e5","null","","null","","","","","","","","./tasks/HMM-beads/Images/WhiteBeadChoice.png","","","","","","","","","","","","","","","","","","","","","","","",""
"image-keyboard-response","199","375451","0.0-4.0-6.0-1.0-2.40","57564c3d947a3d0007b545d6","63690f60c96a0a9a64b48fbd","63691626d63b0d82a8c351e5","null","","null","","","","","","","","./tasks/HMM-beads/Images/WhiteBeadChoiceCorrect.png","","","","","","","","","","","","","","","","","","","","","","","",""
"image-keyboard-response","200","375919","0.0-4.0-6.0-1.0-0.41","57564c3d947a3d0007b545d6","63690f60c96a0a9a64b48fbd","63691626d63b0d82a8c351e5","466","","j","","","","","","","","./tasks/HMM-beads/Images/NewTrialWC.png","lowH","41","2","1","2","2","false","","","","","","","","","","","","","","","","",""
"image-keyboard-response","201","376231","0.0-4.0-6.0-1.0-1.41","57564c3d947a3d0007b545d6","63690f60c96a0a9a64b48fbd","63691626d63b0d82a8c351e5","null","","null","","","","","","","","./tasks/HMM-beads/Images/WhiteBeadChoice.png","","","","","","","","","","","","","","","","","","","","","","","",""
"image-keyboard-response","202","376749","0.0-4.0-6.0-1.0-2.41","57564c3d947a3d0007b545d6","63690f60c96a0a9a64b48fbd","63691626d63b0d82a8c351e5","null","","null","","","","","","","","./tasks/HMM-beads/Images/WhiteBeadChoiceWrong.png","","","","","","","","","","","","","","","","","","","","","","","",""
"image-keyboard-response","203","377818","0.0-4.0-6.0-1.0-0.42","57564c3d947a3d0007b545d6","63690f60c96a0a9a64b48fbd","63691626d63b0d82a8c351e5","1068","","f","","","","","","","","./tasks/HMM-beads/Images/NewTrialBC.png","lowH","42","2","1","1","1","true","","","","","","","","","","","","","","","","",""
"image-keyboard-response","204","378135","0.0-4.0-6.0-1.0-1.42","57564c3d947a3d0007b545d6","63690f60c96a0a9a64b48fbd","63691626d63b0d82a8c351e5","null","","null","","","","","","","","./tasks/HMM-beads/Images/BlackBeadChoice.png","","","","","","","","","","","","","","","","","","","","","","","",""
"image-keyboard-response","205","378653","0.0-4.0-6.0-1.0-2.42","57564c3d947a3d0007b545d6","63690f60c96a0a9a64b48fbd","63691626d63b0d82a8c351e5","null","","null","","","","","","","","./tasks/HMM-beads/Images/BlackBeadChoiceCorrect.png","","","","","","","","","","","","","","","","","","","","","","","",""
"image-keyboard-response","206","378964","0.0-4.0-6.0-1.0-0.43","57564c3d947a3d0007b545d6","63690f60c96a0a9a64b48fbd","63691626d63b0d82a8c351e5","310","","f","","","","","","","","./tasks/HMM-beads/Images/NewTrialBC.png","lowH","43","2","2","1","1","false","","","","","","","","","","","","","","","","",""
"image-keyboard-response","207","379277","0.0-4.0-6.0-1.0-1.43","57564c3d947a3d0007b545d6","63690f60c96a0a9a64b48fbd","63691626d63b0d82a8c351e5","null","","null","","","","","","","","./tasks/HMM-beads/Images/BlackBeadChoice.png","","","","","","","","","","","","","","","","","","","","","","","",""
"image-keyboard-response","208","379791","0.0-4.0-6.0-1.0-2.43","57564c3d947a3d0007b545d6","63690f60c96a0a9a64b48fbd","63691626d63b0d82a8c351e5","null","","null","","","","","","","","./tasks/HMM-beads/Images/BlackBeadChoiceWrong.png","","","","","","","","","","","","","","","","","","","","","","","",""
"image-keyboard-response","209","379928","0.0-4.0-6.0-1.0-0.44","57564c3d947a3d0007b545d6","63690f60c96a0a9a64b48fbd","63691626d63b0d82a8c351e5","135","","j","","","","","","","","./tasks/HMM-beads/Images/NewTrialWC.png","lowH","44","2","2","2","2","true","","","","","","","","","","","","","","","","",""
"image-keyboard-response","210","380244","0.0-4.0-6.0-1.0-1.44","57564c3d947a3d0007b545d6","63690f60c96a0a9a64b48fbd","63691626d63b0d82a8c351e5","null","","null","","","","","","","","./tasks/HMM-beads/Images/WhiteBeadChoice.png","","","","","","","","","","","","","","","","","","","","","","","",""
"image-keyboard-response","211","380758","0.0-4.0-6.0-1.0-2.44","57564c3d947a3d0007b545d6","63690f60c96a0a9a64b48fbd","63691626d63b0d82a8c351e5","null","","null","","","","","","","","./tasks/HMM-beads/Images/WhiteBeadChoiceCorrect.png","","","","","","","","","","","","","","","","","","","","","","","",""
"image-keyboard-response","212","380810","0.0-4.0-6.0-1.0-0.45","57564c3d947a3d0007b545d6","63690f60c96a0a9a64b48fbd","63691626d63b0d82a8c351e5","51","","j","","","","","","","","./tasks/HMM-beads/Images/NewTrialWC.png","lowH","45","2","1","2","2","false","","","","","","","","","","","","","","","","",""
"image-keyboard-response","213","381134","0.0-4.0-6.0-1.0-1.45","57564c3d947a3d0007b545d6","63690f60c96a0a9a64b48fbd","63691626d63b0d82a8c351e5","null","","null","","","","","","","","./tasks/HMM-beads/Images/WhiteBeadChoice.png","","","","","","","","","","","","","","","","","","","","","","","",""
"image-keyboard-response","214","381645","0.0-4.0-6.0-1.0-2.45","57564c3d947a3d0007b545d6","63690f60c96a0a9a64b48fbd","63691626d63b0d82a8c351e5","null","","null","","","","","","","","./tasks/HMM-beads/Images/WhiteBeadChoiceWrong.png","","","","","","","","","","","","","","","","","","","","","","","",""
"image-keyboard-response","215","381926","0.0-4.0-6.0-1.0-0.46","57564c3d947a3d0007b545d6","63690f60c96a0a9a64b48fbd","63691626d63b0d82a8c351e5","279","","f","","","","","","","","./tasks/HMM-beads/Images/NewTrialBC.png","lowH","46","2","2","1","1","false","","","","","","","","","","","","","","","","",""
"image-keyboard-response","216","382251","0.0-4.0-6.0-1.0-1.46","57564c3d947a3d0007b545d6","63690f60c96a0a9a64b48fbd","63691626d63b0d82a8c351e5","null","","null","","","","","","","","./tasks/HMM-beads/Images/BlackBeadChoice.png","","","","","","","","","","","","","","","","","","","","","","","",""
"image-keyboard-response","217","382764","0.0-4.0-6.0-1.0-2.46","57564c3d947a3d0007b545d6","63690f60c96a0a9a64b48fbd","63691626d63b0d82a8c351e5","null","","null","","","","","","","","./tasks/HMM-beads/Images/BlackBeadChoiceWrong.png","","","","","","","","","","","","","","","","","","","","","","","",""
"image-keyboard-response","218","382780","0.0-4.0-6.0-1.0-0.47","57564c3d947a3d0007b545d6","63690f60c96a0a9a64b48fbd","63691626d63b0d82a8c351e5","15","","j","","","","","","","","./tasks/HMM-beads/Images/NewTrialWC.png","lowH","47","2","2","2","2","true","","","","","","","","","","","","","","","","",""
"image-keyboard-response","219","383090","0.0-4.0-6.0-1.0-1.47","57564c3d947a3d0007b545d6","63690f60c96a0a9a64b48fbd","63691626d63b0d82a8c351e5","null","","null","","","","","","","","./tasks/HMM-beads/Images/WhiteBeadChoice.png","","","","","","","","","","","","","","","","","","","","","","","",""
"image-keyboard-response","220","383614","0.0-4.0-6.0-1.0-2.47","57564c3d947a3d0007b545d6","63690f60c96a0a9a64b48fbd","63691626d63b0d82a8c351e5","null","","null","","","","","","","","./tasks/HMM-beads/Images/WhiteBeadChoiceCorrect.png","","","","","","","","","","","","","","","","","","","","","","","",""
"image-keyboard-response","221","383775","0.0-4.0-6.0-1.0-0.48","57564c3d947a3d0007b545d6","63690f60c96a0a9a64b48fbd","63691626d63b0d82a8c351e5","160","","j","","","","","","","","./tasks/HMM-beads/Images/NewTrialWC.png","lowH","48","2","2","2","2","true","","","","","","","","","","","","","","","","",""
"image-keyboard-response","222","384080","0.0-4.0-6.0-1.0-1.48","57564c3d947a3d0007b545d6","63690f60c96a0a9a64b48fbd","63691626d63b0d82a8c351e5","null","","null","","","","","","","","./tasks/HMM-beads/Images/WhiteBeadChoice.png","","","","","","","","","","","","","","","","","","","","","","","",""
"image-keyboard-response","223","384593","0.0-4.0-6.0-1.0-2.48","57564c3d947a3d0007b545d6","63690f60c96a0a9a64b48fbd","63691626d63b0d82a8c351e5","null","","null","","","","","","","","./tasks/HMM-beads/Images/WhiteBeadChoiceCorrect.png","","","","","","","","","","","","","","","","","","","","","","","",""
"image-keyboard-response","224","385022","0.0-4.0-6.0-1.0-0.49","57564c3d947a3d0007b545d6","63690f60c96a0a9a64b48fbd","63691626d63b0d82a8c351e5","428","","j","","","","","","","","./tasks/HMM-beads/Images/NewTrialWC.png","lowH","49","2","2","2","2","true","","","","","","","","","","","","","","","","",""
"image-keyboard-response","225","385336","0.0-4.0-6.0-1.0-1.49","57564c3d947a3d0007b545d6","63690f60c96a0a9a64b48fbd","63691626d63b0d82a8c351e5","null","","null","","","","","","","","./tasks/HMM-beads/Images/WhiteBeadChoice.png","","","","","","","","","","","","","","","","","","","","","","","",""
"image-keyboard-response","226","385846","0.0-4.0-6.0-1.0-2.49","57564c3d947a3d0007b545d6","63690f60c96a0a9a64b48fbd","63691626d63b0d82a8c351e5","null","","null","","","","","","","","./tasks/HMM-beads/Images/WhiteBeadChoiceCorrect.png","","","","","","","","","","","","","","","","","","","","","","","",""
"image-keyboard-response","227","386193","0.0-4.0-6.0-1.0-0.50","57564c3d947a3d0007b545d6","63690f60c96a0a9a64b48fbd","63691626d63b0d82a8c351e5","346","","j","","","","","","","","./tasks/HMM-beads/Images/NewTrialWC.png","lowH","50","2","1","2","2","false","","","","","","","","","","","","","","","","",""
"image-keyboard-response","228","386512","0.0-4.0-6.0-1.0-1.50","57564c3d947a3d0007b545d6","63690f60c96a0a9a64b48fbd","63691626d63b0d82a8c351e5","null","","null","","","","","","","","./tasks/HMM-beads/Images/WhiteBeadChoice.png","","","","","","","","","","","","","","","","","","","","","","","",""
"image-keyboard-response","229","387027","0.0-4.0-6.0-1.0-2.50","57564c3d947a3d0007b545d6","63690f60c96a0a9a64b48fbd","63691626d63b0d82a8c351e5","null","","null","","","","","","","","./tasks/HMM-beads/Images/WhiteBeadChoiceWrong.png","","","","","","","","","","","","","","","","","","","","","","","",""
"image-keyboard-response","230","387322","0.0-4.0-6.0-1.0-0.51","57564c3d947a3d0007b545d6","63690f60c96a0a9a64b48fbd","63691626d63b0d82a8c351e5","294","","j","","","","","","","","./tasks/HMM-beads/Images/NewTrialBC.png","lowH","51","2","1","1","2","false","","","","","","","","","","","","","","","","",""
"image-keyboard-response","231","387646","0.0-4.0-6.0-1.0-1.51","57564c3d947a3d0007b545d6","63690f60c96a0a9a64b48fbd","63691626d63b0d82a8c351e5","null","","null","","","","","","","","./tasks/HMM-beads/Images/WhiteBeadChoice.png","","","","","","","","","","","","","","","","","","","","","","","",""
"image-keyboard-response","232","388161","0.0-4.0-6.0-1.0-2.51","57564c3d947a3d0007b545d6","63690f60c96a0a9a64b48fbd","63691626d63b0d82a8c351e5","null","","null","","","","","","","","./tasks/HMM-beads/Images/WhiteBeadChoiceWrong.png","","","","","","","","","","","","","","","","","","","","","","","",""
"image-keyboard-response","233","388469","0.0-4.0-6.0-1.0-0.52","57564c3d947a3d0007b545d6","63690f60c96a0a9a64b48fbd","63691626d63b0d82a8c351e5","307","","j","","","","","","","","./tasks/HMM-beads/Images/NewTrialBC.png","lowH","52","2","2","1","2","true","","","","","","","","","","","","","","","","",""
"image-keyboard-response","234","388786","0.0-4.0-6.0-1.0-1.52","57564c3d947a3d0007b545d6","63690f60c96a0a9a64b48fbd","63691626d63b0d82a8c351e5","null","","null","","","","","","","","./tasks/HMM-beads/Images/WhiteBeadChoice.png","","","","","","","","","","","","","","","","","","","","","","","",""
"image-keyboard-response","235","389303","0.0-4.0-6.0-1.0-2.52","57564c3d947a3d0007b545d6","63690f60c96a0a9a64b48fbd","63691626d63b0d82a8c351e5","null","","null","","","","","","","","./tasks/HMM-beads/Images/WhiteBeadChoiceCorrect.png","","","","","","","","","","","","","","","","","","","","","","","",""
"image-keyboard-response","236","389651","0.0-4.0-6.0-1.0-0.53","57564c3d947a3d0007b545d6","63690f60c96a0a9a64b48fbd","63691626d63b0d82a8c351e5","346","","j","","","","","","","","./tasks/HMM-beads/Images/NewTrialWC.png","lowH","53","2","2","2","2","true","","","","","","","","","","","","","","","","",""
"image-keyboard-response","237","389971","0.0-4.0-6.0-1.0-1.53","57564c3d947a3d0007b545d6","63690f60c96a0a9a64b48fbd","63691626d63b0d82a8c351e5","null","","null","","","","","","","","./tasks/HMM-beads/Images/WhiteBeadChoice.png","","","","","","","","","","","","","","","","","","","","","","","",""
"image-keyboard-response","238","390481","0.0-4.0-6.0-1.0-2.53","57564c3d947a3d0007b545d6","63690f60c96a0a9a64b48fbd","63691626d63b0d82a8c351e5","null","","null","","","","","","","","./tasks/HMM-beads/Images/WhiteBeadChoiceCorrect.png","","","","","","","","","","","","","","","","","","","","","","","",""
"image-keyboard-response","239","390809","0.0-4.0-6.0-1.0-0.54","57564c3d947a3d0007b545d6","63690f60c96a0a9a64b48fbd","63691626d63b0d82a8c351e5","327","","j","","","","","","","","./tasks/HMM-beads/Images/NewTrialWC.png","lowH","54","2","2","2","2","true","","","","","","","","","","","","","","","","",""
"image-keyboard-response","240","391123","0.0-4.0-6.0-1.0-1.54","57564c3d947a3d0007b545d6","63690f60c96a0a9a64b48fbd","63691626d63b0d82a8c351e5","null","","null","","","","","","","","./tasks/HMM-beads/Images/WhiteBeadChoice.png","","","","","","","","","","","","","","","","","","","","","","","",""
"image-keyboard-response","241","391634","0.0-4.0-6.0-1.0-2.54","57564c3d947a3d0007b545d6","63690f60c96a0a9a64b48fbd","63691626d63b0d82a8c351e5","null","","null","","","","","","","","./tasks/HMM-beads/Images/WhiteBeadChoiceCorrect.png","","","","","","","","","","","","","","","","","","","","","","","",""
"image-keyboard-response","242","391796","0.0-4.0-6.0-1.0-0.55","57564c3d947a3d0007b545d6","63690f60c96a0a9a64b48fbd","63691626d63b0d82a8c351e5","161","","j","","","","","","","","./tasks/HMM-beads/Images/NewTrialWC.png","lowH","55","2","2","2","2","true","","","","","","","","","","","","","","","","",""
"image-keyboard-response","243","392114","0.0-4.0-6.0-1.0-1.55","57564c3d947a3d0007b545d6","63690f60c96a0a9a64b48fbd","63691626d63b0d82a8c351e5","null","","null","","","","","","","","./tasks/HMM-beads/Images/WhiteBeadChoice.png","","","","","","","","","","","","","","","","","","","","","","","",""
"image-keyboard-response","244","392626","0.0-4.0-6.0-1.0-2.55","57564c3d947a3d0007b545d6","63690f60c96a0a9a64b48fbd","63691626d63b0d82a8c351e5","null","","null","","","","","","","","./tasks/HMM-beads/Images/WhiteBeadChoiceCorrect.png","","","","","","","","","","","","","","","","","","","","","","","",""
"image-keyboard-response","245","392749","0.0-4.0-6.0-1.0-0.56","57564c3d947a3d0007b545d6","63690f60c96a0a9a64b48fbd","63691626d63b0d82a8c351e5","121","","j","","","","","","","","./tasks/HMM-beads/Images/NewTrialWC.png","lowH","56","2","1","2","2","false","","","","","","","","","","","","","","","","",""
"image-keyboard-response","246","393060","0.0-4.0-6.0-1.0-1.56","57564c3d947a3d0007b545d6","63690f60c96a0a9a64b48fbd","63691626d63b0d82a8c351e5","null","","null","","","","","","","","./tasks/HMM-beads/Images/WhiteBeadChoice.png","","","","","","","","","","","","","","","","","","","","","","","",""
"image-keyboard-response","247","393570","0.0-4.0-6.0-1.0-2.56","57564c3d947a3d0007b545d6","63690f60c96a0a9a64b48fbd","63691626d63b0d82a8c351e5","null","","null","","","","","","","","./tasks/HMM-beads/Images/WhiteBeadChoiceWrong.png","","","","","","","","","","","","","","","","","","","","","","","",""
"image-keyboard-response","248","393818","0.0-4.0-6.0-1.0-0.57","57564c3d947a3d0007b545d6","63690f60c96a0a9a64b48fbd","63691626d63b0d82a8c351e5","245","","f","","","","","","","","./tasks/HMM-beads/Images/NewTrialBC.png","lowH","57","2","2","1","1","false","","","","","","","","","","","","","","","","",""
"image-keyboard-response","249","394142","0.0-4.0-6.0-1.0-1.57","57564c3d947a3d0007b545d6","63690f60c96a0a9a64b48fbd","63691626d63b0d82a8c351e5","null","","null","","","","","","","","./tasks/HMM-beads/Images/BlackBeadChoice.png","","","","","","","","","","","","","","","","","","","","","","","",""
"image-keyboard-response","250","394661","0.0-4.0-6.0-1.0-2.57","57564c3d947a3d0007b545d6","63690f60c96a0a9a64b48fbd","63691626d63b0d82a8c351e5","null","","null","","","","","","","","./tasks/HMM-beads/Images/BlackBeadChoiceWrong.png","","","","","","","","","","","","","","","","","","","","","","","",""
"image-keyboard-response","251","394790","0.0-4.0-6.0-1.0-0.58","57564c3d947a3d0007b545d6","63690f60c96a0a9a64b48fbd","63691626d63b0d82a8c351e5","128","","j","","","","","","","","./tasks/HMM-beads/Images/NewTrialWC.png","lowH","58","2","1","2","2","false","","","","","","","","","","","","","","","","",""
"image-keyboard-response","252","395099","0.0-4.0-6.0-1.0-1.58","57564c3d947a3d0007b545d6","63690f60c96a0a9a64b48fbd","63691626d63b0d82a8c351e5","null","","null","","","","","","","","./tasks/HMM-beads/Images/WhiteBeadChoice.png","","","","","","","","","","","","","","","","","","","","","","","",""
"image-keyboard-response","253","395614","0.0-4.0-6.0-1.0-2.58","57564c3d947a3d0007b545d6","63690f60c96a0a9a64b48fbd","63691626d63b0d82a8c351e5","null","","null","","","","","","","","./tasks/HMM-beads/Images/WhiteBeadChoiceWrong.png","","","","","","","","","","","","","","","","","","","","","","","",""
"image-keyboard-response","254","395904","0.0-4.0-6.0-1.0-0.59","57564c3d947a3d0007b545d6","63690f60c96a0a9a64b48fbd","63691626d63b0d82a8c351e5","288","","f","","","","","","","","./tasks/HMM-beads/Images/NewTrialBC.png","lowH","59","2","1","1","1","true","","","","","","","","","","","","","","","","",""
"image-keyboard-response","255","396220","0.0-4.0-6.0-1.0-1.59","57564c3d947a3d0007b545d6","63690f60c96a0a9a64b48fbd","63691626d63b0d82a8c351e5","null","","null","","","","","","","","./tasks/HMM-beads/Images/BlackBeadChoice.png","","","","","","","","","","","","","","","","","","","","","","","",""
"image-keyboard-response","256","396733","0.0-4.0-6.0-1.0-2.59","57564c3d947a3d0007b545d6","63690f60c96a0a9a64b48fbd","63691626d63b0d82a8c351e5","null","","null","","","","","","","","./tasks/HMM-beads/Images/BlackBeadChoiceCorrect.png","","","","","","","","","","","","","","","","","","","","","","","",""
"image-keyboard-response","257","396879","0.0-4.0-6.0-1.0-0.60","57564c3d947a3d0007b545d6","63690f60c96a0a9a64b48fbd","63691626d63b0d82a8c351e5","144","","f","","","","","","","","./tasks/HMM-beads/Images/NewTrialBC.png","lowH","60","2","2","1","1","false","","","","","","","","","","","","","","","","",""
"image-keyboard-response","258","397184","0.0-4.0-6.0-1.0-1.60","57564c3d947a3d0007b545d6","63690f60c96a0a9a64b48fbd","63691626d63b0d82a8c351e5","null","","null","","","","","","","","./tasks/HMM-beads/Images/BlackBeadChoice.png","","","","","","","","","","","","","","","","","","","","","","","",""
"image-keyboard-response","259","397699","0.0-4.0-6.0-1.0-2.60","57564c3d947a3d0007b545d6","63690f60c96a0a9a64b48fbd","63691626d63b0d82a8c351e5","null","","null","","","","","","","","./tasks/HMM-beads/Images/BlackBeadChoiceWrong.png","","","","","","","","","","","","","","","","","","","","","","","",""
"image-keyboard-response","260","397753","0.0-4.0-6.0-1.0-0.61","57564c3d947a3d0007b545d6","63690f60c96a0a9a64b48fbd","63691626d63b0d82a8c351e5","52","","j","","","","","","","","./tasks/HMM-beads/Images/NewTrialWC.png","lowH","61","2","2","2","2","true","","","","","","","","","","","","","","","","",""
"image-keyboard-response","261","398057","0.0-4.0-6.0-1.0-1.61","57564c3d947a3d0007b545d6","63690f60c96a0a9a64b48fbd","63691626d63b0d82a8c351e5","null","","null","","","","","","","","./tasks/HMM-beads/Images/WhiteBeadChoice.png","","","","","","","","","","","","","","","","","","","","","","","",""
"image-keyboard-response","262","398569","0.0-4.0-6.0-1.0-2.61","57564c3d947a3d0007b545d6","63690f60c96a0a9a64b48fbd","63691626d63b0d82a8c351e5","null","","null","","","","","","","","./tasks/HMM-beads/Images/WhiteBeadChoiceCorrect.png","","","","","","","","","","","","","","","","","","","","","","","",""
"image-keyboard-response","263","398661","0.0-4.0-6.0-1.0-0.62","57564c3d947a3d0007b545d6","63690f60c96a0a9a64b48fbd","63691626d63b0d82a8c351e5","90","","j","","","","","","","","./tasks/HMM-beads/Images/NewTrialWC.png","lowH","62","2","2","2","2","true","","","","","","","","","","","","","","","","",""
"image-keyboard-response","264","398974","0.0-4.0-6.0-1.0-1.62","57564c3d947a3d0007b545d6","63690f60c96a0a9a64b48fbd","63691626d63b0d82a8c351e5","null","","null","","","","","","","","./tasks/HMM-beads/Images/WhiteBeadChoice.png","","","","","","","","","","","","","","","","","","","","","","","",""
"image-keyboard-response","265","399488","0.0-4.0-6.0-1.0-2.62","57564c3d947a3d0007b545d6","63690f60c96a0a9a64b48fbd","63691626d63b0d82a8c351e5","null","","null","","","","","","","","./tasks/HMM-beads/Images/WhiteBeadChoiceCorrect.png","","","","","","","","","","","","","","","","","","","","","","","",""
"image-keyboard-response","266","399598","0.0-4.0-6.0-1.0-0.63","57564c3d947a3d0007b545d6","63690f60c96a0a9a64b48fbd","63691626d63b0d82a8c351e5","108","","j","","","","","","","","./tasks/HMM-beads/Images/NewTrialWC.png","lowH","63","2","1","2","2","false","","","","","","","","","","","","","","","","",""
"image-keyboard-response","267","399918","0.0-4.0-6.0-1.0-1.63","57564c3d947a3d0007b545d6","63690f60c96a0a9a64b48fbd","63691626d63b0d82a8c351e5","null","","null","","","","","","","","./tasks/HMM-beads/Images/WhiteBeadChoice.png","","","","","","","","","","","","","","","","","","","","","","","",""
"image-keyboard-response","268","400432","0.0-4.0-6.0-1.0-2.63","57564c3d947a3d0007b545d6","63690f60c96a0a9a64b48fbd","63691626d63b0d82a8c351e5","null","","null","","","","","","","","./tasks/HMM-beads/Images/WhiteBeadChoiceWrong.png","","","","","","","","","","","","","","","","","","","","","","","",""
"image-keyboard-response","269","400548","0.0-4.0-6.0-1.0-0.64","57564c3d947a3d0007b545d6","63690f60c96a0a9a64b48fbd","63691626d63b0d82a8c351e5","114","","f","","","","","","","","./tasks/HMM-beads/Images/NewTrialBC.png","lowH","64","2","2","1","1","false","","","","","","","","","","","","","","","","",""
"image-keyboard-response","270","400868","0.0-4.0-6.0-1.0-1.64","57564c3d947a3d0007b545d6","63690f60c96a0a9a64b48fbd","63691626d63b0d82a8c351e5","null","","null","","","","","","","","./tasks/HMM-beads/Images/BlackBeadChoice.png","","","","","","","","","","","","","","","","","","","","","","","",""
"image-keyboard-response","271","401381","0.0-4.0-6.0-1.0-2.64","57564c3d947a3d0007b545d6","63690f60c96a0a9a64b48fbd","63691626d63b0d82a8c351e5","null","","null","","","","","","","","./tasks/HMM-beads/Images/BlackBeadChoiceWrong.png","","","","","","","","","","","","","","","","","","","","","","","",""
"image-keyboard-response","272","401900","0.0-4.0-6.0-1.0-0.65","57564c3d947a3d0007b545d6","63690f60c96a0a9a64b48fbd","63691626d63b0d82a8c351e5","517","","j","","","","","","","","./tasks/HMM-beads/Images/NewTrialWC.png","lowH","65","2","2","2","2","true","","","","","","","","","","","","","","","","",""
"image-keyboard-response","273","402211","0.0-4.0-6.0-1.0-1.65","57564c3d947a3d0007b545d6","63690f60c96a0a9a64b48fbd","63691626d63b0d82a8c351e5","null","","null","","","","","","","","./tasks/HMM-beads/Images/WhiteBeadChoice.png","","","","","","","","","","","","","","","","","","","","","","","",""
"image-keyboard-response","274","402728","0.0-4.0-6.0-1.0-2.65","57564c3d947a3d0007b545d6","63690f60c96a0a9a64b48fbd","63691626d63b0d82a8c351e5","null","","null","","","","","","","","./tasks/HMM-beads/Images/WhiteBeadChoiceCorrect.png","","","","","","","","","","","","","","","","","","","","","","","",""
"image-keyboard-response","275","402858","0.0-4.0-6.0-1.0-0.66","57564c3d947a3d0007b545d6","63690f60c96a0a9a64b48fbd","63691626d63b0d82a8c351e5","128","","j","","","","","","","","./tasks/HMM-beads/Images/NewTrialWC.png","lowH","66","2","1","2","2","false","","","","","","","","","","","","","","","","",""
"image-keyboard-response","276","403180","0.0-4.0-6.0-1.0-1.66","57564c3d947a3d0007b545d6","63690f60c96a0a9a64b48fbd","63691626d63b0d82a8c351e5","null","","null","","","","","","","","./tasks/HMM-beads/Images/WhiteBeadChoice.png","","","","","","","","","","","","","","","","","","","","","","","",""
"image-keyboard-response","277","403695","0.0-4.0-6.0-1.0-2.66","57564c3d947a3d0007b545d6","63690f60c96a0a9a64b48fbd","63691626d63b0d82a8c351e5","null","","null","","","","","","","","./tasks/HMM-beads/Images/WhiteBeadChoiceWrong.png","","","","","","","","","","","","","","","","","","","","","","","",""
"image-keyboard-response","278","403812","0.0-4.0-6.0-1.0-0.67","57564c3d947a3d0007b545d6","63690f60c96a0a9a64b48fbd","63691626d63b0d82a8c351e5","116","","f","","","","","","","","./tasks/HMM-beads/Images/NewTrialBC.png","lowH","67","2","2","1","1","false","","","","","","","","","","","","","","","","",""
"image-keyboard-response","279","404132","0.0-4.0-6.0-1.0-1.67","57564c3d947a3d0007b545d6","63690f60c96a0a9a64b48fbd","63691626d63b0d82a8c351e5","null","","null","","","","","","","","./tasks/HMM-beads/Images/BlackBeadChoice.png","","","","","","","","","","","","","","","","","","","","","","","",""
"image-keyboard-response","280","404640","0.0-4.0-6.0-1.0-2.67","57564c3d947a3d0007b545d6","63690f60c96a0a9a64b48fbd","63691626d63b0d82a8c351e5","null","","null","","","","","","","","./tasks/HMM-beads/Images/BlackBeadChoiceWrong.png","","","","","","","","","","","","","","","","","","","","","","","",""
"image-keyboard-response","281","404645","0.0-4.0-6.0-1.0-0.68","57564c3d947a3d0007b545d6","63690f60c96a0a9a64b48fbd","63691626d63b0d82a8c351e5","4","","j","","","","","","","","./tasks/HMM-beads/Images/NewTrialWC.png","lowH","68","2","2","2","2","true","","","","","","","","","","","","","","","","",""
"image-keyboard-response","282","404956","0.0-4.0-6.0-1.0-1.68","57564c3d947a3d0007b545d6","63690f60c96a0a9a64b48fbd","63691626d63b0d82a8c351e5","null","","null","","","","","","","","./tasks/HMM-beads/Images/WhiteBeadChoice.png","","","","","","","","","","","","","","","","","","","","","","","",""
"image-keyboard-response","283","405468","0.0-4.0-6.0-1.0-2.68","57564c3d947a3d0007b545d6","63690f60c96a0a9a64b48fbd","63691626d63b0d82a8c351e5","null","","null","","","","","","","","./tasks/HMM-beads/Images/WhiteBeadChoiceCorrect.png","","","","","","","","","","","","","","","","","","","","","","","",""
"image-keyboard-response","284","405684","0.0-4.0-6.0-1.0-0.69","57564c3d947a3d0007b545d6","63690f60c96a0a9a64b48fbd","63691626d63b0d82a8c351e5","214","","j","","","","","","","","./tasks/HMM-beads/Images/NewTrialWC.png","lowH","69","2","2","2","2","true","","","","","","","","","","","","","","","","",""
"image-keyboard-response","285","405997","0.0-4.0-6.0-1.0-1.69","57564c3d947a3d0007b545d6","63690f60c96a0a9a64b48fbd","63691626d63b0d82a8c351e5","null","","null","","","","","","","","./tasks/HMM-beads/Images/WhiteBeadChoice.png","","","","","","","","","","","","","","","","","","","","","","","",""
"image-keyboard-response","286","406511","0.0-4.0-6.0-1.0-2.69","57564c3d947a3d0007b545d6","63690f60c96a0a9a64b48fbd","63691626d63b0d82a8c351e5","null","","null","","","","","","","","./tasks/HMM-beads/Images/WhiteBeadChoiceCorrect.png","","","","","","","","","","","","","","","","","","","","","","","",""
"image-keyboard-response","287","406869","0.0-4.0-6.0-1.0-0.70","57564c3d947a3d0007b545d6","63690f60c96a0a9a64b48fbd","63691626d63b0d82a8c351e5","356","","j","","","","","","","","./tasks/HMM-beads/Images/NewTrialWC.png","lowH","70","2","2","2","2","true","","","","","","","","","","","","","","","","",""
"image-keyboard-response","288","407182","0.0-4.0-6.0-1.0-1.70","57564c3d947a3d0007b545d6","63690f60c96a0a9a64b48fbd","63691626d63b0d82a8c351e5","null","","null","","","","","","","","./tasks/HMM-beads/Images/WhiteBeadChoice.png","","","","","","","","","","","","","","","","","","","","","","","",""
"image-keyboard-response","289","407697","0.0-4.0-6.0-1.0-2.70","57564c3d947a3d0007b545d6","63690f60c96a0a9a64b48fbd","63691626d63b0d82a8c351e5","null","","null","","","","","","","","./tasks/HMM-beads/Images/WhiteBeadChoiceCorrect.png","","","","","","","","","","","","","","","","","","","","","","","",""
"image-keyboard-response","290","408080","0.0-4.0-6.0-1.0-0.71","57564c3d947a3d0007b545d6","63690f60c96a0a9a64b48fbd","63691626d63b0d82a8c351e5","381","","j","","","","","","","","./tasks/HMM-beads/Images/NewTrialWC.png","lowH","71","2","2","2","2","true","","","","","","","","","","","","","","","","",""
"image-keyboard-response","291","408389","0.0-4.0-6.0-1.0-1.71","57564c3d947a3d0007b545d6","63690f60c96a0a9a64b48fbd","63691626d63b0d82a8c351e5","null","","null","","","","","","","","./tasks/HMM-beads/Images/WhiteBeadChoice.png","","","","","","","","","","","","","","","","","","","","","","","",""
"image-keyboard-response","292","408904","0.0-4.0-6.0-1.0-2.71","57564c3d947a3d0007b545d6","63690f60c96a0a9a64b48fbd","63691626d63b0d82a8c351e5","null","","null","","","","","","","","./tasks/HMM-beads/Images/WhiteBeadChoiceCorrect.png","","","","","","","","","","","","","","","","","","","","","","","",""
"image-keyboard-response","293","409393","0.0-4.0-6.0-1.0-0.72","57564c3d947a3d0007b545d6","63690f60c96a0a9a64b48fbd","63691626d63b0d82a8c351e5","488","","j","","","","","","","","./tasks/HMM-beads/Images/NewTrialWC.png","lowH","72","2","1","2","2","false","","","","","","","","","","","","","","","","",""
"image-keyboard-response","294","409707","0.0-4.0-6.0-1.0-1.72","57564c3d947a3d0007b545d6","63690f60c96a0a9a64b48fbd","63691626d63b0d82a8c351e5","null","","null","","","","","","","","./tasks/HMM-beads/Images/WhiteBeadChoice.png","","","","","","","","","","","","","","","","","","","","","","","",""
"image-keyboard-response","295","410230","0.0-4.0-6.0-1.0-2.72","57564c3d947a3d0007b545d6","63690f60c96a0a9a64b48fbd","63691626d63b0d82a8c351e5","null","","null","","","","","","","","./tasks/HMM-beads/Images/WhiteBeadChoiceWrong.png","","","","","","","","","","","","","","","","","","","","","","","",""
"image-keyboard-response","296","410431","0.0-4.0-6.0-1.0-0.73","57564c3d947a3d0007b545d6","63690f60c96a0a9a64b48fbd","63691626d63b0d82a8c351e5","200","","f","","","","","","","","./tasks/HMM-beads/Images/NewTrialBC.png","lowH","73","2","2","1","1","false","","","","","","","","","","","","","","","","",""
"image-keyboard-response","297","410742","0.0-4.0-6.0-1.0-1.73","57564c3d947a3d0007b545d6","63690f60c96a0a9a64b48fbd","63691626d63b0d82a8c351e5","null","","null","","","","","","","","./tasks/HMM-beads/Images/BlackBeadChoice.png","","","","","","","","","","","","","","","","","","","","","","","",""
"image-keyboard-response","298","411260","0.0-4.0-6.0-1.0-2.73","57564c3d947a3d0007b545d6","63690f60c96a0a9a64b48fbd","63691626d63b0d82a8c351e5","null","","null","","","","","","","","./tasks/HMM-beads/Images/BlackBeadChoiceWrong.png","","","","","","","","","","","","","","","","","","","","","","","",""
"image-keyboard-response","299","411307","0.0-4.0-6.0-1.0-0.74","57564c3d947a3d0007b545d6","63690f60c96a0a9a64b48fbd","63691626d63b0d82a8c351e5","46","","j","","","","","","","","./tasks/HMM-beads/Images/NewTrialWC.png","lowH","74","2","1","2","2","false","","","","","","","","","","","","","","","","",""
"image-keyboard-response","300","411620","0.0-4.0-6.0-1.0-1.74","57564c3d947a3d0007b545d6","63690f60c96a0a9a64b48fbd","63691626d63b0d82a8c351e5","null","","null","","","","","","","","./tasks/HMM-beads/Images/WhiteBeadChoice.png","","","","","","","","","","","","","","","","","","","","","","","",""
"image-keyboard-response","301","412132","0.0-4.0-6.0-1.0-2.74","57564c3d947a3d0007b545d6","63690f60c96a0a9a64b48fbd","63691626d63b0d82a8c351e5","null","","null","","","","","","","","./tasks/HMM-beads/Images/WhiteBeadChoiceWrong.png","","","","","","","","","","","","","","","","","","","","","","","",""
"image-keyboard-response","302","412608","0.0-4.0-6.0-1.0-0.75","57564c3d947a3d0007b545d6","63690f60c96a0a9a64b48fbd","63691626d63b0d82a8c351e5","475","","j","","","","","","","","./tasks/HMM-beads/Images/NewTrialBC.png","lowH","75","2","2","1","2","true","","","","","","","","","","","","","","","","",""
"image-keyboard-response","303","412912","0.0-4.0-6.0-1.0-1.75","57564c3d947a3d0007b545d6","63690f60c96a0a9a64b48fbd","63691626d63b0d82a8c351e5","null","","null","","","","","","","","./tasks/HMM-beads/Images/WhiteBeadChoice.png","","","","","","","","","","","","","","","","","","","","","","","",""
"image-keyboard-response","304","413415","0.0-4.0-6.0-1.0-2.75","57564c3d947a3d0007b545d6","63690f60c96a0a9a64b48fbd","63691626d63b0d82a8c351e5","null","","null","","","","","","","","./tasks/HMM-beads/Images/WhiteBeadChoiceCorrect.png","","","","","","","","","","","","","","","","","","","","","","","",""
"image-keyboard-response","305","413763","0.0-4.0-6.0-1.0-0.76","57564c3d947a3d0007b545d6","63690f60c96a0a9a64b48fbd","63691626d63b0d82a8c351e5","339","","j","","","","","","","","./tasks/HMM-beads/Images/NewTrialWC.png","lowH","76","2","1","2","2","false","","","","","","","","","","","","","","","","",""
"image-keyboard-response","306","414083","0.0-4.0-6.0-1.0-1.76","57564c3d947a3d0007b545d6","63690f60c96a0a9a64b48fbd","63691626d63b0d82a8c351e5","null","","null","","","","","","","","./tasks/HMM-beads/Images/WhiteBeadChoice.png","","","","","","","","","","","","","","","","","","","","","","","",""
"image-keyboard-response","307","414599","0.0-4.0-6.0-1.0-2.76","57564c3d947a3d0007b545d6","63690f60c96a0a9a64b48fbd","63691626d63b0d82a8c351e5","null","","null","","","","","","","","./tasks/HMM-beads/Images/WhiteBeadChoiceWrong.png","","","","","","","","","","","","","","","","","","","","","","","",""
"image-keyboard-response","308","414825","0.0-4.0-6.0-1.0-0.77","57564c3d947a3d0007b545d6","63690f60c96a0a9a64b48fbd","63691626d63b0d82a8c351e5","224","","j","","","","","","","","./tasks/HMM-beads/Images/NewTrialBC.png","lowH","77","2","2","1","2","true","","","","","","","","","","","","","","","","",""
"image-keyboard-response","309","415132","0.0-4.0-6.0-1.0-1.77","57564c3d947a3d0007b545d6","63690f60c96a0a9a64b48fbd","63691626d63b0d82a8c351e5","null","","null","","","","","","","","./tasks/HMM-beads/Images/WhiteBeadChoice.png","","","","","","","","","","","","","","","","","","","","","","","",""
"image-keyboard-response","310","415649","0.0-4.0-6.0-1.0-2.77","57564c3d947a3d0007b545d6","63690f60c96a0a9a64b48fbd","63691626d63b0d82a8c351e5","null","","null","","","","","","","","./tasks/HMM-beads/Images/WhiteBeadChoiceCorrect.png","","","","","","","","","","","","","","","","","","","","","","","",""
"image-keyboard-response","311","415843","0.0-4.0-6.0-1.0-0.78","57564c3d947a3d0007b545d6","63690f60c96a0a9a64b48fbd","63691626d63b0d82a8c351e5","192","","j","","","","","","","","./tasks/HMM-beads/Images/NewTrialWC.png","lowH","78","2","2","2","2","true","","","","","","","","","","","","","","","","",""
"image-keyboard-response","312","416163","0.0-4.0-6.0-1.0-1.78","57564c3d947a3d0007b545d6","63690f60c96a0a9a64b48fbd","63691626d63b0d82a8c351e5","null","","null","","","","","","","","./tasks/HMM-beads/Images/WhiteBeadChoice.png","","","","","","","","","","","","","","","","","","","","","","","",""
"image-keyboard-response","313","416679","0.0-4.0-6.0-1.0-2.78","57564c3d947a3d0007b545d6","63690f60c96a0a9a64b48fbd","63691626d63b0d82a8c351e5","null","","null","","","","","","","","./tasks/HMM-beads/Images/WhiteBeadChoiceCorrect.png","","","","","","","","","","","","","","","","","","","","","","","",""
"image-keyboard-response","314","416831","0.0-4.0-6.0-1.0-0.79","57564c3d947a3d0007b545d6","63690f60c96a0a9a64b48fbd","63691626d63b0d82a8c351e5","151","","j","","","","","","","","./tasks/HMM-beads/Images/NewTrialWC.png","lowH","79","2","2","2","2","true","","","","","","","","","","","","","","","","",""
"image-keyboard-response","315","417147","0.0-4.0-6.0-1.0-1.79","57564c3d947a3d0007b545d6","63690f60c96a0a9a64b48fbd","63691626d63b0d82a8c351e5","null","","null","","","","","","","","./tasks/HMM-beads/Images/WhiteBeadChoice.png","","","","","","","","","","","","","","","","","","","","","","","",""
"image-keyboard-response","316","417662","0.0-4.0-6.0-1.0-2.79","57564c3d947a3d0007b545d6","63690f60c96a0a9a64b48fbd","63691626d63b0d82a8c351e5","null","","null","","","","","","","","./tasks/HMM-beads/Images/WhiteBeadChoiceCorrect.png","","","","","","","","","","","","","","","","","","","","","","","",""
"image-keyboard-response","317","418070","0.0-4.0-6.0-1.0-0.80","57564c3d947a3d0007b545d6","63690f60c96a0a9a64b48fbd","63691626d63b0d82a8c351e5","407","","j","","","","","","","","./tasks/HMM-beads/Images/NewTrialWC.png","lowH","80","2","2","2","2","true","","","","","","","","","","","","","","","","",""
"image-keyboard-response","318","418394","0.0-4.0-6.0-1.0-1.80","57564c3d947a3d0007b545d6","63690f60c96a0a9a64b48fbd","63691626d63b0d82a8c351e5","null","","null","","","","","","","","./tasks/HMM-beads/Images/WhiteBeadChoice.png","","","","","","","","","","","","","","","","","","","","","","","",""
"image-keyboard-response","319","418908","0.0-4.0-6.0-1.0-2.80","57564c3d947a3d0007b545d6","63690f60c96a0a9a64b48fbd","63691626d63b0d82a8c351e5","null","","null","","","","","","","","./tasks/HMM-beads/Images/WhiteBeadChoiceCorrect.png","","","","","","","","","","","","","","","","","","","","","","","",""
"image-keyboard-response","320","419347","0.0-4.0-6.0-1.0-0.81","57564c3d947a3d0007b545d6","63690f60c96a0a9a64b48fbd","63691626d63b0d82a8c351e5","438","","j","","","","","","","","./tasks/HMM-beads/Images/NewTrialWC.png","lowH","81","2","2","2","2","true","","","","","","","","","","","","","","","","",""
"image-keyboard-response","321","419659","0.0-4.0-6.0-1.0-1.81","57564c3d947a3d0007b545d6","63690f60c96a0a9a64b48fbd","63691626d63b0d82a8c351e5","null","","null","","","","","","","","./tasks/HMM-beads/Images/WhiteBeadChoice.png","","","","","","","","","","","","","","","","","","","","","","","",""
