"trial_type","trial_index","time_elapsed","internal_node_id","subject_id","study_id","session_id","rt","url","response","question_order","view_history","success","timeout","failed_images","failed_audio","failed_video","stimulus","block","trial_number","jar","bead","previous_bead","choice","correct","lowH_score","highH_score","state","rewarded","state1_action","state2_visited","state1_key","state2_key","state1_rt","state2_rt","block_num","seq_file","trial_seq_info","two_arm_score_block1","two_arm_score_block2","two_arm_score_total","total_bonus"
"pavlovia","0","930","0.0-0.0","60520f7b38610f36b366a806","6367f433b739b6e52a2c937e","020y3yvj9wzc","","","","","","","","","","","","","","","","","","","","","","","","","","","","","","","","","","",""
"external-html","1","77986","0.0-1.0-0.0","60520f7b38610f36b366a806","6367f433b739b6e52a2c937e","020y3yvj9wzc","76944","new_consent.html","","","","","","","","","","","","","","","","","","","","","","","","","","","","","","","","",""
"survey-multi-choice","2","82357","0.0-1.0-1.0","60520f7b38610f36b366a806","6367f433b739b6e52a2c937e","020y3yvj9wzc","4369","","{""Q0"":""Male"",""Q1"":""White""}","[0,1]","","","","","","","","","","","","","","","","","","","","","","","","","","","","","","",""
"survey-text","3","85874","0.0-1.0-2.0","60520f7b38610f36b366a806","6367f433b739b6e52a2c937e","020y3yvj9wzc","3514","","{""Q0"":""27""}","","","","","","","","","","","","","","","","","","","","","","","","","","","","","","","",""
"instructions","4","100356","0.0-2.0","60520f7b38610f36b366a806","6367f433b739b6e52a2c937e","020y3yvj9wzc","14366","","","","[{""page_index"":0,""viewing_time"":11839},{""page_index"":1,""viewing_time"":2526}]","","","","","","","","","","","","","","","","","","","","","","","","","","","","","",""
"instructions","5","101321","0.0-3.0","60520f7b38610f36b366a806","6367f433b739b6e52a2c937e","020y3yvj9wzc","964","","","","[{""page_index"":0,""viewing_time"":964}]","","","","","","","","","","","","","","","","","","","","","","","","","","","","","",""
"preload","6","106809","0.0-4.0-0.0","60520f7b38610f36b366a806","6367f433b739b6e52a2c937e","020y3yvj9wzc","","","","","","true","false","[]","[]","[]","","","","","","","","","","","","","","","","","","","","","","","","",""
"instructions","7","849404","0.0-4.0-1.0","60520f7b38610f36b366a806","6367f433b739b6e52a2c937e","020y3yvj9wzc","742595","","","","[{""page_index"":0,""viewing_time"":42475},{""page_index"":1,""viewing_time"":2554},{""page_index"":2,""viewing_time"":2792},{""page_index"":3,""viewing_time"":1140},{""page_index"":4,""viewing_time"":2923},{""page_index"":5,""viewing_time"":513877},{""page_index"":6,""viewing_time"":24588},{""page_index"":7,""viewing_time"":7991},{""page_index"":8,""viewing_time"":3031},{""page_index"":9,""viewing_time"":2485},{""page_index"":10,""viewing_time"":137838},{""page_index"":11,""viewing_time"":900}]","","","","","","","","","","","","","","","","","","","","","","","","","","","","","",""
"html-button-response","8","851084","0.0-4.0-2.0-0.0-0.0","60520f7b38610f36b366a806","6367f433b739b6e52a2c937e","020y3yvj9wzc","1678","","1","","","","","","","","<div align=center>Your goal is to predict…?<br><br></div>","","","","","","","","","","","","","","","","","","","","","","","",""
"html-button-response","9","852232","0.0-4.0-2.0-1.0-0.0","60520f7b38610f36b366a806","6367f433b739b6e52a2c937e","020y3yvj9wzc","619","","2","","","","","","","","<div align=center>In the jar with mostly white beads, there are ___% white beads and ___% black beads?<br><br></div>","","","","","","","","","","","","","","","","","","","","","","","",""
"html-button-response","10","853348","0.0-4.0-2.0-2.0-0.0","60520f7b38610f36b366a806","6367f433b739b6e52a2c937e","020y3yvj9wzc","553","","0","","","","","","","","<div align=center>When there is a 1% probability that the jars will switch, the next bead will most likely be drawn from the…<br><br></div>","","","","","","","","","","","","","","","","","","","","","","","",""
"html-button-response","11","854488","0.0-4.0-2.0-3.0-0.0","60520f7b38610f36b366a806","6367f433b739b6e52a2c937e","020y3yvj9wzc","618","","1","","","","","","","","<div align=center>When there is a 99% probability that the jars will switch, the next bead will most likely be drawn from the…<br><br></div>","","","","","","","","","","","","","","","","","","","","","","","",""
"instructions","12","857626","0.0-4.0-3.0","60520f7b38610f36b366a806","6367f433b739b6e52a2c937e","020y3yvj9wzc","2529","","","","[{""page_index"":0,""viewing_time"":2529}]","","","","","","","","","","","","","","","","","","","","","","","","","","","","","",""
"html-keyboard-response","13","858611","0.0-4.0-4.0-0.0","60520f7b38610f36b366a806","6367f433b739b6e52a2c937e","020y3yvj9wzc","985",""," ","","","","","","","","<div align=center>In this practice block, there will be a <b>10% chance</b> that the jar on the next trial will be different from the jar on the current trial.<br><br></div>","","","","","","","","","","","","","","","","","","","","","","","",""
"image-keyboard-response","14","860145","0.0-4.0-4.0-1.0-0.0","60520f7b38610f36b366a806","6367f433b739b6e52a2c937e","020y3yvj9wzc","1528","","j","","","","","","","","./tasks/HMM-beads/Images/NoChoice.png","practice","0","1","1","0","2","false","","","","","","","","","","","","","","","","",""
"image-keyboard-response","15","860451","0.0-4.0-4.0-1.0-1.0","60520f7b38610f36b366a806","6367f433b739b6e52a2c937e","020y3yvj9wzc","null","","null","","","","","","","","./tasks/HMM-beads/Images/WhiteBeadChoice.png","","","","","","","","","","","","","","","","","","","","","","","",""
"image-keyboard-response","16","860962","0.0-4.0-4.0-1.0-2.0","60520f7b38610f36b366a806","6367f433b739b6e52a2c937e","020y3yvj9wzc","null","","null","","","","","","","","./tasks/HMM-beads/Images/WhiteBeadChoiceWrong.png","","","","","","","","","","","","","","","","","","","","","","","",""
"image-keyboard-response","17","861131","0.0-4.0-4.0-1.0-0.1","60520f7b38610f36b366a806","6367f433b739b6e52a2c937e","020y3yvj9wzc","168","","j","","","","","","","","./tasks/HMM-beads/Images/NewTrialBC.png","practice","1","1","1","1","2","false","","","","","","","","","","","","","","","","",""
"image-keyboard-response","18","861444","0.0-4.0-4.0-1.0-1.1","60520f7b38610f36b366a806","6367f433b739b6e52a2c937e","020y3yvj9wzc","null","","null","","","","","","","","./tasks/HMM-beads/Images/WhiteBeadChoice.png","","","","","","","","","","","","","","","","","","","","","","","",""
"image-keyboard-response","19","861955","0.0-4.0-4.0-1.0-2.1","60520f7b38610f36b366a806","6367f433b739b6e52a2c937e","020y3yvj9wzc","null","","null","","","","","","","","./tasks/HMM-beads/Images/WhiteBeadChoiceWrong.png","","","","","","","","","","","","","","","","","","","","","","","",""
"image-keyboard-response","20","862074","0.0-4.0-4.0-1.0-0.2","60520f7b38610f36b366a806","6367f433b739b6e52a2c937e","020y3yvj9wzc","118","","j","","","","","","","","./tasks/HMM-beads/Images/NewTrialBC.png","practice","2","1","2","1","2","true","","","","","","","","","","","","","","","","",""
"image-keyboard-response","21","862392","0.0-4.0-4.0-1.0-1.2","60520f7b38610f36b366a806","6367f433b739b6e52a2c937e","020y3yvj9wzc","null","","null","","","","","","","","./tasks/HMM-beads/Images/WhiteBeadChoice.png","","","","","","","","","","","","","","","","","","","","","","","",""
"image-keyboard-response","22","862904","0.0-4.0-4.0-1.0-2.2","60520f7b38610f36b366a806","6367f433b739b6e52a2c937e","020y3yvj9wzc","null","","null","","","","","","","","./tasks/HMM-beads/Images/WhiteBeadChoiceCorrect.png","","","","","","","","","","","","","","","","","","","","","","","",""
"image-keyboard-response","23","863036","0.0-4.0-4.0-1.0-0.3","60520f7b38610f36b366a806","6367f433b739b6e52a2c937e","020y3yvj9wzc","130","","f","","","","","","","","./tasks/HMM-beads/Images/NewTrialWC.png","practice","3","1","1","2","1","true","","","","","","","","","","","","","","","","",""
"image-keyboard-response","24","863341","0.0-4.0-4.0-1.0-1.3","60520f7b38610f36b366a806","6367f433b739b6e52a2c937e","020y3yvj9wzc","null","","null","","","","","","","","./tasks/HMM-beads/Images/BlackBeadChoice.png","","","","","","","","","","","","","","","","","","","","","","","",""
"image-keyboard-response","25","863851","0.0-4.0-4.0-1.0-2.3","60520f7b38610f36b366a806","6367f433b739b6e52a2c937e","020y3yvj9wzc","null","","null","","","","","","","","./tasks/HMM-beads/Images/BlackBeadChoiceCorrect.png","","","","","","","","","","","","","","","","","","","","","","","",""
"image-keyboard-response","26","864007","0.0-4.0-4.0-1.0-0.4","60520f7b38610f36b366a806","6367f433b739b6e52a2c937e","020y3yvj9wzc","155","","j","","","","","","","","./tasks/HMM-beads/Images/NewTrialBC.png","practice","4","1","2","1","2","true","","","","","","","","","","","","","","","","",""
"image-keyboard-response","27","864317","0.0-4.0-4.0-1.0-1.4","60520f7b38610f36b366a806","6367f433b739b6e52a2c937e","020y3yvj9wzc","null","","null","","","","","","","","./tasks/HMM-beads/Images/WhiteBeadChoice.png","","","","","","","","","","","","","","","","","","","","","","","",""
"image-keyboard-response","28","864830","0.0-4.0-4.0-1.0-2.4","60520f7b38610f36b366a806","6367f433b739b6e52a2c937e","020y3yvj9wzc","null","","null","","","","","","","","./tasks/HMM-beads/Images/WhiteBeadChoiceCorrect.png","","","","","","","","","","","","","","","","","","","","","","","",""
"html-keyboard-response","29","865783","0.0-4.0-4.0-2.0","60520f7b38610f36b366a806","6367f433b739b6e52a2c937e","020y3yvj9wzc","953",""," ","","","","","","","","","","","","","","","","","","","","","","","","","","","","","","","",""
"instructions","30","916609","0.0-4.0-5.0","60520f7b38610f36b366a806","6367f433b739b6e52a2c937e","020y3yvj9wzc","50825","","","","[{""page_index"":0,""viewing_time"":30547},{""page_index"":1,""viewing_time"":20277}]","","","","","","","","","","","","","","","","","","","","","","","","","","","","","",""
"html-keyboard-response","31","923033","0.0-4.0-6.0-0.0","60520f7b38610f36b366a806","6367f433b739b6e52a2c937e","020y3yvj9wzc","6424",""," ","","","","","","","","<div align=center>In this block, there will be a <b>1% chance</b> that the jar on the next trial will be different from the jar on the current trial.<br><br></div>","","","","","","","","","","","","","","","","","","","","","","","",""
"image-keyboard-response","32","927174","0.0-4.0-6.0-1.0-0.0","60520f7b38610f36b366a806","6367f433b739b6e52a2c937e","020y3yvj9wzc","4141","","j","","","","","","","","./tasks/HMM-beads/Images/NoChoice.png","lowH","0","2","2","0","2","true","","","","","","","","","","","","","","","","",""
"image-keyboard-response","33","927488","0.0-4.0-6.0-1.0-1.0","60520f7b38610f36b366a806","6367f433b739b6e52a2c937e","020y3yvj9wzc","null","","null","","","","","","","","./tasks/HMM-beads/Images/WhiteBeadChoice.png","","","","","","","","","","","","","","","","","","","","","","","",""
"image-keyboard-response","34","928016","0.0-4.0-6.0-1.0-2.0","60520f7b38610f36b366a806","6367f433b739b6e52a2c937e","020y3yvj9wzc","null","","null","","","","","","","","./tasks/HMM-beads/Images/WhiteBeadChoiceCorrect.png","","","","","","","","","","","","","","","","","","","","","","","",""
"image-keyboard-response","35","929009","0.0-4.0-6.0-1.0-0.1","60520f7b38610f36b366a806","6367f433b739b6e52a2c937e","020y3yvj9wzc","993","","j","","","","","","","","./tasks/HMM-beads/Images/NewTrialWC.png","lowH","1","2","2","2","2","true","","","","","","","","","","","","","","","","",""
"image-keyboard-response","36","929315","0.0-4.0-6.0-1.0-1.1","60520f7b38610f36b366a806","6367f433b739b6e52a2c937e","020y3yvj9wzc","null","","null","","","","","","","","./tasks/HMM-beads/Images/WhiteBeadChoice.png","","","","","","","","","","","","","","","","","","","","","","","",""
"image-keyboard-response","37","929828","0.0-4.0-6.0-1.0-2.1","60520f7b38610f36b366a806","6367f433b739b6e52a2c937e","020y3yvj9wzc","null","","null","","","","","","","","./tasks/HMM-beads/Images/WhiteBeadChoiceCorrect.png","","","","","","","","","","","","","","","","","","","","","","","",""
"image-keyboard-response","38","929910","0.0-4.0-6.0-1.0-0.2","60520f7b38610f36b366a806","6367f433b739b6e52a2c937e","020y3yvj9wzc","81","","j","","","","","","","","./tasks/HMM-beads/Images/NewTrialWC.png","lowH","2","2","2","2","2","true","","","","","","","","","","","","","","","","",""
"image-keyboard-response","39","930233","0.0-4.0-6.0-1.0-1.2","60520f7b38610f36b366a806","6367f433b739b6e52a2c937e","020y3yvj9wzc","null","","null","","","","","","","","./tasks/HMM-beads/Images/WhiteBeadChoice.png","","","","","","","","","","","","","","","","","","","","","","","",""
"image-keyboard-response","40","930745","0.0-4.0-6.0-1.0-2.2","60520f7b38610f36b366a806","6367f433b739b6e52a2c937e","020y3yvj9wzc","null","","null","","","","","","","","./tasks/HMM-beads/Images/WhiteBeadChoiceCorrect.png","","","","","","","","","","","","","","","","","","","","","","","",""
"image-keyboard-response","41","930788","0.0-4.0-6.0-1.0-0.3","60520f7b38610f36b366a806","6367f433b739b6e52a2c937e","020y3yvj9wzc","42","","j","","","","","","","","./tasks/HMM-beads/Images/NewTrialWC.png","lowH","3","2","2","2","2","true","","","","","","","","","","","","","","","","",""
"image-keyboard-response","42","931104","0.0-4.0-6.0-1.0-1.3","60520f7b38610f36b366a806","6367f433b739b6e52a2c937e","020y3yvj9wzc","null","","null","","","","","","","","./tasks/HMM-beads/Images/WhiteBeadChoice.png","","","","","","","","","","","","","","","","","","","","","","","",""
"image-keyboard-response","43","931612","0.0-4.0-6.0-1.0-2.3","60520f7b38610f36b366a806","6367f433b739b6e52a2c937e","020y3yvj9wzc","null","","null","","","","","","","","./tasks/HMM-beads/Images/WhiteBeadChoiceCorrect.png","","","","","","","","","","","","","","","","","","","","","","","",""
"image-keyboard-response","44","931687","0.0-4.0-6.0-1.0-0.4","60520f7b38610f36b366a806","6367f433b739b6e52a2c937e","020y3yvj9wzc","75","","j","","","","","","","","./tasks/HMM-beads/Images/NewTrialWC.png","lowH","4","2","1","2","2","false","","","","","","","","","","","","","","","","",""
"image-keyboard-response","45","932001","0.0-4.0-6.0-1.0-1.4","60520f7b38610f36b366a806","6367f433b739b6e52a2c937e","020y3yvj9wzc","null","","null","","","","","","","","./tasks/HMM-beads/Images/WhiteBeadChoice.png","","","","","","","","","","","","","","","","","","","","","","","",""
"image-keyboard-response","46","932513","0.0-4.0-6.0-1.0-2.4","60520f7b38610f36b366a806","6367f433b739b6e52a2c937e","020y3yvj9wzc","null","","null","","","","","","","","./tasks/HMM-beads/Images/WhiteBeadChoiceWrong.png","","","","","","","","","","","","","","","","","","","","","","","",""
"image-keyboard-response","47","932587","0.0-4.0-6.0-1.0-0.5","60520f7b38610f36b366a806","6367f433b739b6e52a2c937e","020y3yvj9wzc","73","","j","","","","","","","","./tasks/HMM-beads/Images/NewTrialBC.png","lowH","5","2","2","1","2","true","","","","","","","","","","","","","","","","",""
"image-keyboard-response","48","932900","0.0-4.0-6.0-1.0-1.5","60520f7b38610f36b366a806","6367f433b739b6e52a2c937e","020y3yvj9wzc","null","","null","","","","","","","","./tasks/HMM-beads/Images/WhiteBeadChoice.png","","","","","","","","","","","","","","","","","","","","","","","",""
"image-keyboard-response","49","933413","0.0-4.0-6.0-1.0-2.5","60520f7b38610f36b366a806","6367f433b739b6e52a2c937e","020y3yvj9wzc","null","","null","","","","","","","","./tasks/HMM-beads/Images/WhiteBeadChoiceCorrect.png","","","","","","","","","","","","","","","","","","","","","","","",""
"image-keyboard-response","50","933510","0.0-4.0-6.0-1.0-0.6","60520f7b38610f36b366a806","6367f433b739b6e52a2c937e","020y3yvj9wzc","95","","j","","","","","","","","./tasks/HMM-beads/Images/NewTrialWC.png","lowH","6","2","2","2","2","true","","","","","","","","","","","","","","","","",""
"image-keyboard-response","51","933831","0.0-4.0-6.0-1.0-1.6","60520f7b38610f36b366a806","6367f433b739b6e52a2c937e","020y3yvj9wzc","null","","null","","","","","","","","./tasks/HMM-beads/Images/WhiteBeadChoice.png","","","","","","","","","","","","","","","","","","","","","","","",""
"image-keyboard-response","52","934344","0.0-4.0-6.0-1.0-2.6","60520f7b38610f36b366a806","6367f433b739b6e52a2c937e","020y3yvj9wzc","null","","null","","","","","","","","./tasks/HMM-beads/Images/WhiteBeadChoiceCorrect.png","","","","","","","","","","","","","","","","","","","","","","","",""
"image-keyboard-response","53","934388","0.0-4.0-6.0-1.0-0.7","60520f7b38610f36b366a806","6367f433b739b6e52a2c937e","020y3yvj9wzc","43","","j","","","","","","","","./tasks/HMM-beads/Images/NewTrialWC.png","lowH","7","2","2","2","2","true","","","","","","","","","","","","","","","","",""
"image-keyboard-response","54","934700","0.0-4.0-6.0-1.0-1.7","60520f7b38610f36b366a806","6367f433b739b6e52a2c937e","020y3yvj9wzc","null","","null","","","","","","","","./tasks/HMM-beads/Images/WhiteBeadChoice.png","","","","","","","","","","","","","","","","","","","","","","","",""
"image-keyboard-response","55","935209","0.0-4.0-6.0-1.0-2.7","60520f7b38610f36b366a806","6367f433b739b6e52a2c937e","020y3yvj9wzc","null","","null","","","","","","","","./tasks/HMM-beads/Images/WhiteBeadChoiceCorrect.png","","","","","","","","","","","","","","","","","","","","","","","",""
"image-keyboard-response","56","935287","0.0-4.0-6.0-1.0-0.8","60520f7b38610f36b366a806","6367f433b739b6e52a2c937e","020y3yvj9wzc","78","","j","","","","","","","","./tasks/HMM-beads/Images/NewTrialWC.png","lowH","8","2","2","2","2","true","","","","","","","","","","","","","","","","",""
"image-keyboard-response","57","935596","0.0-4.0-6.0-1.0-1.8","60520f7b38610f36b366a806","6367f433b739b6e52a2c937e","020y3yvj9wzc","null","","null","","","","","","","","./tasks/HMM-beads/Images/WhiteBeadChoice.png","","","","","","","","","","","","","","","","","","","","","","","",""
"image-keyboard-response","58","936107","0.0-4.0-6.0-1.0-2.8","60520f7b38610f36b366a806","6367f433b739b6e52a2c937e","020y3yvj9wzc","null","","null","","","","","","","","./tasks/HMM-beads/Images/WhiteBeadChoiceCorrect.png","","","","","","","","","","","","","","","","","","","","","","","",""
"image-keyboard-response","59","936188","0.0-4.0-6.0-1.0-0.9","60520f7b38610f36b366a806","6367f433b739b6e52a2c937e","020y3yvj9wzc","79","","j","","","","","","","","./tasks/HMM-beads/Images/NewTrialWC.png","lowH","9","2","2","2","2","true","","","","","","","","","","","","","","","","",""
"image-keyboard-response","60","936494","0.0-4.0-6.0-1.0-1.9","60520f7b38610f36b366a806","6367f433b739b6e52a2c937e","020y3yvj9wzc","null","","null","","","","","","","","./tasks/HMM-beads/Images/WhiteBeadChoice.png","","","","","","","","","","","","","","","","","","","","","","","",""
"image-keyboard-response","61","937007","0.0-4.0-6.0-1.0-2.9","60520f7b38610f36b366a806","6367f433b739b6e52a2c937e","020y3yvj9wzc","null","","null","","","","","","","","./tasks/HMM-beads/Images/WhiteBeadChoiceCorrect.png","","","","","","","","","","","","","","","","","","","","","","","",""
"image-keyboard-response","62","937088","0.0-4.0-6.0-1.0-0.10","60520f7b38610f36b366a806","6367f433b739b6e52a2c937e","020y3yvj9wzc","79","","j","","","","","","","","./tasks/HMM-beads/Images/NewTrialWC.png","lowH","10","2","2","2","2","true","","","","","","","","","","","","","","","","",""
"image-keyboard-response","63","937397","0.0-4.0-6.0-1.0-1.10","60520f7b38610f36b366a806","6367f433b739b6e52a2c937e","020y3yvj9wzc","null","","null","","","","","","","","./tasks/HMM-beads/Images/WhiteBeadChoice.png","","","","","","","","","","","","","","","","","","","","","","","",""
"image-keyboard-response","64","937910","0.0-4.0-6.0-1.0-2.10","60520f7b38610f36b366a806","6367f433b739b6e52a2c937e","020y3yvj9wzc","null","","null","","","","","","","","./tasks/HMM-beads/Images/WhiteBeadChoiceCorrect.png","","","","","","","","","","","","","","","","","","","","","","","",""
"image-keyboard-response","65","938009","0.0-4.0-6.0-1.0-0.11","60520f7b38610f36b366a806","6367f433b739b6e52a2c937e","020y3yvj9wzc","98","","j","","","","","","","","./tasks/HMM-beads/Images/NewTrialWC.png","lowH","11","2","2","2","2","true","","","","","","","","","","","","","","","","",""
"image-keyboard-response","66","938325","0.0-4.0-6.0-1.0-1.11","60520f7b38610f36b366a806","6367f433b739b6e52a2c937e","020y3yvj9wzc","null","","null","","","","","","","","./tasks/HMM-beads/Images/WhiteBeadChoice.png","","","","","","","","","","","","","","","","","","","","","","","",""
"image-keyboard-response","67","938836","0.0-4.0-6.0-1.0-2.11","60520f7b38610f36b366a806","6367f433b739b6e52a2c937e","020y3yvj9wzc","null","","null","","","","","","","","./tasks/HMM-beads/Images/WhiteBeadChoiceCorrect.png","","","","","","","","","","","","","","","","","","","","","","","",""
"image-keyboard-response","68","938910","0.0-4.0-6.0-1.0-0.12","60520f7b38610f36b366a806","6367f433b739b6e52a2c937e","020y3yvj9wzc","73","","j","","","","","","","","./tasks/HMM-beads/Images/NewTrialWC.png","lowH","12","2","2","2","2","true","","","","","","","","","","","","","","","","",""
"image-keyboard-response","69","939219","0.0-4.0-6.0-1.0-1.12","60520f7b38610f36b366a806","6367f433b739b6e52a2c937e","020y3yvj9wzc","null","","null","","","","","","","","./tasks/HMM-beads/Images/WhiteBeadChoice.png","","","","","","","","","","","","","","","","","","","","","","","",""
"image-keyboard-response","70","939736","0.0-4.0-6.0-1.0-2.12","60520f7b38610f36b366a806","6367f433b739b6e52a2c937e","020y3yvj9wzc","null","","null","","","","","","","","./tasks/HMM-beads/Images/WhiteBeadChoiceCorrect.png","","","","","","","","","","","","","","","","","","","","","","","",""
"image-keyboard-response","71","939809","0.0-4.0-6.0-1.0-0.13","60520f7b38610f36b366a806","6367f433b739b6e52a2c937e","020y3yvj9wzc","71","","j","","","","","","","","./tasks/HMM-beads/Images/NewTrialWC.png","lowH","13","2","2","2","2","true","","","","","","","","","","","","","","","","",""
"image-keyboard-response","72","940125","0.0-4.0-6.0-1.0-1.13","60520f7b38610f36b366a806","6367f433b739b6e52a2c937e","020y3yvj9wzc","null","","null","","","","","","","","./tasks/HMM-beads/Images/WhiteBeadChoice.png","","","","","","","","","","","","","","","","","","","","","","","",""
"image-keyboard-response","73","940637","0.0-4.0-6.0-1.0-2.13","60520f7b38610f36b366a806","6367f433b739b6e52a2c937e","020y3yvj9wzc","null","","null","","","","","","","","./tasks/HMM-beads/Images/WhiteBeadChoiceCorrect.png","","","","","","","","","","","","","","","","","","","","","","","",""
"image-keyboard-response","74","940710","0.0-4.0-6.0-1.0-0.14","60520f7b38610f36b366a806","6367f433b739b6e52a2c937e","020y3yvj9wzc","72","","j","","","","","","","","./tasks/HMM-beads/Images/NewTrialWC.png","lowH","14","2","2","2","2","true","","","","","","","","","","","","","","","","",""
"image-keyboard-response","75","941025","0.0-4.0-6.0-1.0-1.14","60520f7b38610f36b366a806","6367f433b739b6e52a2c937e","020y3yvj9wzc","null","","null","","","","","","","","./tasks/HMM-beads/Images/WhiteBeadChoice.png","","","","","","","","","","","","","","","","","","","","","","","",""
"image-keyboard-response","76","941534","0.0-4.0-6.0-1.0-2.14","60520f7b38610f36b366a806","6367f433b739b6e52a2c937e","020y3yvj9wzc","null","","null","","","","","","","","./tasks/HMM-beads/Images/WhiteBeadChoiceCorrect.png","","","","","","","","","","","","","","","","","","","","","","","",""
"image-keyboard-response","77","941586","0.0-4.0-6.0-1.0-0.15","60520f7b38610f36b366a806","6367f433b739b6e52a2c937e","020y3yvj9wzc","51","","j","","","","","","","","./tasks/HMM-beads/Images/NewTrialWC.png","lowH","15","2","1","2","2","false","","","","","","","","","","","","","","","","",""
"image-keyboard-response","78","941903","0.0-4.0-6.0-1.0-1.15","60520f7b38610f36b366a806","6367f433b739b6e52a2c937e","020y3yvj9wzc","null","","null","","","","","","","","./tasks/HMM-beads/Images/WhiteBeadChoice.png","","","","","","","","","","","","","","","","","","","","","","","",""
"image-keyboard-response","79","942416","0.0-4.0-6.0-1.0-2.15","60520f7b38610f36b366a806","6367f433b739b6e52a2c937e","020y3yvj9wzc","null","","null","","","","","","","","./tasks/HMM-beads/Images/WhiteBeadChoiceWrong.png","","","","","","","","","","","","","","","","","","","","","","","",""
"image-keyboard-response","80","942465","0.0-4.0-6.0-1.0-0.16","60520f7b38610f36b366a806","6367f433b739b6e52a2c937e","020y3yvj9wzc","48","","j","","","","","","","","./tasks/HMM-beads/Images/NewTrialBC.png","lowH","16","2","1","1","2","false","","","","","","","","","","","","","","","","",""
"image-keyboard-response","81","942775","0.0-4.0-6.0-1.0-1.16","60520f7b38610f36b366a806","6367f433b739b6e52a2c937e","020y3yvj9wzc","null","","null","","","","","","","","./tasks/HMM-beads/Images/WhiteBeadChoice.png","","","","","","","","","","","","","","","","","","","","","","","",""
"image-keyboard-response","82","943285","0.0-4.0-6.0-1.0-2.16","60520f7b38610f36b366a806","6367f433b739b6e52a2c937e","020y3yvj9wzc","null","","null","","","","","","","","./tasks/HMM-beads/Images/WhiteBeadChoiceWrong.png","","","","","","","","","","","","","","","","","","","","","","","",""
"image-keyboard-response","83","943365","0.0-4.0-6.0-1.0-0.17","60520f7b38610f36b366a806","6367f433b739b6e52a2c937e","020y3yvj9wzc","79","","j","","","","","","","","./tasks/HMM-beads/Images/NewTrialBC.png","lowH","17","2","2","1","2","true","","","","","","","","","","","","","","","","",""
"image-keyboard-response","84","943671","0.0-4.0-6.0-1.0-1.17","60520f7b38610f36b366a806","6367f433b739b6e52a2c937e","020y3yvj9wzc","null","","null","","","","","","","","./tasks/HMM-beads/Images/WhiteBeadChoice.png","","","","","","","","","","","","","","","","","","","","","","","",""
"image-keyboard-response","85","944182","0.0-4.0-6.0-1.0-2.17","60520f7b38610f36b366a806","6367f433b739b6e52a2c937e","020y3yvj9wzc","null","","null","","","","","","","","./tasks/HMM-beads/Images/WhiteBeadChoiceCorrect.png","","","","","","","","","","","","","","","","","","","","","","","",""
"image-keyboard-response","86","944244","0.0-4.0-6.0-1.0-0.18","60520f7b38610f36b366a806","6367f433b739b6e52a2c937e","020y3yvj9wzc","61","","j","","","","","","","","./tasks/HMM-beads/Images/NewTrialWC.png","lowH","18","2","2","2","2","true","","","","","","","","","","","","","","","","",""
"image-keyboard-response","87","944557","0.0-4.0-6.0-1.0-1.18","60520f7b38610f36b366a806","6367f433b739b6e52a2c937e","020y3yvj9wzc","null","","null","","","","","","","","./tasks/HMM-beads/Images/WhiteBeadChoice.png","","","","","","","","","","","","","","","","","","","","","","","",""
"image-keyboard-response","88","945071","0.0-4.0-6.0-1.0-2.18","60520f7b38610f36b366a806","6367f433b739b6e52a2c937e","020y3yvj9wzc","null","","null","","","","","","","","./tasks/HMM-beads/Images/WhiteBeadChoiceCorrect.png","","","","","","","","","","","","","","","","","","","","","","","",""
"image-keyboard-response","89","945100","0.0-4.0-6.0-1.0-0.19","60520f7b38610f36b366a806","6367f433b739b6e52a2c937e","020y3yvj9wzc","27","","j","","","","","","","","./tasks/HMM-beads/Images/NewTrialWC.png","lowH","19","2","2","2","2","true","","","","","","","","","","","","","","","","",""
"image-keyboard-response","90","945414","0.0-4.0-6.0-1.0-1.19","60520f7b38610f36b366a806","6367f433b739b6e52a2c937e","020y3yvj9wzc","null","","null","","","","","","","","./tasks/HMM-beads/Images/WhiteBeadChoice.png","","","","","","","","","","","","","","","","","","","","","","","",""
"image-keyboard-response","91","945925","0.0-4.0-6.0-1.0-2.19","60520f7b38610f36b366a806","6367f433b739b6e52a2c937e","020y3yvj9wzc","null","","null","","","","","","","","./tasks/HMM-beads/Images/WhiteBeadChoiceCorrect.png","","","","","","","","","","","","","","","","","","","","","","","",""
"html-keyboard-response","92","947051","0.0-4.0-6.0-2.0","60520f7b38610f36b366a806","6367f433b739b6e52a2c937e","020y3yvj9wzc","1125",""," ","","","","","","","","","","","","","","","","17","","","","","","","","","","","","","","","",""
"instructions","93","951557","0.0-4.0-7.0","60520f7b38610f36b366a806","6367f433b739b6e52a2c937e","020y3yvj9wzc","4505","","","","[{""page_index"":0,""viewing_time"":1010},{""page_index"":1,""viewing_time"":705},{""page_index"":2,""viewing_time"":2791}]","","","","","","","","","","","","","","","","","","","","","","","","","","","","","",""
"html-keyboard-response","94","954456","0.0-4.0-8.0-0.0","60520f7b38610f36b366a806","6367f433b739b6e52a2c937e","020y3yvj9wzc","2899",""," ","","","","","","","","<div align=center>In this block, there will be a <b>99%</b> chance that the jar on the next trial will be different from the jar on the current trial.<br><br></div>","","","","","","","","","","","","","","","","","","","","","","","",""
"image-keyboard-response","95","955918","0.0-4.0-8.0-1.0-0.0","60520f7b38610f36b366a806","6367f433b739b6e52a2c937e","020y3yvj9wzc","1462","","f","","","","","","","","./tasks/HMM-beads/Images/NoChoice.png","highH","0","1","1","0","1","true","","","","","","","","","","","","","","","","",""
"image-keyboard-response","96","956231","0.0-4.0-8.0-1.0-1.0","60520f7b38610f36b366a806","6367f433b739b6e52a2c937e","020y3yvj9wzc","null","","null","","","","","","","","./tasks/HMM-beads/Images/BlackBeadChoice.png","","","","","","","","","","","","","","","","","","","","","","","",""
"image-keyboard-response","97","956743","0.0-4.0-8.0-1.0-2.0","60520f7b38610f36b366a806","6367f433b739b6e52a2c937e","020y3yvj9wzc","null","","null","","","","","","","","./tasks/HMM-beads/Images/BlackBeadChoiceCorrect.png","","","","","","","","","","","","","","","","","","","","","","","",""
"image-keyboard-response","98","957019","0.0-4.0-8.0-1.0-0.1","60520f7b38610f36b366a806","6367f433b739b6e52a2c937e","020y3yvj9wzc","274","","j","","","","","","","","./tasks/HMM-beads/Images/NewTrialBC.png","highH","1","2","2","1","2","true","","","","","","","","","","","","","","","","",""
"image-keyboard-response","99","957335","0.0-4.0-8.0-1.0-1.1","60520f7b38610f36b366a806","6367f433b739b6e52a2c937e","020y3yvj9wzc","null","","null","","","","","","","","./tasks/HMM-beads/Images/WhiteBeadChoice.png","","","","","","","","","","","","","","","","","","","","","","","",""
"image-keyboard-response","100","957851","0.0-4.0-8.0-1.0-2.1","60520f7b38610f36b366a806","6367f433b739b6e52a2c937e","020y3yvj9wzc","null","","null","","","","","","","","./tasks/HMM-beads/Images/WhiteBeadChoiceCorrect.png","","","","","","","","","","","","","","","","","","","","","","","",""
"image-keyboard-response","101","957980","0.0-4.0-8.0-1.0-0.2","60520f7b38610f36b366a806","6367f433b739b6e52a2c937e","020y3yvj9wzc","128","","f","","","","","","","","./tasks/HMM-beads/Images/NewTrialWC.png","highH","2","1","1","2","1","true","","","","","","","","","","","","","","","","",""
"image-keyboard-response","102","958287","0.0-4.0-8.0-1.0-1.2","60520f7b38610f36b366a806","6367f433b739b6e52a2c937e","020y3yvj9wzc","null","","null","","","","","","","","./tasks/HMM-beads/Images/BlackBeadChoice.png","","","","","","","","","","","","","","","","","","","","","","","",""
"image-keyboard-response","103","958798","0.0-4.0-8.0-1.0-2.2","60520f7b38610f36b366a806","6367f433b739b6e52a2c937e","020y3yvj9wzc","null","","null","","","","","","","","./tasks/HMM-beads/Images/BlackBeadChoiceCorrect.png","","","","","","","","","","","","","","","","","","","","","","","",""
"image-keyboard-response","104","958950","0.0-4.0-8.0-1.0-0.3","60520f7b38610f36b366a806","6367f433b739b6e52a2c937e","020y3yvj9wzc","151","","j","","","","","","","","./tasks/HMM-beads/Images/NewTrialBC.png","highH","3","2","2","1","2","true","","","","","","","","","","","","","","","","",""
"image-keyboard-response","105","959264","0.0-4.0-8.0-1.0-1.3","60520f7b38610f36b366a806","6367f433b739b6e52a2c937e","020y3yvj9wzc","null","","null","","","","","","","","./tasks/HMM-beads/Images/WhiteBeadChoice.png","","","","","","","","","","","","","","","","","","","","","","","",""
"image-keyboard-response","106","959773","0.0-4.0-8.0-1.0-2.3","60520f7b38610f36b366a806","6367f433b739b6e52a2c937e","020y3yvj9wzc","null","","null","","","","","","","","./tasks/HMM-beads/Images/WhiteBeadChoiceCorrect.png","","","","","","","","","","","","","","","","","","","","","","","",""
"image-keyboard-response","107","959933","0.0-4.0-8.0-1.0-0.4","60520f7b38610f36b366a806","6367f433b739b6e52a2c937e","020y3yvj9wzc","156","","f","","","","","","","","./tasks/HMM-beads/Images/NewTrialWC.png","highH","4","1","1","2","1","true","","","","","","","","","","","","","","","","",""
"image-keyboard-response","108","960241","0.0-4.0-8.0-1.0-1.4","60520f7b38610f36b366a806","6367f433b739b6e52a2c937e","020y3yvj9wzc","null","","null","","","","","","","","./tasks/HMM-beads/Images/BlackBeadChoice.png","","","","","","","","","","","","","","","","","","","","","","","",""
"image-keyboard-response","109","960751","0.0-4.0-8.0-1.0-2.4","60520f7b38610f36b366a806","6367f433b739b6e52a2c937e","020y3yvj9wzc","null","","null","","","","","","","","./tasks/HMM-beads/Images/BlackBeadChoiceCorrect.png","","","","","","","","","","","","","","","","","","","","","","","",""
"image-keyboard-response","110","960859","0.0-4.0-8.0-1.0-0.5","60520f7b38610f36b366a806","6367f433b739b6e52a2c937e","020y3yvj9wzc","107","","j","","","","","","","","./tasks/HMM-beads/Images/NewTrialBC.png","highH","5","2","2","1","2","true","","","","","","","","","","","","","","","","",""
"image-keyboard-response","111","961170","0.0-4.0-8.0-1.0-1.5","60520f7b38610f36b366a806","6367f433b739b6e52a2c937e","020y3yvj9wzc","null","","null","","","","","","","","./tasks/HMM-beads/Images/WhiteBeadChoice.png","","","","","","","","","","","","","","","","","","","","","","","",""
"image-keyboard-response","112","961682","0.0-4.0-8.0-1.0-2.5","60520f7b38610f36b366a806","6367f433b739b6e52a2c937e","020y3yvj9wzc","null","","null","","","","","","","","./tasks/HMM-beads/Images/WhiteBeadChoiceCorrect.png","","","","","","","","","","","","","","","","","","","","","","","",""
"image-keyboard-response","113","961733","0.0-4.0-8.0-1.0-0.6","60520f7b38610f36b366a806","6367f433b739b6e52a2c937e","020y3yvj9wzc","49","","f","","","","","","","","./tasks/HMM-beads/Images/NewTrialWC.png","highH","6","1","1","2","1","true","","","","","","","","","","","","","","","","",""
"image-keyboard-response","114","962037","0.0-4.0-8.0-1.0-1.6","60520f7b38610f36b366a806","6367f433b739b6e52a2c937e","020y3yvj9wzc","null","","null","","","","","","","","./tasks/HMM-beads/Images/BlackBeadChoice.png","","","","","","","","","","","","","","","","","","","","","","","",""
"image-keyboard-response","115","962550","0.0-4.0-8.0-1.0-2.6","60520f7b38610f36b366a806","6367f433b739b6e52a2c937e","020y3yvj9wzc","null","","null","","","","","","","","./tasks/HMM-beads/Images/BlackBeadChoiceCorrect.png","","","","","","","","","","","","","","","","","","","","","","","",""
"image-keyboard-response","116","962614","0.0-4.0-8.0-1.0-0.7","60520f7b38610f36b366a806","6367f433b739b6e52a2c937e","020y3yvj9wzc","64","","j","","","","","","","","./tasks/HMM-beads/Images/NewTrialBC.png","highH","7","2","1","1","2","false","","","","","","","","","","","","","","","","",""
"image-keyboard-response","117","962937","0.0-4.0-8.0-1.0-1.7","60520f7b38610f36b366a806","6367f433b739b6e52a2c937e","020y3yvj9wzc","null","","null","","","","","","","","./tasks/HMM-beads/Images/WhiteBeadChoice.png","","","","","","","","","","","","","","","","","","","","","","","",""
"image-keyboard-response","118","963450","0.0-4.0-8.0-1.0-2.7","60520f7b38610f36b366a806","6367f433b739b6e52a2c937e","020y3yvj9wzc","null","","null","","","","","","","","./tasks/HMM-beads/Images/WhiteBeadChoiceWrong.png","","","","","","","","","","","","","","","","","","","","","","","",""
"image-keyboard-response","119","963510","0.0-4.0-8.0-1.0-0.8","60520f7b38610f36b366a806","6367f433b739b6e52a2c937e","020y3yvj9wzc","59","","f","","","","","","","","./tasks/HMM-beads/Images/NewTrialBC.png","highH","8","1","1","1","1","true","","","","","","","","","","","","","","","","",""
"image-keyboard-response","120","963823","0.0-4.0-8.0-1.0-1.8","60520f7b38610f36b366a806","6367f433b739b6e52a2c937e","020y3yvj9wzc","null","","null","","","","","","","","./tasks/HMM-beads/Images/BlackBeadChoice.png","","","","","","","","","","","","","","","","","","","","","","","",""
"image-keyboard-response","121","964336","0.0-4.0-8.0-1.0-2.8","60520f7b38610f36b366a806","6367f433b739b6e52a2c937e","020y3yvj9wzc","null","","null","","","","","","","","./tasks/HMM-beads/Images/BlackBeadChoiceCorrect.png","","","","","","","","","","","","","","","","","","","","","","","",""
"image-keyboard-response","122","964349","0.0-4.0-8.0-1.0-0.9","60520f7b38610f36b366a806","6367f433b739b6e52a2c937e","020y3yvj9wzc","12","","j","","","","","","","","./tasks/HMM-beads/Images/NewTrialBC.png","highH","9","2","2","1","2","true","","","","","","","","","","","","","","","","",""
"image-keyboard-response","123","964664","0.0-4.0-8.0-1.0-1.9","60520f7b38610f36b366a806","6367f433b739b6e52a2c937e","020y3yvj9wzc","null","","null","","","","","","","","./tasks/HMM-beads/Images/WhiteBeadChoice.png","","","","","","","","","","","","","","","","","","","","","","","",""
"image-keyboard-response","124","965172","0.0-4.0-8.0-1.0-2.9","60520f7b38610f36b366a806","6367f433b739b6e52a2c937e","020y3yvj9wzc","null","","null","","","","","","","","./tasks/HMM-beads/Images/WhiteBeadChoiceCorrect.png","","","","","","","","","","","","","","","","","","","","","","","",""
"image-keyboard-response","125","965179","0.0-4.0-8.0-1.0-0.10","60520f7b38610f36b366a806","6367f433b739b6e52a2c937e","020y3yvj9wzc","6","","f","","","","","","","","./tasks/HMM-beads/Images/NewTrialWC.png","highH","10","1","1","2","1","true","","","","","","","","","","","","","","","","",""
"image-keyboard-response","126","965497","0.0-4.0-8.0-1.0-1.10","60520f7b38610f36b366a806","6367f433b739b6e52a2c937e","020y3yvj9wzc","null","","null","","","","","","","","./tasks/HMM-beads/Images/BlackBeadChoice.png","","","","","","","","","","","","","","","","","","","","","","","",""
"image-keyboard-response","127","966013","0.0-4.0-8.0-1.0-2.10","60520f7b38610f36b366a806","6367f433b739b6e52a2c937e","020y3yvj9wzc","null","","null","","","","","","","","./tasks/HMM-beads/Images/BlackBeadChoiceCorrect.png","","","","","","","","","","","","","","","","","","","","","","","",""
"image-keyboard-response","128","966019","0.0-4.0-8.0-1.0-0.11","60520f7b38610f36b366a806","6367f433b739b6e52a2c937e","020y3yvj9wzc","5","","j","","","","","","","","./tasks/HMM-beads/Images/NewTrialBC.png","highH","11","2","2","1","2","true","","","","","","","","","","","","","","","","",""
"image-keyboard-response","129","966323","0.0-4.0-8.0-1.0-1.11","60520f7b38610f36b366a806","6367f433b739b6e52a2c937e","020y3yvj9wzc","null","","null","","","","","","","","./tasks/HMM-beads/Images/WhiteBeadChoice.png","","","","","","","","","","","","","","","","","","","","","","","",""
"image-keyboard-response","130","966827","0.0-4.0-8.0-1.0-2.11","60520f7b38610f36b366a806","6367f433b739b6e52a2c937e","020y3yvj9wzc","null","","null","","","","","","","","./tasks/HMM-beads/Images/WhiteBeadChoiceCorrect.png","","","","","","","","","","","","","","","","","","","","","","","",""
"image-keyboard-response","131","967206","0.0-4.0-8.0-1.0-0.12","60520f7b38610f36b366a806","6367f433b739b6e52a2c937e","020y3yvj9wzc","376","","f","","","","","","","","./tasks/HMM-beads/Images/NewTrialWC.png","highH","12","1","1","2","1","true","","","","","","","","","","","","","","","","",""
"image-keyboard-response","132","967522","0.0-4.0-8.0-1.0-1.12","60520f7b38610f36b366a806","6367f433b739b6e52a2c937e","020y3yvj9wzc","null","","null","","","","","","","","./tasks/HMM-beads/Images/BlackBeadChoice.png","","","","","","","","","","","","","","","","","","","","","","","",""
"image-keyboard-response","133","968035","0.0-4.0-8.0-1.0-2.12","60520f7b38610f36b366a806","6367f433b739b6e52a2c937e","020y3yvj9wzc","null","","null","","","","","","","","./tasks/HMM-beads/Images/BlackBeadChoiceCorrect.png","","","","","","","","","","","","","","","","","","","","","","","",""
"image-keyboard-response","134","968087","0.0-4.0-8.0-1.0-0.13","60520f7b38610f36b366a806","6367f433b739b6e52a2c937e","020y3yvj9wzc","51","","j","","","","","","","","./tasks/HMM-beads/Images/NewTrialBC.png","highH","13","2","1","1","2","false","","","","","","","","","","","","","","","","",""
"image-keyboard-response","135","968408","0.0-4.0-8.0-1.0-1.13","60520f7b38610f36b366a806","6367f433b739b6e52a2c937e","020y3yvj9wzc","null","","null","","","","","","","","./tasks/HMM-beads/Images/WhiteBeadChoice.png","","","","","","","","","","","","","","","","","","","","","","","",""
"image-keyboard-response","136","968921","0.0-4.0-8.0-1.0-2.13","60520f7b38610f36b366a806","6367f433b739b6e52a2c937e","020y3yvj9wzc","null","","null","","","","","","","","./tasks/HMM-beads/Images/WhiteBeadChoiceWrong.png","","","","","","","","","","","","","","","","","","","","","","","",""
"image-keyboard-response","137","968984","0.0-4.0-8.0-1.0-0.14","60520f7b38610f36b366a806","6367f433b739b6e52a2c937e","020y3yvj9wzc","61","","f","","","","","","","","./tasks/HMM-beads/Images/NewTrialBC.png","highH","14","1","2","1","1","false","","","","","","","","","","","","","","","","",""
"image-keyboard-response","138","969295","0.0-4.0-8.0-1.0-1.14","60520f7b38610f36b366a806","6367f433b739b6e52a2c937e","020y3yvj9wzc","null","","null","","","","","","","","./tasks/HMM-beads/Images/BlackBeadChoice.png","","","","","","","","","","","","","","","","","","","","","","","",""
"image-keyboard-response","139","969808","0.0-4.0-8.0-1.0-2.14","60520f7b38610f36b366a806","6367f433b739b6e52a2c937e","020y3yvj9wzc","null","","null","","","","","","","","./tasks/HMM-beads/Images/BlackBeadChoiceWrong.png","","","","","","","","","","","","","","","","","","","","","","","",""
"image-keyboard-response","140","969888","0.0-4.0-8.0-1.0-0.15","60520f7b38610f36b366a806","6367f433b739b6e52a2c937e","020y3yvj9wzc","78","","j","","","","","","","","./tasks/HMM-beads/Images/NewTrialWC.png","highH","15","2","2","2","2","true","","","","","","","","","","","","","","","","",""
"image-keyboard-response","141","970196","0.0-4.0-8.0-1.0-1.15","60520f7b38610f36b366a806","6367f433b739b6e52a2c937e","020y3yvj9wzc","null","","null","","","","","","","","./tasks/HMM-beads/Images/WhiteBeadChoice.png","","","","","","","","","","","","","","","","","","","","","","","",""
"image-keyboard-response","142","970710","0.0-4.0-8.0-1.0-2.15","60520f7b38610f36b366a806","6367f433b739b6e52a2c937e","020y3yvj9wzc","null","","null","","","","","","","","./tasks/HMM-beads/Images/WhiteBeadChoiceCorrect.png","","","","","","","","","","","","","","","","","","","","","","","",""
"image-keyboard-response","143","970740","0.0-4.0-8.0-1.0-0.16","60520f7b38610f36b366a806","6367f433b739b6e52a2c937e","020y3yvj9wzc","29","","f","","","","","","","","./tasks/HMM-beads/Images/NewTrialWC.png","highH","16","1","1","2","1","true","","","","","","","","","","","","","","","","",""
"image-keyboard-response","144","971052","0.0-4.0-8.0-1.0-1.16","60520f7b38610f36b366a806","6367f433b739b6e52a2c937e","020y3yvj9wzc","null","","null","","","","","","","","./tasks/HMM-beads/Images/BlackBeadChoice.png","","","","","","","","","","","","","","","","","","","","","","","",""
"image-keyboard-response","145","971564","0.0-4.0-8.0-1.0-2.16","60520f7b38610f36b366a806","6367f433b739b6e52a2c937e","020y3yvj9wzc","null","","null","","","","","","","","./tasks/HMM-beads/Images/BlackBeadChoiceCorrect.png","","","","","","","","","","","","","","","","","","","","","","","",""
"image-keyboard-response","146","971601","0.0-4.0-8.0-1.0-0.17","60520f7b38610f36b366a806","6367f433b739b6e52a2c937e","020y3yvj9wzc","37","","j","","","","","","","","./tasks/HMM-beads/Images/NewTrialBC.png","highH","17","2","2","1","2","true","","","","","","","","","","","","","","","","",""
"image-keyboard-response","147","971919","0.0-4.0-8.0-1.0-1.17","60520f7b38610f36b366a806","6367f433b739b6e52a2c937e","020y3yvj9wzc","null","","null","","","","","","","","./tasks/HMM-beads/Images/WhiteBeadChoice.png","","","","","","","","","","","","","","","","","","","","","","","",""
"image-keyboard-response","148","972431","0.0-4.0-8.0-1.0-2.17","60520f7b38610f36b366a806","6367f433b739b6e52a2c937e","020y3yvj9wzc","null","","null","","","","","","","","./tasks/HMM-beads/Images/WhiteBeadChoiceCorrect.png","","","","","","","","","","","","","","","","","","","","","","","",""
"image-keyboard-response","149","972453","0.0-4.0-8.0-1.0-0.18","60520f7b38610f36b366a806","6367f433b739b6e52a2c937e","020y3yvj9wzc","21","","f","","","","","","","","./tasks/HMM-beads/Images/NewTrialWC.png","highH","18","1","2","2","1","false","","","","","","","","","","","","","","","","",""
"image-keyboard-response","150","972755","0.0-4.0-8.0-1.0-1.18","60520f7b38610f36b366a806","6367f433b739b6e52a2c937e","020y3yvj9wzc","null","","null","","","","","","","","./tasks/HMM-beads/Images/BlackBeadChoice.png","","","","","","","","","","","","","","","","","","","","","","","",""
"image-keyboard-response","151","973266","0.0-4.0-8.0-1.0-2.18","60520f7b38610f36b366a806","6367f433b739b6e52a2c937e","020y3yvj9wzc","null","","null","","","","","","","","./tasks/HMM-beads/Images/BlackBeadChoiceWrong.png","","","","","","","","","","","","","","","","","","","","","","","",""
"image-keyboard-response","152","973336","0.0-4.0-8.0-1.0-0.19","60520f7b38610f36b366a806","6367f433b739b6e52a2c937e","020y3yvj9wzc","68","","j","","","","","","","","./tasks/HMM-beads/Images/NewTrialWC.png","highH","19","2","2","2","2","true","","","","","","","","","","","","","","","","",""
"image-keyboard-response","153","973652","0.0-4.0-8.0-1.0-1.19","60520f7b38610f36b366a806","6367f433b739b6e52a2c937e","020y3yvj9wzc","null","","null","","","","","","","","./tasks/HMM-beads/Images/WhiteBeadChoice.png","","","","","","","","","","","","","","","","","","","","","","","",""
"image-keyboard-response","154","974164","0.0-4.0-8.0-1.0-2.19","60520f7b38610f36b366a806","6367f433b739b6e52a2c937e","020y3yvj9wzc","null","","null","","","","","","","","./tasks/HMM-beads/Images/WhiteBeadChoiceCorrect.png","","","","","","","","","","","","","","","","","","","","","","","",""
"html-keyboard-response","155","975091","0.0-4.0-8.0-2.0","60520f7b38610f36b366a806","6367f433b739b6e52a2c937e","020y3yvj9wzc","926",""," ","","","","","","","","","","","","","","","","","16","","","","","","","","","","","","","","",""
"instructions","156","980192","0.0-4.0-9.0","60520f7b38610f36b366a806","6367f433b739b6e52a2c937e","020y3yvj9wzc","5102","","","","[{""page_index"":0,""viewing_time"":5102}]","","","","","","","","","","","","","","","","","","","","","","","","","","","","","",""
"instructions","157","983165","0.0-5.0","60520f7b38610f36b366a806","6367f433b739b6e52a2c937e","020y3yvj9wzc","2972","","","","[{""page_index"":0,""viewing_time"":2378},{""page_index"":1,""viewing_time"":595}]","","","","","","","","","","","","","","","","","","","","","","","","","","","","","",""
"instructions","158","984194","0.0-6.0","60520f7b38610f36b366a806","6367f433b739b6e52a2c937e","020y3yvj9wzc","1030","","","","[{""page_index"":0,""viewing_time"":1030}]","","","","","","","","","","","","","","","","","","","","","","","","","","","","","",""
"preload","159","986831","0.0-7.0-0.0","60520f7b38610f36b366a806","6367f433b739b6e52a2c937e","020y3yvj9wzc","","","","","","true","false","[]","[]","[]","","","","","","","","","","","","","","","","","","","","","","","","",""
"instructions","160","1019860","0.0-7.0-1.0","60520f7b38610f36b366a806","6367f433b739b6e52a2c937e","020y3yvj9wzc","33028","","","","[{""page_index"":0,""viewing_time"":3265},{""page_index"":1,""viewing_time"":4271},{""page_index"":2,""viewing_time"":7164},{""page_index"":3,""viewing_time"":11991},{""page_index"":4,""viewing_time"":6337}]","","","","","","","","","","","","","","","","","","","","","","","","","","","","","",""
"html-keyboard-response","161","1020804","0.0-7.0-2.0-0.0","60520f7b38610f36b366a806","6367f433b739b6e52a2c937e","020y3yvj9wzc","944","","j","","","","","","","","<div style=""background-image: url('./tasks/two-arm-new/img/green_planet.png')""><div id=""jspsych-space-daw-top-stim-left"" ></div><div id=""jspsych-space-daw-top-stim-middle"" ></div><div id=""jspsych-space-daw-top-stim-right"" ></div><div style=""clear:both""></div><div id=""jspsych-space-daw-bottom-stim-left"" style=""background-image: url('./tasks/two-arm-new/img/green_stim_2_deact.png')""></div><div id=""jspsych-space-daw-bottom-stim-middle"" ></div><div id=""jspsych-space-daw-bottom-stim-right"" style=""background-image: url('./tasks/two-arm-new/img/green_stim_1.png')""></div></div>","good_alien_practice","0","","","","1","","","","green","1","","","","","","","","","","","","",""
"html-keyboard-response","162","1021307","0.0-7.0-2.0-1.0","60520f7b38610f36b366a806","6367f433b739b6e52a2c937e","020y3yvj9wzc","null","","null","","","","","","","","<div style=""background-image: url('./tasks/two-arm-new/img/green_planet.png')""><div id=""jspsych-space-daw-top-stim-left"" ></div><div id=""jspsych-space-daw-top-stim-middle"" ></div><div id=""jspsych-space-daw-top-stim-right"" ></div><div style=""clear:both""></div><div id=""jspsych-space-daw-bottom-stim-left"" style=""background-image: url('./tasks/two-arm-new/img/green_stim_2_deact.png')""></div><div id=""jspsych-space-daw-bottom-stim-middle"" ></div><div id=""jspsych-space-daw-bottom-stim-right"" class=""jspsych-space-daw-bottom-stim-border"" style=""background-image: url('./tasks/two-arm-new/img/green_stim_1.png')""></div></div>","","","","","","","","","","","","","","","","","","","","","","","",""
"html-keyboard-response","163","1022314","0.0-7.0-2.0-2.0","60520f7b38610f36b366a806","6367f433b739b6e52a2c937e","020y3yvj9wzc","null","","null","","","","","","","","<div style=""background-image: url('./tasks/two-arm-new/img/green_planet.png')""><div id=""jspsych-space-daw-top-stim-left"" ></div><div id=""jspsych-space-daw-top-stim-middle"" ></div><div id=""jspsych-space-daw-top-stim-right"" style=""background-image: url('./tasks/two-arm-new/img/treasure.png')""></div><div style=""clear:both""></div><div id=""jspsych-space-daw-bottom-stim-left"" style=""background-image: url('./tasks/two-arm-new/img/green_stim_2_deact.png')""></div><div id=""jspsych-space-daw-bottom-stim-middle"" ></div><div id=""jspsych-space-daw-bottom-stim-right"" class=""jspsych-space-daw-bottom-stim-border"" style=""background-image: url('./tasks/two-arm-new/img/green_stim_1.png')""></div></div>","","","","","","","","","","","","","","","","","","","","","","","",""
"html-keyboard-response","164","1022617","0.0-7.0-2.0-0.1","60520f7b38610f36b366a806","6367f433b739b6e52a2c937e","020y3yvj9wzc","302","","j","","","","","","","","<div style=""background-image: url('./tasks/two-arm-new/img/green_planet.png')""><div id=""jspsych-space-daw-top-stim-left"" ></div><div id=""jspsych-space-daw-top-stim-middle"" ></div><div id=""jspsych-space-daw-top-stim-right"" ></div><div style=""clear:both""></div><div id=""jspsych-space-daw-bottom-stim-left"" style=""background-image: url('./tasks/two-arm-new/img/green_stim_2_deact.png')""></div><div id=""jspsych-space-daw-bottom-stim-middle"" ></div><div id=""jspsych-space-daw-bottom-stim-right"" style=""background-image: url('./tasks/two-arm-new/img/green_stim_1.png')""></div></div>","good_alien_practice","1","","","","1","","","","green","1","","","","","","","","","","","","",""
"html-keyboard-response","165","1023137","0.0-7.0-2.0-1.1","60520f7b38610f36b366a806","6367f433b739b6e52a2c937e","020y3yvj9wzc","null","","null","","","","","","","","<div style=""background-image: url('./tasks/two-arm-new/img/green_planet.png')""><div id=""jspsych-space-daw-top-stim-left"" ></div><div id=""jspsych-space-daw-top-stim-middle"" ></div><div id=""jspsych-space-daw-top-stim-right"" ></div><div style=""clear:both""></div><div id=""jspsych-space-daw-bottom-stim-left"" style=""background-image: url('./tasks/two-arm-new/img/green_stim_2_deact.png')""></div><div id=""jspsych-space-daw-bottom-stim-middle"" ></div><div id=""jspsych-space-daw-bottom-stim-right"" class=""jspsych-space-daw-bottom-stim-border"" style=""background-image: url('./tasks/two-arm-new/img/green_stim_1.png')""></div></div>","","","","","","","","","","","","","","","","","","","","","","","",""
"html-keyboard-response","166","1024162","0.0-7.0-2.0-2.1","60520f7b38610f36b366a806","6367f433b739b6e52a2c937e","020y3yvj9wzc","null","","null","","","","","","","","<div style=""background-image: url('./tasks/two-arm-new/img/green_planet.png')""><div id=""jspsych-space-daw-top-stim-left"" ></div><div id=""jspsych-space-daw-top-stim-middle"" ></div><div id=""jspsych-space-daw-top-stim-right"" style=""background-image: url('./tasks/two-arm-new/img/treasure.png')""></div><div style=""clear:both""></div><div id=""jspsych-space-daw-bottom-stim-left"" style=""background-image: url('./tasks/two-arm-new/img/green_stim_2_deact.png')""></div><div id=""jspsych-space-daw-bottom-stim-middle"" ></div><div id=""jspsych-space-daw-bottom-stim-right"" class=""jspsych-space-daw-bottom-stim-border"" style=""background-image: url('./tasks/two-arm-new/img/green_stim_1.png')""></div></div>","","","","","","","","","","","","","","","","","","","","","","","",""
"html-keyboard-response","167","1024474","0.0-7.0-2.0-0.2","60520f7b38610f36b366a806","6367f433b739b6e52a2c937e","020y3yvj9wzc","312","","j","","","","","","","","<div style=""background-image: url('./tasks/two-arm-new/img/green_planet.png')""><div id=""jspsych-space-daw-top-stim-left"" ></div><div id=""jspsych-space-daw-top-stim-middle"" ></div><div id=""jspsych-space-daw-top-stim-right"" ></div><div style=""clear:both""></div><div id=""jspsych-space-daw-bottom-stim-left"" style=""background-image: url('./tasks/two-arm-new/img/green_stim_2_deact.png')""></div><div id=""jspsych-space-daw-bottom-stim-middle"" ></div><div id=""jspsych-space-daw-bottom-stim-right"" style=""background-image: url('./tasks/two-arm-new/img/green_stim_1.png')""></div></div>","good_alien_practice","2","","","","1","","","","green","1","","","","","","","","","","","","",""
"html-keyboard-response","168","1024980","0.0-7.0-2.0-1.2","60520f7b38610f36b366a806","6367f433b739b6e52a2c937e","020y3yvj9wzc","null","","null","","","","","","","","<div style=""background-image: url('./tasks/two-arm-new/img/green_planet.png')""><div id=""jspsych-space-daw-top-stim-left"" ></div><div id=""jspsych-space-daw-top-stim-middle"" ></div><div id=""jspsych-space-daw-top-stim-right"" ></div><div style=""clear:both""></div><div id=""jspsych-space-daw-bottom-stim-left"" style=""background-image: url('./tasks/two-arm-new/img/green_stim_2_deact.png')""></div><div id=""jspsych-space-daw-bottom-stim-middle"" ></div><div id=""jspsych-space-daw-bottom-stim-right"" class=""jspsych-space-daw-bottom-stim-border"" style=""background-image: url('./tasks/two-arm-new/img/green_stim_1.png')""></div></div>","","","","","","","","","","","","","","","","","","","","","","","",""
"html-keyboard-response","169","1025995","0.0-7.0-2.0-2.2","60520f7b38610f36b366a806","6367f433b739b6e52a2c937e","020y3yvj9wzc","null","","null","","","","","","","","<div style=""background-image: url('./tasks/two-arm-new/img/green_planet.png')""><div id=""jspsych-space-daw-top-stim-left"" ></div><div id=""jspsych-space-daw-top-stim-middle"" ></div><div id=""jspsych-space-daw-top-stim-right"" style=""background-image: url('./tasks/two-arm-new/img/treasure.png')""></div><div style=""clear:both""></div><div id=""jspsych-space-daw-bottom-stim-left"" style=""background-image: url('./tasks/two-arm-new/img/green_stim_2_deact.png')""></div><div id=""jspsych-space-daw-bottom-stim-middle"" ></div><div id=""jspsych-space-daw-bottom-stim-right"" class=""jspsych-space-daw-bottom-stim-border"" style=""background-image: url('./tasks/two-arm-new/img/green_stim_1.png')""></div></div>","","","","","","","","","","","","","","","","","","","","","","","",""
"html-keyboard-response","170","1026349","0.0-7.0-2.0-0.3","60520f7b38610f36b366a806","6367f433b739b6e52a2c937e","020y3yvj9wzc","353","","f","","","","","","","","<div style=""background-image: url('./tasks/two-arm-new/img/green_planet.png')""><div id=""jspsych-space-daw-top-stim-left"" ></div><div id=""jspsych-space-daw-top-stim-middle"" ></div><div id=""jspsych-space-daw-top-stim-right"" ></div><div style=""clear:both""></div><div id=""jspsych-space-daw-bottom-stim-left"" style=""background-image: url('./tasks/two-arm-new/img/green_stim_1.png')""></div><div id=""jspsych-space-daw-bottom-stim-middle"" ></div><div id=""jspsych-space-daw-bottom-stim-right"" style=""background-image: url('./tasks/two-arm-new/img/green_stim_2_deact.png')""></div></div>","good_alien_practice","3","","","","1","","","","green","0","","","","","","","","","","","","",""
"html-keyboard-response","171","1026866","0.0-7.0-2.0-1.3","60520f7b38610f36b366a806","6367f433b739b6e52a2c937e","020y3yvj9wzc","null","","null","","","","","","","","<div style=""background-image: url('./tasks/two-arm-new/img/green_planet.png')""><div id=""jspsych-space-daw-top-stim-left"" ></div><div id=""jspsych-space-daw-top-stim-middle"" ></div><div id=""jspsych-space-daw-top-stim-right"" ></div><div style=""clear:both""></div><div id=""jspsych-space-daw-bottom-stim-left"" class=""jspsych-space-daw-bottom-stim-border"" style=""background-image: url('./tasks/two-arm-new/img/green_stim_1.png')""></div><div id=""jspsych-space-daw-bottom-stim-middle"" ></div><div id=""jspsych-space-daw-bottom-stim-right"" style=""background-image: url('./tasks/two-arm-new/img/green_stim_2_deact.png')""></div></div>","","","","","","","","","","","","","","","","","","","","","","","",""
"html-keyboard-response","172","1027875","0.0-7.0-2.0-2.3","60520f7b38610f36b366a806","6367f433b739b6e52a2c937e","020y3yvj9wzc","null","","null","","","","","","","","<div style=""background-image: url('./tasks/two-arm-new/img/green_planet.png')""><div id=""jspsych-space-daw-top-stim-left"" style=""background-image: url('./tasks/two-arm-new/img/noreward.png')""></div><div id=""jspsych-space-daw-top-stim-middle"" ></div><div id=""jspsych-space-daw-top-stim-right"" ></div><div style=""clear:both""></div><div id=""jspsych-space-daw-bottom-stim-left"" class=""jspsych-space-daw-bottom-stim-border"" style=""background-image: url('./tasks/two-arm-new/img/green_stim_1_sad.png')""></div><div id=""jspsych-space-daw-bottom-stim-middle"" ></div><div id=""jspsych-space-daw-bottom-stim-right"" style=""background-image: url('./tasks/two-arm-new/img/green_stim_2_deact.png')""></div></div>","","","","","","","","","","","","","","","","","","","","","","","",""
"html-keyboard-response","173","1028141","0.0-7.0-2.0-0.4","60520f7b38610f36b366a806","6367f433b739b6e52a2c937e","020y3yvj9wzc","266","","f","","","","","","","","<div style=""background-image: url('./tasks/two-arm-new/img/green_planet.png')""><div id=""jspsych-space-daw-top-stim-left"" ></div><div id=""jspsych-space-daw-top-stim-middle"" ></div><div id=""jspsych-space-daw-top-stim-right"" ></div><div style=""clear:both""></div><div id=""jspsych-space-daw-bottom-stim-left"" style=""background-image: url('./tasks/two-arm-new/img/green_stim_1.png')""></div><div id=""jspsych-space-daw-bottom-stim-middle"" ></div><div id=""jspsych-space-daw-bottom-stim-right"" style=""background-image: url('./tasks/two-arm-new/img/green_stim_2_deact.png')""></div></div>","good_alien_practice","4","","","","1","","","","green","1","","","","","","","","","","","","",""
"html-keyboard-response","174","1028649","0.0-7.0-2.0-1.4","60520f7b38610f36b366a806","6367f433b739b6e52a2c937e","020y3yvj9wzc","null","","null","","","","","","","","<div style=""background-image: url('./tasks/two-arm-new/img/green_planet.png')""><div id=""jspsych-space-daw-top-stim-left"" ></div><div id=""jspsych-space-daw-top-stim-middle"" ></div><div id=""jspsych-space-daw-top-stim-right"" ></div><div style=""clear:both""></div><div id=""jspsych-space-daw-bottom-stim-left"" class=""jspsych-space-daw-bottom-stim-border"" style=""background-image: url('./tasks/two-arm-new/img/green_stim_1.png')""></div><div id=""jspsych-space-daw-bottom-stim-middle"" ></div><div id=""jspsych-space-daw-bottom-stim-right"" style=""background-image: url('./tasks/two-arm-new/img/green_stim_2_deact.png')""></div></div>","","","","","","","","","","","","","","","","","","","","","","","",""
"html-keyboard-response","175","1029673","0.0-7.0-2.0-2.4","60520f7b38610f36b366a806","6367f433b739b6e52a2c937e","020y3yvj9wzc","null","","null","","","","","","","","<div style=""background-image: url('./tasks/two-arm-new/img/green_planet.png')""><div id=""jspsych-space-daw-top-stim-left"" style=""background-image: url('./tasks/two-arm-new/img/treasure.png')""></div><div id=""jspsych-space-daw-top-stim-middle"" ></div><div id=""jspsych-space-daw-top-stim-right"" ></div><div style=""clear:both""></div><div id=""jspsych-space-daw-bottom-stim-left"" class=""jspsych-space-daw-bottom-stim-border"" style=""background-image: url('./tasks/two-arm-new/img/green_stim_1.png')""></div><div id=""jspsych-space-daw-bottom-stim-middle"" ></div><div id=""jspsych-space-daw-bottom-stim-right"" style=""background-image: url('./tasks/two-arm-new/img/green_stim_2_deact.png')""></div></div>","","","","","","","","","","","","","","","","","","","","","","","",""
"instructions","176","1032241","0.0-7.0-3.0","60520f7b38610f36b366a806","6367f433b739b6e52a2c937e","020y3yvj9wzc","2567","","","","[{""page_index"":0,""viewing_time"":2567}]","","","","","","","","","","","","","","","","","","","","","","","","","","","","","",""
"html-keyboard-response","177","1032874","0.0-7.0-4.0-0.0","60520f7b38610f36b366a806","6367f433b739b6e52a2c937e","020y3yvj9wzc","633","","f","","","","","","","","<div style=""background-image: url('./tasks/two-arm-new/img/yellow_planet.png')""><div id=""jspsych-space-daw-top-stim-left"" ></div><div id=""jspsych-space-daw-top-stim-middle"" ></div><div id=""jspsych-space-daw-top-stim-right"" ></div><div style=""clear:both""></div><div id=""jspsych-space-daw-bottom-stim-left"" style=""background-image: url('./tasks/two-arm-new/img/yellow_stim_1.png')""></div><div id=""jspsych-space-daw-bottom-stim-middle"" ></div><div id=""jspsych-space-daw-bottom-stim-right"" style=""background-image: url('./tasks/two-arm-new/img/yellow_stim_2_deact.png')""></div></div>","bad_alien_practice","0","","","","1","","","","yellow","0","","","","","","","","","","","","",""
"html-keyboard-response","178","1033379","0.0-7.0-4.0-1.0","60520f7b38610f36b366a806","6367f433b739b6e52a2c937e","020y3yvj9wzc","null","","null","","","","","","","","<div style=""background-image: url('./tasks/two-arm-new/img/yellow_planet.png')""><div id=""jspsych-space-daw-top-stim-left"" ></div><div id=""jspsych-space-daw-top-stim-middle"" ></div><div id=""jspsych-space-daw-top-stim-right"" ></div><div style=""clear:both""></div><div id=""jspsych-space-daw-bottom-stim-left"" class=""jspsych-space-daw-bottom-stim-border"" style=""background-image: url('./tasks/two-arm-new/img/yellow_stim_1.png')""></div><div id=""jspsych-space-daw-bottom-stim-middle"" ></div><div id=""jspsych-space-daw-bottom-stim-right"" style=""background-image: url('./tasks/two-arm-new/img/yellow_stim_2_deact.png')""></div></div>","","","","","","","","","","","","","","","","","","","","","","","",""
"html-keyboard-response","179","1034400","0.0-7.0-4.0-2.0","60520f7b38610f36b366a806","6367f433b739b6e52a2c937e","020y3yvj9wzc","null","","null","","","","","","","","<div style=""background-image: url('./tasks/two-arm-new/img/yellow_planet.png')""><div id=""jspsych-space-daw-top-stim-left"" style=""background-image: url('./tasks/two-arm-new/img/noreward.png')""></div><div id=""jspsych-space-daw-top-stim-middle"" ></div><div id=""jspsych-space-daw-top-stim-right"" ></div><div style=""clear:both""></div><div id=""jspsych-space-daw-bottom-stim-left"" class=""jspsych-space-daw-bottom-stim-border"" style=""background-image: url('./tasks/two-arm-new/img/yellow_stim_1_sad.png')""></div><div id=""jspsych-space-daw-bottom-stim-middle"" ></div><div id=""jspsych-space-daw-bottom-stim-right"" style=""background-image: url('./tasks/two-arm-new/img/yellow_stim_2_deact.png')""></div></div>","","","","","","","","","","","","","","","","","","","","","","","",""
"html-keyboard-response","180","1034774","0.0-7.0-4.0-0.1","60520f7b38610f36b366a806","6367f433b739b6e52a2c937e","020y3yvj9wzc","374","","f","","","","","","","","<div style=""background-image: url('./tasks/two-arm-new/img/yellow_planet.png')""><div id=""jspsych-space-daw-top-stim-left"" ></div><div id=""jspsych-space-daw-top-stim-middle"" ></div><div id=""jspsych-space-daw-top-stim-right"" ></div><div style=""clear:both""></div><div id=""jspsych-space-daw-bottom-stim-left"" style=""background-image: url('./tasks/two-arm-new/img/yellow_stim_1.png')""></div><div id=""jspsych-space-daw-bottom-stim-middle"" ></div><div id=""jspsych-space-daw-bottom-stim-right"" style=""background-image: url('./tasks/two-arm-new/img/yellow_stim_2_deact.png')""></div></div>","bad_alien_practice","1","","","","1","","","","yellow","1","","","","","","","","","","","","",""
"html-keyboard-response","181","1035280","0.0-7.0-4.0-1.1","60520f7b38610f36b366a806","6367f433b739b6e52a2c937e","020y3yvj9wzc","null","","null","","","","","","","","<div style=""background-image: url('./tasks/two-arm-new/img/yellow_planet.png')""><div id=""jspsych-space-daw-top-stim-left"" ></div><div id=""jspsych-space-daw-top-stim-middle"" ></div><div id=""jspsych-space-daw-top-stim-right"" ></div><div style=""clear:both""></div><div id=""jspsych-space-daw-bottom-stim-left"" class=""jspsych-space-daw-bottom-stim-border"" style=""background-image: url('./tasks/two-arm-new/img/yellow_stim_1.png')""></div><div id=""jspsych-space-daw-bottom-stim-middle"" ></div><div id=""jspsych-space-daw-bottom-stim-right"" style=""background-image: url('./tasks/two-arm-new/img/yellow_stim_2_deact.png')""></div></div>","","","","","","","","","","","","","","","","","","","","","","","",""
"html-keyboard-response","182","1036293","0.0-7.0-4.0-2.1","60520f7b38610f36b366a806","6367f433b739b6e52a2c937e","020y3yvj9wzc","null","","null","","","","","","","","<div style=""background-image: url('./tasks/two-arm-new/img/yellow_planet.png')""><div id=""jspsych-space-daw-top-stim-left"" style=""background-image: url('./tasks/two-arm-new/img/treasure.png')""></div><div id=""jspsych-space-daw-top-stim-middle"" ></div><div id=""jspsych-space-daw-top-stim-right"" ></div><div style=""clear:both""></div><div id=""jspsych-space-daw-bottom-stim-left"" class=""jspsych-space-daw-bottom-stim-border"" style=""background-image: url('./tasks/two-arm-new/img/yellow_stim_1.png')""></div><div id=""jspsych-space-daw-bottom-stim-middle"" ></div><div id=""jspsych-space-daw-bottom-stim-right"" style=""background-image: url('./tasks/two-arm-new/img/yellow_stim_2_deact.png')""></div></div>","","","","","","","","","","","","","","","","","","","","","","","",""
"html-keyboard-response","183","1036587","0.0-7.0-4.0-0.2","60520f7b38610f36b366a806","6367f433b739b6e52a2c937e","020y3yvj9wzc","293","","f","","","","","","","","<div style=""background-image: url('./tasks/two-arm-new/img/yellow_planet.png')""><div id=""jspsych-space-daw-top-stim-left"" ></div><div id=""jspsych-space-daw-top-stim-middle"" ></div><div id=""jspsych-space-daw-top-stim-right"" ></div><div style=""clear:both""></div><div id=""jspsych-space-daw-bottom-stim-left"" style=""background-image: url('./tasks/two-arm-new/img/yellow_stim_1.png')""></div><div id=""jspsych-space-daw-bottom-stim-middle"" ></div><div id=""jspsych-space-daw-bottom-stim-right"" style=""background-image: url('./tasks/two-arm-new/img/yellow_stim_2_deact.png')""></div></div>","bad_alien_practice","2","","","","1","","","","yellow","0","","","","","","","","","","","","",""
"html-keyboard-response","184","1037104","0.0-7.0-4.0-1.2","60520f7b38610f36b366a806","6367f433b739b6e52a2c937e","020y3yvj9wzc","null","","null","","","","","","","","<div style=""background-image: url('./tasks/two-arm-new/img/yellow_planet.png')""><div id=""jspsych-space-daw-top-stim-left"" ></div><div id=""jspsych-space-daw-top-stim-middle"" ></div><div id=""jspsych-space-daw-top-stim-right"" ></div><div style=""clear:both""></div><div id=""jspsych-space-daw-bottom-stim-left"" class=""jspsych-space-daw-bottom-stim-border"" style=""background-image: url('./tasks/two-arm-new/img/yellow_stim_1.png')""></div><div id=""jspsych-space-daw-bottom-stim-middle"" ></div><div id=""jspsych-space-daw-bottom-stim-right"" style=""background-image: url('./tasks/two-arm-new/img/yellow_stim_2_deact.png')""></div></div>","","","","","","","","","","","","","","","","","","","","","","","",""
"html-keyboard-response","185","1038115","0.0-7.0-4.0-2.2","60520f7b38610f36b366a806","6367f433b739b6e52a2c937e","020y3yvj9wzc","null","","null","","","","","","","","<div style=""background-image: url('./tasks/two-arm-new/img/yellow_planet.png')""><div id=""jspsych-space-daw-top-stim-left"" style=""background-image: url('./tasks/two-arm-new/img/noreward.png')""></div><div id=""jspsych-space-daw-top-stim-middle"" ></div><div id=""jspsych-space-daw-top-stim-right"" ></div><div style=""clear:both""></div><div id=""jspsych-space-daw-bottom-stim-left"" class=""jspsych-space-daw-bottom-stim-border"" style=""background-image: url('./tasks/two-arm-new/img/yellow_stim_1_sad.png')""></div><div id=""jspsych-space-daw-bottom-stim-middle"" ></div><div id=""jspsych-space-daw-bottom-stim-right"" style=""background-image: url('./tasks/two-arm-new/img/yellow_stim_2_deact.png')""></div></div>","","","","","","","","","","","","","","","","","","","","","","","",""
"html-keyboard-response","186","1038449","0.0-7.0-4.0-0.3","60520f7b38610f36b366a806","6367f433b739b6e52a2c937e","020y3yvj9wzc","333","","j","","","","","","","","<div style=""background-image: url('./tasks/two-arm-new/img/yellow_planet.png')""><div id=""jspsych-space-daw-top-stim-left"" ></div><div id=""jspsych-space-daw-top-stim-middle"" ></div><div id=""jspsych-space-daw-top-stim-right"" ></div><div style=""clear:both""></div><div id=""jspsych-space-daw-bottom-stim-left"" style=""background-image: url('./tasks/two-arm-new/img/yellow_stim_2_deact.png')""></div><div id=""jspsych-space-daw-bottom-stim-middle"" ></div><div id=""jspsych-space-daw-bottom-stim-right"" style=""background-image: url('./tasks/two-arm-new/img/yellow_stim_1.png')""></div></div>","bad_alien_practice","3","","","","1","","","","yellow","0","","","","","","","","","","","","",""
"html-keyboard-response","187","1038958","0.0-7.0-4.0-1.3","60520f7b38610f36b366a806","6367f433b739b6e52a2c937e","020y3yvj9wzc","null","","null","","","","","","","","<div style=""background-image: url('./tasks/two-arm-new/img/yellow_planet.png')""><div id=""jspsych-space-daw-top-stim-left"" ></div><div id=""jspsych-space-daw-top-stim-middle"" ></div><div id=""jspsych-space-daw-top-stim-right"" ></div><div style=""clear:both""></div><div id=""jspsych-space-daw-bottom-stim-left"" style=""background-image: url('./tasks/two-arm-new/img/yellow_stim_2_deact.png')""></div><div id=""jspsych-space-daw-bottom-stim-middle"" ></div><div id=""jspsych-space-daw-bottom-stim-right"" class=""jspsych-space-daw-bottom-stim-border"" style=""background-image: url('./tasks/two-arm-new/img/yellow_stim_1.png')""></div></div>","","","","","","","","","","","","","","","","","","","","","","","",""
"html-keyboard-response","188","1039976","0.0-7.0-4.0-2.3","60520f7b38610f36b366a806","6367f433b739b6e52a2c937e","020y3yvj9wzc","null","","null","","","","","","","","<div style=""background-image: url('./tasks/two-arm-new/img/yellow_planet.png')""><div id=""jspsych-space-daw-top-stim-left"" ></div><div id=""jspsych-space-daw-top-stim-middle"" ></div><div id=""jspsych-space-daw-top-stim-right"" style=""background-image: url('./tasks/two-arm-new/img/noreward.png')""></div><div style=""clear:both""></div><div id=""jspsych-space-daw-bottom-stim-left"" style=""background-image: url('./tasks/two-arm-new/img/yellow_stim_2_deact.png')""></div><div id=""jspsych-space-daw-bottom-stim-middle"" ></div><div id=""jspsych-space-daw-bottom-stim-right"" class=""jspsych-space-daw-bottom-stim-border"" style=""background-image: url('./tasks/two-arm-new/img/yellow_stim_1_sad.png')""></div></div>","","","","","","","","","","","","","","","","","","","","","","","",""
"html-keyboard-response","189","1040326","0.0-7.0-4.0-0.4","60520f7b38610f36b366a806","6367f433b739b6e52a2c937e","020y3yvj9wzc","349","","j","","","","","","","","<div style=""background-image: url('./tasks/two-arm-new/img/yellow_planet.png')""><div id=""jspsych-space-daw-top-stim-left"" ></div><div id=""jspsych-space-daw-top-stim-middle"" ></div><div id=""jspsych-space-daw-top-stim-right"" ></div><div style=""clear:both""></div><div id=""jspsych-space-daw-bottom-stim-left"" style=""background-image: url('./tasks/two-arm-new/img/yellow_stim_2_deact.png')""></div><div id=""jspsych-space-daw-bottom-stim-middle"" ></div><div id=""jspsych-space-daw-bottom-stim-right"" style=""background-image: url('./tasks/two-arm-new/img/yellow_stim_1.png')""></div></div>","bad_alien_practice","4","","","","1","","","","yellow","0","","","","","","","","","","","","",""
"html-keyboard-response","190","1040847","0.0-7.0-4.0-1.4","60520f7b38610f36b366a806","6367f433b739b6e52a2c937e","020y3yvj9wzc","null","","null","","","","","","","","<div style=""background-image: url('./tasks/two-arm-new/img/yellow_planet.png')""><div id=""jspsych-space-daw-top-stim-left"" ></div><div id=""jspsych-space-daw-top-stim-middle"" ></div><div id=""jspsych-space-daw-top-stim-right"" ></div><div style=""clear:both""></div><div id=""jspsych-space-daw-bottom-stim-left"" style=""background-image: url('./tasks/two-arm-new/img/yellow_stim_2_deact.png')""></div><div id=""jspsych-space-daw-bottom-stim-middle"" ></div><div id=""jspsych-space-daw-bottom-stim-right"" class=""jspsych-space-daw-bottom-stim-border"" style=""background-image: url('./tasks/two-arm-new/img/yellow_stim_1.png')""></div></div>","","","","","","","","","","","","","","","","","","","","","","","",""
"html-keyboard-response","191","1041858","0.0-7.0-4.0-2.4","60520f7b38610f36b366a806","6367f433b739b6e52a2c937e","020y3yvj9wzc","null","","null","","","","","","","","<div style=""background-image: url('./tasks/two-arm-new/img/yellow_planet.png')""><div id=""jspsych-space-daw-top-stim-left"" ></div><div id=""jspsych-space-daw-top-stim-middle"" ></div><div id=""jspsych-space-daw-top-stim-right"" style=""background-image: url('./tasks/two-arm-new/img/noreward.png')""></div><div style=""clear:both""></div><div id=""jspsych-space-daw-bottom-stim-left"" style=""background-image: url('./tasks/two-arm-new/img/yellow_stim_2_deact.png')""></div><div id=""jspsych-space-daw-bottom-stim-middle"" ></div><div id=""jspsych-space-daw-bottom-stim-right"" class=""jspsych-space-daw-bottom-stim-border"" style=""background-image: url('./tasks/two-arm-new/img/yellow_stim_1_sad.png')""></div></div>","","","","","","","","","","","","","","","","","","","","","","","",""
"instructions","192","1058583","0.0-7.0-5.0","60520f7b38610f36b366a806","6367f433b739b6e52a2c937e","020y3yvj9wzc","16725","","","","[{""page_index"":0,""viewing_time"":16725}]","","","","","","","","","","","","","","","","","","","","","","","","","","","","","",""
"html-keyboard-response","193","1060044","0.0-7.0-6.0-0.0","60520f7b38610f36b366a806","6367f433b739b6e52a2c937e","020y3yvj9wzc","1460","","f","","","","","","","","<div style=""background-image: url('./tasks/two-arm-new/img/green_planet.png')""><div id=""jspsych-space-daw-top-stim-left"" ></div><div id=""jspsych-space-daw-top-stim-middle"" ></div><div id=""jspsych-space-daw-top-stim-right"" ></div><div style=""clear:both""></div><div id=""jspsych-space-daw-bottom-stim-left"" style=""background-image: url('./tasks/two-arm-new/img/green_stim_2.png')""></div><div id=""jspsych-space-daw-bottom-stim-middle"" ></div><div id=""jspsych-space-daw-bottom-stim-right"" style=""background-image: url('./tasks/two-arm-new/img/green_stim_1.png')""></div></div>","aliens_practice","0","","","","2","","","","green","0","","","","","","","","","","","","",""
"html-keyboard-response","194","1060550","0.0-7.0-6.0-1.0","60520f7b38610f36b366a806","6367f433b739b6e52a2c937e","020y3yvj9wzc","null","","null","","","","","","","","<div style=""background-image: url('./tasks/two-arm-new/img/green_planet.png')""><div id=""jspsych-space-daw-top-stim-left"" ></div><div id=""jspsych-space-daw-top-stim-middle"" ></div><div id=""jspsych-space-daw-top-stim-right"" ></div><div style=""clear:both""></div><div id=""jspsych-space-daw-bottom-stim-left"" class=""jspsych-space-daw-bottom-stim-border"" style=""background-image: url('./tasks/two-arm-new/img/green_stim_2.png')""></div><div id=""jspsych-space-daw-bottom-stim-middle"" ></div><div id=""jspsych-space-daw-bottom-stim-right"" style=""background-image: url('./tasks/two-arm-new/img/green_stim_1.png')""></div></div>","","","","","","","","","","","","","","","","","","","","","","","",""
"html-keyboard-response","195","1061556","0.0-7.0-6.0-2.0","60520f7b38610f36b366a806","6367f433b739b6e52a2c937e","020y3yvj9wzc","null","","null","","","","","","","","<div style=""background-image: url('./tasks/two-arm-new/img/green_planet.png')""><div id=""jspsych-space-daw-top-stim-left"" style=""background-image: url('./tasks/two-arm-new/img/noreward.png')""></div><div id=""jspsych-space-daw-top-stim-middle"" ></div><div id=""jspsych-space-daw-top-stim-right"" ></div><div style=""clear:both""></div><div id=""jspsych-space-daw-bottom-stim-left"" class=""jspsych-space-daw-bottom-stim-border"" style=""background-image: url('./tasks/two-arm-new/img/green_stim_2_sad.png')""></div><div id=""jspsych-space-daw-bottom-stim-middle"" ></div><div id=""jspsych-space-daw-bottom-stim-right"" style=""background-image: url('./tasks/two-arm-new/img/green_stim_1.png')""></div></div>","","","","","","","","","","","","","","","","","","","","","","","",""
"html-keyboard-response","196","1061793","0.0-7.0-6.0-0.1","60520f7b38610f36b366a806","6367f433b739b6e52a2c937e","020y3yvj9wzc","237","","f","","","","","","","","<div style=""background-image: url('./tasks/two-arm-new/img/green_planet.png')""><div id=""jspsych-space-daw-top-stim-left"" ></div><div id=""jspsych-space-daw-top-stim-middle"" ></div><div id=""jspsych-space-daw-top-stim-right"" ></div><div style=""clear:both""></div><div id=""jspsych-space-daw-bottom-stim-left"" style=""background-image: url('./tasks/two-arm-new/img/green_stim_2.png')""></div><div id=""jspsych-space-daw-bottom-stim-middle"" ></div><div id=""jspsych-space-daw-bottom-stim-right"" style=""background-image: url('./tasks/two-arm-new/img/green_stim_1.png')""></div></div>","aliens_practice","1","","","","2","","","","green","1","","","","","","","","","","","","",""
"html-keyboard-response","197","1062303","0.0-7.0-6.0-1.1","60520f7b38610f36b366a806","6367f433b739b6e52a2c937e","020y3yvj9wzc","null","","null","","","","","","","","<div style=""background-image: url('./tasks/two-arm-new/img/green_planet.png')""><div id=""jspsych-space-daw-top-stim-left"" ></div><div id=""jspsych-space-daw-top-stim-middle"" ></div><div id=""jspsych-space-daw-top-stim-right"" ></div><div style=""clear:both""></div><div id=""jspsych-space-daw-bottom-stim-left"" class=""jspsych-space-daw-bottom-stim-border"" style=""background-image: url('./tasks/two-arm-new/img/green_stim_2.png')""></div><div id=""jspsych-space-daw-bottom-stim-middle"" ></div><div id=""jspsych-space-daw-bottom-stim-right"" style=""background-image: url('./tasks/two-arm-new/img/green_stim_1.png')""></div></div>","","","","","","","","","","","","","","","","","","","","","","","",""
"html-keyboard-response","198","1063313","0.0-7.0-6.0-2.1","60520f7b38610f36b366a806","6367f433b739b6e52a2c937e","020y3yvj9wzc","null","","null","","","","","","","","<div style=""background-image: url('./tasks/two-arm-new/img/green_planet.png')""><div id=""jspsych-space-daw-top-stim-left"" style=""background-image: url('./tasks/two-arm-new/img/treasure.png')""></div><div id=""jspsych-space-daw-top-stim-middle"" ></div><div id=""jspsych-space-daw-top-stim-right"" ></div><div style=""clear:both""></div><div id=""jspsych-space-daw-bottom-stim-left"" class=""jspsych-space-daw-bottom-stim-border"" style=""background-image: url('./tasks/two-arm-new/img/green_stim_2.png')""></div><div id=""jspsych-space-daw-bottom-stim-middle"" ></div><div id=""jspsych-space-daw-bottom-stim-right"" style=""background-image: url('./tasks/two-arm-new/img/green_stim_1.png')""></div></div>","","","","","","","","","","","","","","","","","","","","","","","",""
"html-keyboard-response","199","1063454","0.0-7.0-6.0-0.2","60520f7b38610f36b366a806","6367f433b739b6e52a2c937e","020y3yvj9wzc","140","","f","","","","","","","","<div style=""background-image: url('./tasks/two-arm-new/img/green_planet.png')""><div id=""jspsych-space-daw-top-stim-left"" ></div><div id=""jspsych-space-daw-top-stim-middle"" ></div><div id=""jspsych-space-daw-top-stim-right"" ></div><div style=""clear:both""></div><div id=""jspsych-space-daw-bottom-stim-left"" style=""background-image: url('./tasks/two-arm-new/img/green_stim_2.png')""></div><div id=""jspsych-space-daw-bottom-stim-middle"" ></div><div id=""jspsych-space-daw-bottom-stim-right"" style=""background-image: url('./tasks/two-arm-new/img/green_stim_1.png')""></div></div>","aliens_practice","2","","","","2","","","","green","1","","","","","","","","","","","","",""
"html-keyboard-response","200","1063964","0.0-7.0-6.0-1.2","60520f7b38610f36b366a806","6367f433b739b6e52a2c937e","020y3yvj9wzc","null","","null","","","","","","","","<div style=""background-image: url('./tasks/two-arm-new/img/green_planet.png')""><div id=""jspsych-space-daw-top-stim-left"" ></div><div id=""jspsych-space-daw-top-stim-middle"" ></div><div id=""jspsych-space-daw-top-stim-right"" ></div><div style=""clear:both""></div><div id=""jspsych-space-daw-bottom-stim-left"" class=""jspsych-space-daw-bottom-stim-border"" style=""background-image: url('./tasks/two-arm-new/img/green_stim_2.png')""></div><div id=""jspsych-space-daw-bottom-stim-middle"" ></div><div id=""jspsych-space-daw-bottom-stim-right"" style=""background-image: url('./tasks/two-arm-new/img/green_stim_1.png')""></div></div>","","","","","","","","","","","","","","","","","","","","","","","",""
"html-keyboard-response","201","1064985","0.0-7.0-6.0-2.2","60520f7b38610f36b366a806","6367f433b739b6e52a2c937e","020y3yvj9wzc","null","","null","","","","","","","","<div style=""background-image: url('./tasks/two-arm-new/img/green_planet.png')""><div id=""jspsych-space-daw-top-stim-left"" style=""background-image: url('./tasks/two-arm-new/img/treasure.png')""></div><div id=""jspsych-space-daw-top-stim-middle"" ></div><div id=""jspsych-space-daw-top-stim-right"" ></div><div style=""clear:both""></div><div id=""jspsych-space-daw-bottom-stim-left"" class=""jspsych-space-daw-bottom-stim-border"" style=""background-image: url('./tasks/two-arm-new/img/green_stim_2.png')""></div><div id=""jspsych-space-daw-bottom-stim-middle"" ></div><div id=""jspsych-space-daw-bottom-stim-right"" style=""background-image: url('./tasks/two-arm-new/img/green_stim_1.png')""></div></div>","","","","","","","","","","","","","","","","","","","","","","","",""
"html-keyboard-response","202","1065246","0.0-7.0-6.0-0.3","60520f7b38610f36b366a806","6367f433b739b6e52a2c937e","020y3yvj9wzc","261","","f","","","","","","","","<div style=""background-image: url('./tasks/two-arm-new/img/green_planet.png')""><div id=""jspsych-space-daw-top-stim-left"" ></div><div id=""jspsych-space-daw-top-stim-middle"" ></div><div id=""jspsych-space-daw-top-stim-right"" ></div><div style=""clear:both""></div><div id=""jspsych-space-daw-bottom-stim-left"" style=""background-image: url('./tasks/two-arm-new/img/green_stim_2.png')""></div><div id=""jspsych-space-daw-bottom-stim-middle"" ></div><div id=""jspsych-space-daw-bottom-stim-right"" style=""background-image: url('./tasks/two-arm-new/img/green_stim_1.png')""></div></div>","aliens_practice","3","","","","2","","","","green","1","","","","","","","","","","","","",""
"html-keyboard-response","203","1065757","0.0-7.0-6.0-1.3","60520f7b38610f36b366a806","6367f433b739b6e52a2c937e","020y3yvj9wzc","null","","null","","","","","","","","<div style=""background-image: url('./tasks/two-arm-new/img/green_planet.png')""><div id=""jspsych-space-daw-top-stim-left"" ></div><div id=""jspsych-space-daw-top-stim-middle"" ></div><div id=""jspsych-space-daw-top-stim-right"" ></div><div style=""clear:both""></div><div id=""jspsych-space-daw-bottom-stim-left"" class=""jspsych-space-daw-bottom-stim-border"" style=""background-image: url('./tasks/two-arm-new/img/green_stim_2.png')""></div><div id=""jspsych-space-daw-bottom-stim-middle"" ></div><div id=""jspsych-space-daw-bottom-stim-right"" style=""background-image: url('./tasks/two-arm-new/img/green_stim_1.png')""></div></div>","","","","","","","","","","","","","","","","","","","","","","","",""
"html-keyboard-response","204","1066765","0.0-7.0-6.0-2.3","60520f7b38610f36b366a806","6367f433b739b6e52a2c937e","020y3yvj9wzc","null","","null","","","","","","","","<div style=""background-image: url('./tasks/two-arm-new/img/green_planet.png')""><div id=""jspsych-space-daw-top-stim-left"" style=""background-image: url('./tasks/two-arm-new/img/treasure.png')""></div><div id=""jspsych-space-daw-top-stim-middle"" ></div><div id=""jspsych-space-daw-top-stim-right"" ></div><div style=""clear:both""></div><div id=""jspsych-space-daw-bottom-stim-left"" class=""jspsych-space-daw-bottom-stim-border"" style=""background-image: url('./tasks/two-arm-new/img/green_stim_2.png')""></div><div id=""jspsych-space-daw-bottom-stim-middle"" ></div><div id=""jspsych-space-daw-bottom-stim-right"" style=""background-image: url('./tasks/two-arm-new/img/green_stim_1.png')""></div></div>","","","","","","","","","","","","","","","","","","","","","","","",""
"html-keyboard-response","205","1067060","0.0-7.0-6.0-0.4","60520f7b38610f36b366a806","6367f433b739b6e52a2c937e","020y3yvj9wzc","294","","f","","","","","","","","<div style=""background-image: url('./tasks/two-arm-new/img/green_planet.png')""><div id=""jspsych-space-daw-top-stim-left"" ></div><div id=""jspsych-space-daw-top-stim-middle"" ></div><div id=""jspsych-space-daw-top-stim-right"" ></div><div style=""clear:both""></div><div id=""jspsych-space-daw-bottom-stim-left"" style=""background-image: url('./tasks/two-arm-new/img/green_stim_2.png')""></div><div id=""jspsych-space-daw-bottom-stim-middle"" ></div><div id=""jspsych-space-daw-bottom-stim-right"" style=""background-image: url('./tasks/two-arm-new/img/green_stim_1.png')""></div></div>","aliens_practice","4","","","","2","","","","green","1","","","","","","","","","","","","",""
"html-keyboard-response","206","1067574","0.0-7.0-6.0-1.4","60520f7b38610f36b366a806","6367f433b739b6e52a2c937e","020y3yvj9wzc","null","","null","","","","","","","","<div style=""background-image: url('./tasks/two-arm-new/img/green_planet.png')""><div id=""jspsych-space-daw-top-stim-left"" ></div><div id=""jspsych-space-daw-top-stim-middle"" ></div><div id=""jspsych-space-daw-top-stim-right"" ></div><div style=""clear:both""></div><div id=""jspsych-space-daw-bottom-stim-left"" class=""jspsych-space-daw-bottom-stim-border"" style=""background-image: url('./tasks/two-arm-new/img/green_stim_2.png')""></div><div id=""jspsych-space-daw-bottom-stim-middle"" ></div><div id=""jspsych-space-daw-bottom-stim-right"" style=""background-image: url('./tasks/two-arm-new/img/green_stim_1.png')""></div></div>","","","","","","","","","","","","","","","","","","","","","","","",""
"html-keyboard-response","207","1068585","0.0-7.0-6.0-2.4","60520f7b38610f36b366a806","6367f433b739b6e52a2c937e","020y3yvj9wzc","null","","null","","","","","","","","<div style=""background-image: url('./tasks/two-arm-new/img/green_planet.png')""><div id=""jspsych-space-daw-top-stim-left"" style=""background-image: url('./tasks/two-arm-new/img/treasure.png')""></div><div id=""jspsych-space-daw-top-stim-middle"" ></div><div id=""jspsych-space-daw-top-stim-right"" ></div><div style=""clear:both""></div><div id=""jspsych-space-daw-bottom-stim-left"" class=""jspsych-space-daw-bottom-stim-border"" style=""background-image: url('./tasks/two-arm-new/img/green_stim_2.png')""></div><div id=""jspsych-space-daw-bottom-stim-middle"" ></div><div id=""jspsych-space-daw-bottom-stim-right"" style=""background-image: url('./tasks/two-arm-new/img/green_stim_1.png')""></div></div>","","","","","","","","","","","","","","","","","","","","","","","",""
"instructions","208","1596359","0.0-7.0-7.0","60520f7b38610f36b366a806","6367f433b739b6e52a2c937e","020y3yvj9wzc","527774","","","","[{""page_index"":0,""viewing_time"":8515},{""page_index"":1,""viewing_time"":2989},{""page_index"":2,""viewing_time"":1140},{""page_index"":3,""viewing_time"":24110},{""page_index"":4,""viewing_time"":472085},{""page_index"":5,""viewing_time"":18935}]","","","","","","","","","","","","","","","","","","","","","","","","","","","","","",""
"html-keyboard-response","209","1598233","0.0-7.0-8.0-0.0","60520f7b38610f36b366a806","6367f433b739b6e52a2c937e","020y3yvj9wzc","1873","","f","","","","","","","","<div style=""background-image: url('./tasks/two-arm-new/img/earth_planet.png')""><div id=""jspsych-space-daw-top-stim-left"" ></div><div id=""jspsych-space-daw-top-stim-middle"" ></div><div id=""jspsych-space-daw-top-stim-right"" ></div><div style=""clear:both""></div><div id=""jspsych-space-daw-bottom-stim-left"" style=""background-image: url('./tasks/two-arm-new/img/earth_stim_1.png')""></div><div id=""jspsych-space-daw-bottom-stim-middle"" ></div><div id=""jspsych-space-daw-bottom-stim-right"" style=""background-image: url('./tasks/two-arm-new/img/earth_stim_2.png')""></div></div><p>Score: 0</p>","","","","","","","","","","","","","","","","","","","","","","","",""
"html-keyboard-response","210","1598747","0.0-7.0-8.0-1.0","60520f7b38610f36b366a806","6367f433b739b6e52a2c937e","020y3yvj9wzc","null","","null","","","","","","","","<div style=""background-image: url('./tasks/two-arm-new/img/earth_planet.png')""><div id=""jspsych-space-daw-top-stim-left"" ></div><div id=""jspsych-space-daw-top-stim-middle"" ></div><div id=""jspsych-space-daw-top-stim-right"" ></div><div style=""clear:both""></div><div id=""jspsych-space-daw-bottom-stim-left"" class=""jspsych-space-daw-bottom-stim-border"" style=""background-image: url('./tasks/two-arm-new/img/earth_stim_1.png')""></div><div id=""jspsych-space-daw-bottom-stim-middle"" ></div><div id=""jspsych-space-daw-bottom-stim-right"" style=""background-image: url('./tasks/two-arm-new/img/earth_stim_2.png')""></div></div><p>Score: 0</p>","","","","","","","","","","","","","","","","","","","","","","","",""
"html-keyboard-response","211","1599289","0.0-7.0-8.0-2.0","60520f7b38610f36b366a806","6367f433b739b6e52a2c937e","020y3yvj9wzc","541","","j","","","","","","","","<div style=""background-image: url('./tasks/two-arm-new/img/yellow_planet.png')""><div id=""jspsych-space-daw-top-stim-left"" ></div><div id=""jspsych-space-daw-top-stim-middle"" style=""background-image: url('./tasks/two-arm-new/img/earth_stim_1_deact.png')""></div><div id=""jspsych-space-daw-top-stim-right"" ></div><div style=""clear:both""></div><div id=""jspsych-space-daw-bottom-stim-left"" style=""background-image: url('./tasks/two-arm-new/img/yellow_stim_1.png')""></div><div id=""jspsych-space-daw-bottom-stim-middle"" ></div><div id=""jspsych-space-daw-bottom-stim-right"" style=""background-image: url('./tasks/two-arm-new/img/yellow_stim_2.png')""></div></div><p>Score: 0</p>","","","","","","","","","","","","","","","","","","","","","","","",""
"html-keyboard-response","212","1599797","0.0-7.0-8.0-3.0","60520f7b38610f36b366a806","6367f433b739b6e52a2c937e","020y3yvj9wzc","null","","null","","","","","","","","<div style=""background-image: url('./tasks/two-arm-new/img/yellow_planet.png')""><div id=""jspsych-space-daw-top-stim-left"" ></div><div id=""jspsych-space-daw-top-stim-middle"" style=""background-image: url('./tasks/two-arm-new/img/earth_stim_1_deact.png')""></div><div id=""jspsych-space-daw-top-stim-right"" ></div><div style=""clear:both""></div><div id=""jspsych-space-daw-bottom-stim-left"" style=""background-image: url('./tasks/two-arm-new/img/yellow_stim_1.png')""></div><div id=""jspsych-space-daw-bottom-stim-middle"" ></div><div id=""jspsych-space-daw-bottom-stim-right"" class=""jspsych-space-daw-bottom-stim-border"" style=""background-image: url('./tasks/two-arm-new/img/yellow_stim_2.png')""></div></div><p>Score: 0</p>","","","","","","","","","","","","","","","","","","","","","","","",""
"html-keyboard-response","213","1600815","0.0-7.0-8.0-4.0","60520f7b38610f36b366a806","6367f433b739b6e52a2c937e","020y3yvj9wzc","null","","null","","","","","","","","<div style=""background-image: url('./tasks/two-arm-new/img/yellow_planet.png')""><div id=""jspsych-space-daw-top-stim-left"" ></div><div id=""jspsych-space-daw-top-stim-middle"" style=""background-image: url('./tasks/two-arm-new/img/earth_stim_1_deact.png')""></div><div id=""jspsych-space-daw-top-stim-right"" style=""background-image: url('./tasks/two-arm-new/img/treasure.png')""></div><div style=""clear:both""></div><div id=""jspsych-space-daw-bottom-stim-left"" style=""background-image: url('./tasks/two-arm-new/img/yellow_stim_1.png')""></div><div id=""jspsych-space-daw-bottom-stim-middle"" ></div><div id=""jspsych-space-daw-bottom-stim-right"" class=""jspsych-space-daw-bottom-stim-border"" style=""background-image: url('./tasks/two-arm-new/img/yellow_stim_2.png')""></div></div><p>Score: 1</p>","two_arm_practice","1","","","","4","","","","","1","1","2","f","j","1873","541","","","","","","",""
"html-keyboard-response","214","1601409","0.0-7.0-8.0-0.1","60520f7b38610f36b366a806","6367f433b739b6e52a2c937e","020y3yvj9wzc","593","","j","","","","","","","","<div style=""background-image: url('./tasks/two-arm-new/img/earth_planet.png')""><div id=""jspsych-space-daw-top-stim-left"" ></div><div id=""jspsych-space-daw-top-stim-middle"" ></div><div id=""jspsych-space-daw-top-stim-right"" ></div><div style=""clear:both""></div><div id=""jspsych-space-daw-bottom-stim-left"" style=""background-image: url('./tasks/two-arm-new/img/earth_stim_2.png')""></div><div id=""jspsych-space-daw-bottom-stim-middle"" ></div><div id=""jspsych-space-daw-bottom-stim-right"" style=""background-image: url('./tasks/two-arm-new/img/earth_stim_1.png')""></div></div><p>Score: 1</p>","","","","","","","","","","","","","","","","","","","","","","","",""
"html-keyboard-response","215","1601914","0.0-7.0-8.0-1.1","60520f7b38610f36b366a806","6367f433b739b6e52a2c937e","020y3yvj9wzc","null","","null","","","","","","","","<div style=""background-image: url('./tasks/two-arm-new/img/earth_planet.png')""><div id=""jspsych-space-daw-top-stim-left"" ></div><div id=""jspsych-space-daw-top-stim-middle"" ></div><div id=""jspsych-space-daw-top-stim-right"" ></div><div style=""clear:both""></div><div id=""jspsych-space-daw-bottom-stim-left"" style=""background-image: url('./tasks/two-arm-new/img/earth_stim_2.png')""></div><div id=""jspsych-space-daw-bottom-stim-middle"" ></div><div id=""jspsych-space-daw-bottom-stim-right"" class=""jspsych-space-daw-bottom-stim-border"" style=""background-image: url('./tasks/two-arm-new/img/earth_stim_1.png')""></div></div><p>Score: 1</p>","","","","","","","","","","","","","","","","","","","","","","","",""
"html-keyboard-response","216","1603397","0.0-7.0-8.0-2.1","60520f7b38610f36b366a806","6367f433b739b6e52a2c937e","020y3yvj9wzc","1482","","j","","","","","","","","<div style=""background-image: url('./tasks/two-arm-new/img/green_planet.png')""><div id=""jspsych-space-daw-top-stim-left"" ></div><div id=""jspsych-space-daw-top-stim-middle"" style=""background-image: url('./tasks/two-arm-new/img/earth_stim_1_deact.png')""></div><div id=""jspsych-space-daw-top-stim-right"" ></div><div style=""clear:both""></div><div id=""jspsych-space-daw-bottom-stim-left"" style=""background-image: url('./tasks/two-arm-new/img/green_stim_1.png')""></div><div id=""jspsych-space-daw-bottom-stim-middle"" ></div><div id=""jspsych-space-daw-bottom-stim-right"" style=""background-image: url('./tasks/two-arm-new/img/green_stim_2.png')""></div></div><p>Score: 1</p>","","","","","","","","","","","","","","","","","","","","","","","",""
"html-keyboard-response","217","1603899","0.0-7.0-8.0-3.1","60520f7b38610f36b366a806","6367f433b739b6e52a2c937e","020y3yvj9wzc","null","","null","","","","","","","","<div style=""background-image: url('./tasks/two-arm-new/img/green_planet.png')""><div id=""jspsych-space-daw-top-stim-left"" ></div><div id=""jspsych-space-daw-top-stim-middle"" style=""background-image: url('./tasks/two-arm-new/img/earth_stim_1_deact.png')""></div><div id=""jspsych-space-daw-top-stim-right"" ></div><div style=""clear:both""></div><div id=""jspsych-space-daw-bottom-stim-left"" style=""background-image: url('./tasks/two-arm-new/img/green_stim_1.png')""></div><div id=""jspsych-space-daw-bottom-stim-middle"" ></div><div id=""jspsych-space-daw-bottom-stim-right"" class=""jspsych-space-daw-bottom-stim-border"" style=""background-image: url('./tasks/two-arm-new/img/green_stim_2.png')""></div></div><p>Score: 1</p>","","","","","","","","","","","","","","","","","","","","","","","",""
"html-keyboard-response","218","1604921","0.0-7.0-8.0-4.1","60520f7b38610f36b366a806","6367f433b739b6e52a2c937e","020y3yvj9wzc","null","","null","","","","","","","","<div style=""background-image: url('./tasks/two-arm-new/img/green_planet.png')""><div id=""jspsych-space-daw-top-stim-left"" ></div><div id=""jspsych-space-daw-top-stim-middle"" style=""background-image: url('./tasks/two-arm-new/img/earth_stim_1_deact.png')""></div><div id=""jspsych-space-daw-top-stim-right"" style=""background-image: url('./tasks/two-arm-new/img/treasure.png')""></div><div style=""clear:both""></div><div id=""jspsych-space-daw-bottom-stim-left"" style=""background-image: url('./tasks/two-arm-new/img/green_stim_1.png')""></div><div id=""jspsych-space-daw-bottom-stim-middle"" ></div><div id=""jspsych-space-daw-bottom-stim-right"" class=""jspsych-space-daw-bottom-stim-border"" style=""background-image: url('./tasks/two-arm-new/img/green_stim_2.png')""></div></div><p>Score: 2</p>","two_arm_practice","2","","","","2","","","","","1","1","1","j","j","593","1482","","","","","","",""
