"trial_type","trial_index","time_elapsed","internal_node_id","subject_id","study_id","session_id","rt","url","response","question_order","view_history","success","timeout","failed_images","failed_audio","failed_video","stimulus","block","trial_number","jar","bead","previous_bead","choice","correct","lowH_score","highH_score","state","rewarded","state1_action","state2_visited","state1_key","state2_key","state1_rt","state2_rt","two_arm_score","total_bonus"
"pavlovia","0","1543","0.0-0.0","603595f7c81d8e6ceaa65476","635ab8fc87ce89828e04cd4d","635ac4a16af0122f9a07801b","","","","","","","","","","","","","","","","","","","","","","","","","","","","","",""
"external-html","1","7222","0.0-1.0-0.0","603595f7c81d8e6ceaa65476","635ab8fc87ce89828e04cd4d","635ac4a16af0122f9a07801b","5394","new_consent.html","","","","","","","","","","","","","","","","","","","","","","","","","","","",""
"survey-multi-choice","2","10383","0.0-1.0-1.0","603595f7c81d8e6ceaa65476","635ab8fc87ce89828e04cd4d","635ac4a16af0122f9a07801b","3158","","{""Q0"":""Male"",""Q1"":""Asian""}","[0,1]","","","","","","","","","","","","","","","","","","","","","","","","","",""
"survey-text","3","12595","0.0-1.0-2.0","603595f7c81d8e6ceaa65476","635ab8fc87ce89828e04cd4d","635ac4a16af0122f9a07801b","2201","","{""Q0"":""19""}","","","","","","","","","","","","","","","","","","","","","","","","","","",""
"instructions","4","22478","0.0-2.0","603595f7c81d8e6ceaa65476","635ab8fc87ce89828e04cd4d","635ac4a16af0122f9a07801b","9782","","","","[{""page_index"":0,""viewing_time"":8841},{""page_index"":1,""viewing_time"":940}]","","","","","","","","","","","","","","","","","","","","","","","","",""
"instructions","5","23203","0.0-3.0","603595f7c81d8e6ceaa65476","635ab8fc87ce89828e04cd4d","635ac4a16af0122f9a07801b","724","","","","[{""page_index"":0,""viewing_time"":724}]","","","","","","","","","","","","","","","","","","","","","","","","",""
"preload","6","24698","0.0-4.0-0.0","603595f7c81d8e6ceaa65476","635ab8fc87ce89828e04cd4d","635ac4a16af0122f9a07801b","","","","","","true","false","[]","[]","[]","","","","","","","","","","","","","","","","","","","",""
"instructions","7","100805","0.0-4.0-1.0","603595f7c81d8e6ceaa65476","635ab8fc87ce89828e04cd4d","635ac4a16af0122f9a07801b","76107","","","","[{""page_index"":0,""viewing_time"":4862},{""page_index"":1,""viewing_time"":27347},{""page_index"":2,""viewing_time"":1422},{""page_index"":3,""viewing_time"":1038},{""page_index"":4,""viewing_time"":4634},{""page_index"":5,""viewing_time"":17137},{""page_index"":6,""viewing_time"":4258},{""page_index"":7,""viewing_time"":3327},{""page_index"":8,""viewing_time"":1672},{""page_index"":9,""viewing_time"":2643},{""page_index"":10,""viewing_time"":6814},{""page_index"":11,""viewing_time"":953}]","","","","","","","","","","","","","","","","","","","","","","","","",""
"html-button-response","8","103427","0.0-4.0-2.0-0.0-0.0","603595f7c81d8e6ceaa65476","635ab8fc87ce89828e04cd4d","635ac4a16af0122f9a07801b","2621","","1","","","","","","","","<div align=center>Your goal is to predict…?<br><br></div>","","","","","","","","","","","","","","","","","","",""
"html-button-response","9","108231","0.0-4.0-2.0-1.0-0.0","603595f7c81d8e6ceaa65476","635ab8fc87ce89828e04cd4d","635ac4a16af0122f9a07801b","3465","","2","","","","","","","","<div align=center>In the jar with mostly white beads, there are ___% white beads and ___% black beads?<br><br></div>","","","","","","","","","","","","","","","","","","",""
"html-button-response","10","112799","0.0-4.0-2.0-2.0-0.0","603595f7c81d8e6ceaa65476","635ab8fc87ce89828e04cd4d","635ac4a16af0122f9a07801b","3684","","0","","","","","","","","<div align=center>When there is a 1% probability that the jars will switch, the next bead will most likely be drawn from the…<br><br></div>","","","","","","","","","","","","","","","","","","",""
"html-button-response","11","114862","0.0-4.0-2.0-3.0-0.0","603595f7c81d8e6ceaa65476","635ab8fc87ce89828e04cd4d","635ac4a16af0122f9a07801b","1315","","1","","","","","","","","<div align=center>When there is a 99% probability that the jars will switch, the next bead will most likely be drawn from the…<br><br></div>","","","","","","","","","","","","","","","","","","",""
"instructions","12","118856","0.0-4.0-3.0","603595f7c81d8e6ceaa65476","635ab8fc87ce89828e04cd4d","635ac4a16af0122f9a07801b","2911","","","","[{""page_index"":0,""viewing_time"":2911}]","","","","","","","","","","","","","","","","","","","","","","","","",""
"html-keyboard-response","13","122327","0.0-4.0-4.0-0.0","603595f7c81d8e6ceaa65476","635ab8fc87ce89828e04cd4d","635ac4a16af0122f9a07801b","3470",""," ","","","","","","","","<div align=center>In this practice block, there will be a <b>10% chance</b> that the jar on the next trial will be different from the jar on the current trial.<br><br></div>","","","","","","","","","","","","","","","","","","",""
"image-keyboard-response","14","123436","0.0-4.0-4.0-1.0-0.0","603595f7c81d8e6ceaa65476","635ab8fc87ce89828e04cd4d","635ac4a16af0122f9a07801b","1101","","j","","","","","","","","./tasks/HMM-beads/Images/NoChoice.png","practice","0","1","1","0","2","false","","","","","","","","","","","",""
"image-keyboard-response","15","123749","0.0-4.0-4.0-1.0-1.0","603595f7c81d8e6ceaa65476","635ab8fc87ce89828e04cd4d","635ac4a16af0122f9a07801b","null","","null","","","","","","","","./tasks/HMM-beads/Images/WhiteBeadChoice.png","","","","","","","","","","","","","","","","","","",""
"image-keyboard-response","16","124267","0.0-4.0-4.0-1.0-2.0","603595f7c81d8e6ceaa65476","635ab8fc87ce89828e04cd4d","635ac4a16af0122f9a07801b","null","","null","","","","","","","","./tasks/HMM-beads/Images/WhiteBeadChoiceWrong.png","","","","","","","","","","","","","","","","","","",""
"image-keyboard-response","17","126651","0.0-4.0-4.0-1.0-0.1","603595f7c81d8e6ceaa65476","635ab8fc87ce89828e04cd4d","635ac4a16af0122f9a07801b","2383","","f","","","","","","","","./tasks/HMM-beads/Images/NewTrialBC.png","practice","1","1","1","1","1","true","","","","","","","","","","","",""
"image-keyboard-response","18","126956","0.0-4.0-4.0-1.0-1.1","603595f7c81d8e6ceaa65476","635ab8fc87ce89828e04cd4d","635ac4a16af0122f9a07801b","null","","null","","","","","","","","./tasks/HMM-beads/Images/BlackBeadChoice.png","","","","","","","","","","","","","","","","","","",""
"image-keyboard-response","19","127472","0.0-4.0-4.0-1.0-2.1","603595f7c81d8e6ceaa65476","635ab8fc87ce89828e04cd4d","635ac4a16af0122f9a07801b","null","","null","","","","","","","","./tasks/HMM-beads/Images/BlackBeadChoiceCorrect.png","","","","","","","","","","","","","","","","","","",""
"image-keyboard-response","20","128140","0.0-4.0-4.0-1.0-0.2","603595f7c81d8e6ceaa65476","635ab8fc87ce89828e04cd4d","635ac4a16af0122f9a07801b","667","","f","","","","","","","","./tasks/HMM-beads/Images/NewTrialBC.png","practice","2","1","2","1","1","false","","","","","","","","","","","",""
"image-keyboard-response","21","128455","0.0-4.0-4.0-1.0-1.2","603595f7c81d8e6ceaa65476","635ab8fc87ce89828e04cd4d","635ac4a16af0122f9a07801b","null","","null","","","","","","","","./tasks/HMM-beads/Images/BlackBeadChoice.png","","","","","","","","","","","","","","","","","","",""
"image-keyboard-response","22","128961","0.0-4.0-4.0-1.0-2.2","603595f7c81d8e6ceaa65476","635ab8fc87ce89828e04cd4d","635ac4a16af0122f9a07801b","null","","null","","","","","","","","./tasks/HMM-beads/Images/BlackBeadChoiceWrong.png","","","","","","","","","","","","","","","","","","",""
"image-keyboard-response","23","131187","0.0-4.0-4.0-1.0-0.3","603595f7c81d8e6ceaa65476","635ab8fc87ce89828e04cd4d","635ac4a16af0122f9a07801b","2224","","f","","","","","","","","./tasks/HMM-beads/Images/NewTrialWC.png","practice","3","1","1","2","1","true","","","","","","","","","","","",""
"image-keyboard-response","24","131499","0.0-4.0-4.0-1.0-1.3","603595f7c81d8e6ceaa65476","635ab8fc87ce89828e04cd4d","635ac4a16af0122f9a07801b","null","","null","","","","","","","","./tasks/HMM-beads/Images/BlackBeadChoice.png","","","","","","","","","","","","","","","","","","",""
"image-keyboard-response","25","132002","0.0-4.0-4.0-1.0-2.3","603595f7c81d8e6ceaa65476","635ab8fc87ce89828e04cd4d","635ac4a16af0122f9a07801b","null","","null","","","","","","","","./tasks/HMM-beads/Images/BlackBeadChoiceCorrect.png","","","","","","","","","","","","","","","","","","",""
"image-keyboard-response","26","132523","0.0-4.0-4.0-1.0-0.4","603595f7c81d8e6ceaa65476","635ab8fc87ce89828e04cd4d","635ac4a16af0122f9a07801b","520","","f","","","","","","","","./tasks/HMM-beads/Images/NewTrialBC.png","practice","4","1","2","1","1","false","","","","","","","","","","","",""
"image-keyboard-response","27","132831","0.0-4.0-4.0-1.0-1.4","603595f7c81d8e6ceaa65476","635ab8fc87ce89828e04cd4d","635ac4a16af0122f9a07801b","null","","null","","","","","","","","./tasks/HMM-beads/Images/BlackBeadChoice.png","","","","","","","","","","","","","","","","","","",""
"image-keyboard-response","28","133336","0.0-4.0-4.0-1.0-2.4","603595f7c81d8e6ceaa65476","635ab8fc87ce89828e04cd4d","635ac4a16af0122f9a07801b","null","","null","","","","","","","","./tasks/HMM-beads/Images/BlackBeadChoiceWrong.png","","","","","","","","","","","","","","","","","","",""
"image-keyboard-response","29","133763","0.0-4.0-4.0-1.0-0.5","603595f7c81d8e6ceaa65476","635ab8fc87ce89828e04cd4d","635ac4a16af0122f9a07801b","426","","f","","","","","","","","./tasks/HMM-beads/Images/NewTrialWC.png","practice","5","1","1","2","1","true","","","","","","","","","","","",""
"image-keyboard-response","30","134079","0.0-4.0-4.0-1.0-1.5","603595f7c81d8e6ceaa65476","635ab8fc87ce89828e04cd4d","635ac4a16af0122f9a07801b","null","","null","","","","","","","","./tasks/HMM-beads/Images/BlackBeadChoice.png","","","","","","","","","","","","","","","","","","",""
"image-keyboard-response","31","134586","0.0-4.0-4.0-1.0-2.5","603595f7c81d8e6ceaa65476","635ab8fc87ce89828e04cd4d","635ac4a16af0122f9a07801b","null","","null","","","","","","","","./tasks/HMM-beads/Images/BlackBeadChoiceCorrect.png","","","","","","","","","","","","","","","","","","",""
"image-keyboard-response","32","134963","0.0-4.0-4.0-1.0-0.6","603595f7c81d8e6ceaa65476","635ab8fc87ce89828e04cd4d","635ac4a16af0122f9a07801b","375","","f","","","","","","","","./tasks/HMM-beads/Images/NewTrialBC.png","practice","6","1","2","1","1","false","","","","","","","","","","","",""
"image-keyboard-response","33","135280","0.0-4.0-4.0-1.0-1.6","603595f7c81d8e6ceaa65476","635ab8fc87ce89828e04cd4d","635ac4a16af0122f9a07801b","null","","null","","","","","","","","./tasks/HMM-beads/Images/BlackBeadChoice.png","","","","","","","","","","","","","","","","","","",""
"image-keyboard-response","34","135786","0.0-4.0-4.0-1.0-2.6","603595f7c81d8e6ceaa65476","635ab8fc87ce89828e04cd4d","635ac4a16af0122f9a07801b","null","","null","","","","","","","","./tasks/HMM-beads/Images/BlackBeadChoiceWrong.png","","","","","","","","","","","","","","","","","","",""
"image-keyboard-response","35","136083","0.0-4.0-4.0-1.0-0.7","603595f7c81d8e6ceaa65476","635ab8fc87ce89828e04cd4d","635ac4a16af0122f9a07801b","295","","f","","","","","","","","./tasks/HMM-beads/Images/NewTrialWC.png","practice","7","1","1","2","1","true","","","","","","","","","","","",""
"image-keyboard-response","36","136386","0.0-4.0-4.0-1.0-1.7","603595f7c81d8e6ceaa65476","635ab8fc87ce89828e04cd4d","635ac4a16af0122f9a07801b","null","","null","","","","","","","","./tasks/HMM-beads/Images/BlackBeadChoice.png","","","","","","","","","","","","","","","","","","",""
"image-keyboard-response","37","136902","0.0-4.0-4.0-1.0-2.7","603595f7c81d8e6ceaa65476","635ab8fc87ce89828e04cd4d","635ac4a16af0122f9a07801b","null","","null","","","","","","","","./tasks/HMM-beads/Images/BlackBeadChoiceCorrect.png","","","","","","","","","","","","","","","","","","",""
"image-keyboard-response","38","137197","0.0-4.0-4.0-1.0-0.8","603595f7c81d8e6ceaa65476","635ab8fc87ce89828e04cd4d","635ac4a16af0122f9a07801b","292","","f","","","","","","","","./tasks/HMM-beads/Images/NewTrialBC.png","practice","8","1","1","1","1","true","","","","","","","","","","","",""
"image-keyboard-response","39","137510","0.0-4.0-4.0-1.0-1.8","603595f7c81d8e6ceaa65476","635ab8fc87ce89828e04cd4d","635ac4a16af0122f9a07801b","null","","null","","","","","","","","./tasks/HMM-beads/Images/BlackBeadChoice.png","","","","","","","","","","","","","","","","","","",""
"image-keyboard-response","40","138024","0.0-4.0-4.0-1.0-2.8","603595f7c81d8e6ceaa65476","635ab8fc87ce89828e04cd4d","635ac4a16af0122f9a07801b","null","","null","","","","","","","","./tasks/HMM-beads/Images/BlackBeadChoiceCorrect.png","","","","","","","","","","","","","","","","","","",""
"image-keyboard-response","41","138308","0.0-4.0-4.0-1.0-0.9","603595f7c81d8e6ceaa65476","635ab8fc87ce89828e04cd4d","635ac4a16af0122f9a07801b","281","","f","","","","","","","","./tasks/HMM-beads/Images/NewTrialBC.png","practice","9","2","2","1","1","false","","","","","","","","","","","",""
"image-keyboard-response","42","138617","0.0-4.0-4.0-1.0-1.9","603595f7c81d8e6ceaa65476","635ab8fc87ce89828e04cd4d","635ac4a16af0122f9a07801b","null","","null","","","","","","","","./tasks/HMM-beads/Images/BlackBeadChoice.png","","","","","","","","","","","","","","","","","","",""
"image-keyboard-response","43","139132","0.0-4.0-4.0-1.0-2.9","603595f7c81d8e6ceaa65476","635ab8fc87ce89828e04cd4d","635ac4a16af0122f9a07801b","null","","null","","","","","","","","./tasks/HMM-beads/Images/BlackBeadChoiceWrong.png","","","","","","","","","","","","","","","","","","",""
"image-keyboard-response","44","139516","0.0-4.0-4.0-1.0-0.10","603595f7c81d8e6ceaa65476","635ab8fc87ce89828e04cd4d","635ac4a16af0122f9a07801b","383","","j","","","","","","","","./tasks/HMM-beads/Images/NewTrialWC.png","practice","10","2","1","2","2","false","","","","","","","","","","","",""
"image-keyboard-response","45","139818","0.0-4.0-4.0-1.0-1.10","603595f7c81d8e6ceaa65476","635ab8fc87ce89828e04cd4d","635ac4a16af0122f9a07801b","null","","null","","","","","","","","./tasks/HMM-beads/Images/WhiteBeadChoice.png","","","","","","","","","","","","","","","","","","",""
"image-keyboard-response","46","140323","0.0-4.0-4.0-1.0-2.10","603595f7c81d8e6ceaa65476","635ab8fc87ce89828e04cd4d","635ac4a16af0122f9a07801b","null","","null","","","","","","","","./tasks/HMM-beads/Images/WhiteBeadChoiceWrong.png","","","","","","","","","","","","","","","","","","",""
"image-keyboard-response","47","140635","0.0-4.0-4.0-1.0-0.11","603595f7c81d8e6ceaa65476","635ab8fc87ce89828e04cd4d","635ac4a16af0122f9a07801b","311","","f","","","","","","","","./tasks/HMM-beads/Images/NewTrialBC.png","practice","11","2","2","1","1","false","","","","","","","","","","","",""
"image-keyboard-response","48","140936","0.0-4.0-4.0-1.0-1.11","603595f7c81d8e6ceaa65476","635ab8fc87ce89828e04cd4d","635ac4a16af0122f9a07801b","null","","null","","","","","","","","./tasks/HMM-beads/Images/BlackBeadChoice.png","","","","","","","","","","","","","","","","","","",""
"image-keyboard-response","49","141441","0.0-4.0-4.0-1.0-2.11","603595f7c81d8e6ceaa65476","635ab8fc87ce89828e04cd4d","635ac4a16af0122f9a07801b","null","","null","","","","","","","","./tasks/HMM-beads/Images/BlackBeadChoiceWrong.png","","","","","","","","","","","","","","","","","","",""
"image-keyboard-response","50","141859","0.0-4.0-4.0-1.0-0.12","603595f7c81d8e6ceaa65476","635ab8fc87ce89828e04cd4d","635ac4a16af0122f9a07801b","417","","f","","","","","","","","./tasks/HMM-beads/Images/NewTrialWC.png","practice","12","2","2","2","1","false","","","","","","","","","","","",""
"image-keyboard-response","51","142167","0.0-4.0-4.0-1.0-1.12","603595f7c81d8e6ceaa65476","635ab8fc87ce89828e04cd4d","635ac4a16af0122f9a07801b","null","","null","","","","","","","","./tasks/HMM-beads/Images/BlackBeadChoice.png","","","","","","","","","","","","","","","","","","",""
"image-keyboard-response","52","142670","0.0-4.0-4.0-1.0-2.12","603595f7c81d8e6ceaa65476","635ab8fc87ce89828e04cd4d","635ac4a16af0122f9a07801b","null","","null","","","","","","","","./tasks/HMM-beads/Images/BlackBeadChoiceWrong.png","","","","","","","","","","","","","","","","","","",""
"image-keyboard-response","53","143027","0.0-4.0-4.0-1.0-0.13","603595f7c81d8e6ceaa65476","635ab8fc87ce89828e04cd4d","635ac4a16af0122f9a07801b","356","","f","","","","","","","","./tasks/HMM-beads/Images/NewTrialWC.png","practice","13","2","2","2","1","false","","","","","","","","","","","",""
"image-keyboard-response","54","143336","0.0-4.0-4.0-1.0-1.13","603595f7c81d8e6ceaa65476","635ab8fc87ce89828e04cd4d","635ac4a16af0122f9a07801b","null","","null","","","","","","","","./tasks/HMM-beads/Images/BlackBeadChoice.png","","","","","","","","","","","","","","","","","","",""
"image-keyboard-response","55","143842","0.0-4.0-4.0-1.0-2.13","603595f7c81d8e6ceaa65476","635ab8fc87ce89828e04cd4d","635ac4a16af0122f9a07801b","null","","null","","","","","","","","./tasks/HMM-beads/Images/BlackBeadChoiceWrong.png","","","","","","","","","","","","","","","","","","",""
"image-keyboard-response","56","144019","0.0-4.0-4.0-1.0-0.14","603595f7c81d8e6ceaa65476","635ab8fc87ce89828e04cd4d","635ac4a16af0122f9a07801b","176","","j","","","","","","","","./tasks/HMM-beads/Images/NewTrialWC.png","practice","14","2","2","2","2","true","","","","","","","","","","","",""
"image-keyboard-response","57","144332","0.0-4.0-4.0-1.0-1.14","603595f7c81d8e6ceaa65476","635ab8fc87ce89828e04cd4d","635ac4a16af0122f9a07801b","null","","null","","","","","","","","./tasks/HMM-beads/Images/WhiteBeadChoice.png","","","","","","","","","","","","","","","","","","",""
"image-keyboard-response","58","144836","0.0-4.0-4.0-1.0-2.14","603595f7c81d8e6ceaa65476","635ab8fc87ce89828e04cd4d","635ac4a16af0122f9a07801b","null","","null","","","","","","","","./tasks/HMM-beads/Images/WhiteBeadChoiceCorrect.png","","","","","","","","","","","","","","","","","","",""
"image-keyboard-response","59","145203","0.0-4.0-4.0-1.0-0.15","603595f7c81d8e6ceaa65476","635ab8fc87ce89828e04cd4d","635ac4a16af0122f9a07801b","366","","j","","","","","","","","./tasks/HMM-beads/Images/NewTrialWC.png","practice","15","1","1","2","2","false","","","","","","","","","","","",""
"image-keyboard-response","60","145516","0.0-4.0-4.0-1.0-1.15","603595f7c81d8e6ceaa65476","635ab8fc87ce89828e04cd4d","635ac4a16af0122f9a07801b","null","","null","","","","","","","","./tasks/HMM-beads/Images/WhiteBeadChoice.png","","","","","","","","","","","","","","","","","","",""
"image-keyboard-response","61","146021","0.0-4.0-4.0-1.0-2.15","603595f7c81d8e6ceaa65476","635ab8fc87ce89828e04cd4d","635ac4a16af0122f9a07801b","null","","null","","","","","","","","./tasks/HMM-beads/Images/WhiteBeadChoiceWrong.png","","","","","","","","","","","","","","","","","","",""
"image-keyboard-response","62","146731","0.0-4.0-4.0-1.0-0.16","603595f7c81d8e6ceaa65476","635ab8fc87ce89828e04cd4d","635ac4a16af0122f9a07801b","709","","j","","","","","","","","./tasks/HMM-beads/Images/NewTrialBC.png","practice","16","1","2","1","2","true","","","","","","","","","","","",""
"image-keyboard-response","63","147045","0.0-4.0-4.0-1.0-1.16","603595f7c81d8e6ceaa65476","635ab8fc87ce89828e04cd4d","635ac4a16af0122f9a07801b","null","","null","","","","","","","","./tasks/HMM-beads/Images/WhiteBeadChoice.png","","","","","","","","","","","","","","","","","","",""
"image-keyboard-response","64","147548","0.0-4.0-4.0-1.0-2.16","603595f7c81d8e6ceaa65476","635ab8fc87ce89828e04cd4d","635ac4a16af0122f9a07801b","null","","null","","","","","","","","./tasks/HMM-beads/Images/WhiteBeadChoiceCorrect.png","","","","","","","","","","","","","","","","","","",""
"image-keyboard-response","65","147899","0.0-4.0-4.0-1.0-0.17","603595f7c81d8e6ceaa65476","635ab8fc87ce89828e04cd4d","635ac4a16af0122f9a07801b","350","","j","","","","","","","","./tasks/HMM-beads/Images/NewTrialWC.png","practice","17","1","1","2","2","false","","","","","","","","","","","",""
"image-keyboard-response","66","148212","0.0-4.0-4.0-1.0-1.17","603595f7c81d8e6ceaa65476","635ab8fc87ce89828e04cd4d","635ac4a16af0122f9a07801b","null","","null","","","","","","","","./tasks/HMM-beads/Images/WhiteBeadChoice.png","","","","","","","","","","","","","","","","","","",""
"image-keyboard-response","67","148724","0.0-4.0-4.0-1.0-2.17","603595f7c81d8e6ceaa65476","635ab8fc87ce89828e04cd4d","635ac4a16af0122f9a07801b","null","","null","","","","","","","","./tasks/HMM-beads/Images/WhiteBeadChoiceWrong.png","","","","","","","","","","","","","","","","","","",""
"image-keyboard-response","68","148954","0.0-4.0-4.0-1.0-0.18","603595f7c81d8e6ceaa65476","635ab8fc87ce89828e04cd4d","635ac4a16af0122f9a07801b","230","","j","","","","","","","","./tasks/HMM-beads/Images/NewTrialBC.png","practice","18","1","1","1","2","false","","","","","","","","","","","",""
"image-keyboard-response","69","149260","0.0-4.0-4.0-1.0-1.18","603595f7c81d8e6ceaa65476","635ab8fc87ce89828e04cd4d","635ac4a16af0122f9a07801b","null","","null","","","","","","","","./tasks/HMM-beads/Images/WhiteBeadChoice.png","","","","","","","","","","","","","","","","","","",""
"image-keyboard-response","70","149768","0.0-4.0-4.0-1.0-2.18","603595f7c81d8e6ceaa65476","635ab8fc87ce89828e04cd4d","635ac4a16af0122f9a07801b","null","","null","","","","","","","","./tasks/HMM-beads/Images/WhiteBeadChoiceWrong.png","","","","","","","","","","","","","","","","","","",""
"image-keyboard-response","71","149955","0.0-4.0-4.0-1.0-0.19","603595f7c81d8e6ceaa65476","635ab8fc87ce89828e04cd4d","635ac4a16af0122f9a07801b","185","","f","","","","","","","","./tasks/HMM-beads/Images/NewTrialBC.png","practice","19","1","1","1","1","true","","","","","","","","","","","",""
"image-keyboard-response","72","150256","0.0-4.0-4.0-1.0-1.19","603595f7c81d8e6ceaa65476","635ab8fc87ce89828e04cd4d","635ac4a16af0122f9a07801b","null","","null","","","","","","","","./tasks/HMM-beads/Images/BlackBeadChoice.png","","","","","","","","","","","","","","","","","","",""
"image-keyboard-response","73","150766","0.0-4.0-4.0-1.0-2.19","603595f7c81d8e6ceaa65476","635ab8fc87ce89828e04cd4d","635ac4a16af0122f9a07801b","null","","null","","","","","","","","./tasks/HMM-beads/Images/BlackBeadChoiceCorrect.png","","","","","","","","","","","","","","","","","","",""
"html-keyboard-response","74","152819","0.0-4.0-4.0-2.0","603595f7c81d8e6ceaa65476","635ab8fc87ce89828e04cd4d","635ac4a16af0122f9a07801b","2053",""," ","","","","","","","","","","","","","","","","","","","","","","","","","","",""
"instructions","75","161023","0.0-4.0-5.0","603595f7c81d8e6ceaa65476","635ab8fc87ce89828e04cd4d","635ac4a16af0122f9a07801b","8202","","","","[{""page_index"":0,""viewing_time"":6240},{""page_index"":1,""viewing_time"":1962}]","","","","","","","","","","","","","","","","","","","","","","","","",""
"html-keyboard-response","76","163875","0.0-4.0-6.0-0.0","603595f7c81d8e6ceaa65476","635ab8fc87ce89828e04cd4d","635ac4a16af0122f9a07801b","2852",""," ","","","","","","","","<div align=center>In this block, there will be a <b>1% chance</b> that the jar on the next trial will be different from the jar on the current trial.<br><br></div>","","","","","","","","","","","","","","","","","","",""
"image-keyboard-response","77","165651","0.0-4.0-6.0-1.0-0.0","603595f7c81d8e6ceaa65476","635ab8fc87ce89828e04cd4d","635ac4a16af0122f9a07801b","1775","","f","","","","","","","","./tasks/HMM-beads/Images/NoChoice.png","lowH","0","2","2","0","1","false","","","","","","","","","","","",""
"image-keyboard-response","78","165954","0.0-4.0-6.0-1.0-1.0","603595f7c81d8e6ceaa65476","635ab8fc87ce89828e04cd4d","635ac4a16af0122f9a07801b","null","","null","","","","","","","","./tasks/HMM-beads/Images/BlackBeadChoice.png","","","","","","","","","","","","","","","","","","",""
"image-keyboard-response","79","166461","0.0-4.0-6.0-1.0-2.0","603595f7c81d8e6ceaa65476","635ab8fc87ce89828e04cd4d","635ac4a16af0122f9a07801b","null","","null","","","","","","","","./tasks/HMM-beads/Images/BlackBeadChoiceWrong.png","","","","","","","","","","","","","","","","","","",""
"image-keyboard-response","80","169771","0.0-4.0-6.0-1.0-0.1","603595f7c81d8e6ceaa65476","635ab8fc87ce89828e04cd4d","635ac4a16af0122f9a07801b","3310","","f","","","","","","","","./tasks/HMM-beads/Images/NewTrialWC.png","lowH","1","2","2","2","1","false","","","","","","","","","","","",""
"image-keyboard-response","81","170088","0.0-4.0-6.0-1.0-1.1","603595f7c81d8e6ceaa65476","635ab8fc87ce89828e04cd4d","635ac4a16af0122f9a07801b","null","","null","","","","","","","","./tasks/HMM-beads/Images/BlackBeadChoice.png","","","","","","","","","","","","","","","","","","",""
"image-keyboard-response","82","170603","0.0-4.0-6.0-1.0-2.1","603595f7c81d8e6ceaa65476","635ab8fc87ce89828e04cd4d","635ac4a16af0122f9a07801b","null","","null","","","","","","","","./tasks/HMM-beads/Images/BlackBeadChoiceWrong.png","","","","","","","","","","","","","","","","","","",""
"image-keyboard-response","83","170875","0.0-4.0-6.0-1.0-0.2","603595f7c81d8e6ceaa65476","635ab8fc87ce89828e04cd4d","635ac4a16af0122f9a07801b","271","","j","","","","","","","","./tasks/HMM-beads/Images/NewTrialWC.png","lowH","2","2","2","2","2","true","","","","","","","","","","","",""
"image-keyboard-response","84","171188","0.0-4.0-6.0-1.0-1.2","603595f7c81d8e6ceaa65476","635ab8fc87ce89828e04cd4d","635ac4a16af0122f9a07801b","null","","null","","","","","","","","./tasks/HMM-beads/Images/WhiteBeadChoice.png","","","","","","","","","","","","","","","","","","",""
"image-keyboard-response","85","171694","0.0-4.0-6.0-1.0-2.2","603595f7c81d8e6ceaa65476","635ab8fc87ce89828e04cd4d","635ac4a16af0122f9a07801b","null","","null","","","","","","","","./tasks/HMM-beads/Images/WhiteBeadChoiceCorrect.png","","","","","","","","","","","","","","","","","","",""
"image-keyboard-response","86","172059","0.0-4.0-6.0-1.0-0.3","603595f7c81d8e6ceaa65476","635ab8fc87ce89828e04cd4d","635ac4a16af0122f9a07801b","364","","j","","","","","","","","./tasks/HMM-beads/Images/NewTrialWC.png","lowH","3","2","2","2","2","true","","","","","","","","","","","",""
"image-keyboard-response","87","172361","0.0-4.0-6.0-1.0-1.3","603595f7c81d8e6ceaa65476","635ab8fc87ce89828e04cd4d","635ac4a16af0122f9a07801b","null","","null","","","","","","","","./tasks/HMM-beads/Images/WhiteBeadChoice.png","","","","","","","","","","","","","","","","","","",""
"image-keyboard-response","88","172878","0.0-4.0-6.0-1.0-2.3","603595f7c81d8e6ceaa65476","635ab8fc87ce89828e04cd4d","635ac4a16af0122f9a07801b","null","","null","","","","","","","","./tasks/HMM-beads/Images/WhiteBeadChoiceCorrect.png","","","","","","","","","","","","","","","","","","",""
"image-keyboard-response","89","173235","0.0-4.0-6.0-1.0-0.4","603595f7c81d8e6ceaa65476","635ab8fc87ce89828e04cd4d","635ac4a16af0122f9a07801b","356","","j","","","","","","","","./tasks/HMM-beads/Images/NewTrialWC.png","lowH","4","2","1","2","2","false","","","","","","","","","","","",""
"image-keyboard-response","90","173538","0.0-4.0-6.0-1.0-1.4","603595f7c81d8e6ceaa65476","635ab8fc87ce89828e04cd4d","635ac4a16af0122f9a07801b","null","","null","","","","","","","","./tasks/HMM-beads/Images/WhiteBeadChoice.png","","","","","","","","","","","","","","","","","","",""
"image-keyboard-response","91","174057","0.0-4.0-6.0-1.0-2.4","603595f7c81d8e6ceaa65476","635ab8fc87ce89828e04cd4d","635ac4a16af0122f9a07801b","null","","null","","","","","","","","./tasks/HMM-beads/Images/WhiteBeadChoiceWrong.png","","","","","","","","","","","","","","","","","","",""
"image-keyboard-response","92","174507","0.0-4.0-6.0-1.0-0.5","603595f7c81d8e6ceaa65476","635ab8fc87ce89828e04cd4d","635ac4a16af0122f9a07801b","449","","j","","","","","","","","./tasks/HMM-beads/Images/NewTrialBC.png","lowH","5","2","2","1","2","true","","","","","","","","","","","",""
"image-keyboard-response","93","174814","0.0-4.0-6.0-1.0-1.5","603595f7c81d8e6ceaa65476","635ab8fc87ce89828e04cd4d","635ac4a16af0122f9a07801b","null","","null","","","","","","","","./tasks/HMM-beads/Images/WhiteBeadChoice.png","","","","","","","","","","","","","","","","","","",""
"image-keyboard-response","94","175317","0.0-4.0-6.0-1.0-2.5","603595f7c81d8e6ceaa65476","635ab8fc87ce89828e04cd4d","635ac4a16af0122f9a07801b","null","","null","","","","","","","","./tasks/HMM-beads/Images/WhiteBeadChoiceCorrect.png","","","","","","","","","","","","","","","","","","",""
"image-keyboard-response","95","175747","0.0-4.0-6.0-1.0-0.6","603595f7c81d8e6ceaa65476","635ab8fc87ce89828e04cd4d","635ac4a16af0122f9a07801b","429","","j","","","","","","","","./tasks/HMM-beads/Images/NewTrialWC.png","lowH","6","2","2","2","2","true","","","","","","","","","","","",""
"image-keyboard-response","96","176053","0.0-4.0-6.0-1.0-1.6","603595f7c81d8e6ceaa65476","635ab8fc87ce89828e04cd4d","635ac4a16af0122f9a07801b","null","","null","","","","","","","","./tasks/HMM-beads/Images/WhiteBeadChoice.png","","","","","","","","","","","","","","","","","","",""
"image-keyboard-response","97","176554","0.0-4.0-6.0-1.0-2.6","603595f7c81d8e6ceaa65476","635ab8fc87ce89828e04cd4d","635ac4a16af0122f9a07801b","null","","null","","","","","","","","./tasks/HMM-beads/Images/WhiteBeadChoiceCorrect.png","","","","","","","","","","","","","","","","","","",""
"image-keyboard-response","98","176859","0.0-4.0-6.0-1.0-0.7","603595f7c81d8e6ceaa65476","635ab8fc87ce89828e04cd4d","635ac4a16af0122f9a07801b","303","","j","","","","","","","","./tasks/HMM-beads/Images/NewTrialWC.png","lowH","7","2","2","2","2","true","","","","","","","","","","","",""
"image-keyboard-response","99","177168","0.0-4.0-6.0-1.0-1.7","603595f7c81d8e6ceaa65476","635ab8fc87ce89828e04cd4d","635ac4a16af0122f9a07801b","null","","null","","","","","","","","./tasks/HMM-beads/Images/WhiteBeadChoice.png","","","","","","","","","","","","","","","","","","",""
"image-keyboard-response","100","177676","0.0-4.0-6.0-1.0-2.7","603595f7c81d8e6ceaa65476","635ab8fc87ce89828e04cd4d","635ac4a16af0122f9a07801b","null","","null","","","","","","","","./tasks/HMM-beads/Images/WhiteBeadChoiceCorrect.png","","","","","","","","","","","","","","","","","","",""
"image-keyboard-response","101","178003","0.0-4.0-6.0-1.0-0.8","603595f7c81d8e6ceaa65476","635ab8fc87ce89828e04cd4d","635ac4a16af0122f9a07801b","315","","j","","","","","","","","./tasks/HMM-beads/Images/NewTrialWC.png","lowH","8","2","2","2","2","true","","","","","","","","","","","",""
"image-keyboard-response","102","178312","0.0-4.0-6.0-1.0-1.8","603595f7c81d8e6ceaa65476","635ab8fc87ce89828e04cd4d","635ac4a16af0122f9a07801b","null","","null","","","","","","","","./tasks/HMM-beads/Images/WhiteBeadChoice.png","","","","","","","","","","","","","","","","","","",""
"image-keyboard-response","103","178831","0.0-4.0-6.0-1.0-2.8","603595f7c81d8e6ceaa65476","635ab8fc87ce89828e04cd4d","635ac4a16af0122f9a07801b","null","","null","","","","","","","","./tasks/HMM-beads/Images/WhiteBeadChoiceCorrect.png","","","","","","","","","","","","","","","","","","",""
"image-keyboard-response","104","179147","0.0-4.0-6.0-1.0-0.9","603595f7c81d8e6ceaa65476","635ab8fc87ce89828e04cd4d","635ac4a16af0122f9a07801b","314","","j","","","","","","","","./tasks/HMM-beads/Images/NewTrialWC.png","lowH","9","2","2","2","2","true","","","","","","","","","","","",""
"image-keyboard-response","105","179460","0.0-4.0-6.0-1.0-1.9","603595f7c81d8e6ceaa65476","635ab8fc87ce89828e04cd4d","635ac4a16af0122f9a07801b","null","","null","","","","","","","","./tasks/HMM-beads/Images/WhiteBeadChoice.png","","","","","","","","","","","","","","","","","","",""
"image-keyboard-response","106","179971","0.0-4.0-6.0-1.0-2.9","603595f7c81d8e6ceaa65476","635ab8fc87ce89828e04cd4d","635ac4a16af0122f9a07801b","null","","null","","","","","","","","./tasks/HMM-beads/Images/WhiteBeadChoiceCorrect.png","","","","","","","","","","","","","","","","","","",""
"image-keyboard-response","107","180282","0.0-4.0-6.0-1.0-0.10","603595f7c81d8e6ceaa65476","635ab8fc87ce89828e04cd4d","635ac4a16af0122f9a07801b","311","","j","","","","","","","","./tasks/HMM-beads/Images/NewTrialWC.png","lowH","10","2","2","2","2","true","","","","","","","","","","","",""
"image-keyboard-response","108","180597","0.0-4.0-6.0-1.0-1.10","603595f7c81d8e6ceaa65476","635ab8fc87ce89828e04cd4d","635ac4a16af0122f9a07801b","null","","null","","","","","","","","./tasks/HMM-beads/Images/WhiteBeadChoice.png","","","","","","","","","","","","","","","","","","",""
"image-keyboard-response","109","181100","0.0-4.0-6.0-1.0-2.10","603595f7c81d8e6ceaa65476","635ab8fc87ce89828e04cd4d","635ac4a16af0122f9a07801b","null","","null","","","","","","","","./tasks/HMM-beads/Images/WhiteBeadChoiceCorrect.png","","","","","","","","","","","","","","","","","","",""
"image-keyboard-response","110","181442","0.0-4.0-6.0-1.0-0.11","603595f7c81d8e6ceaa65476","635ab8fc87ce89828e04cd4d","635ac4a16af0122f9a07801b","341","","j","","","","","","","","./tasks/HMM-beads/Images/NewTrialWC.png","lowH","11","2","2","2","2","true","","","","","","","","","","","",""
"image-keyboard-response","111","181748","0.0-4.0-6.0-1.0-1.11","603595f7c81d8e6ceaa65476","635ab8fc87ce89828e04cd4d","635ac4a16af0122f9a07801b","null","","null","","","","","","","","./tasks/HMM-beads/Images/WhiteBeadChoice.png","","","","","","","","","","","","","","","","","","",""
"image-keyboard-response","112","182258","0.0-4.0-6.0-1.0-2.11","603595f7c81d8e6ceaa65476","635ab8fc87ce89828e04cd4d","635ac4a16af0122f9a07801b","null","","null","","","","","","","","./tasks/HMM-beads/Images/WhiteBeadChoiceCorrect.png","","","","","","","","","","","","","","","","","","",""
"image-keyboard-response","113","182586","0.0-4.0-6.0-1.0-0.12","603595f7c81d8e6ceaa65476","635ab8fc87ce89828e04cd4d","635ac4a16af0122f9a07801b","327","","j","","","","","","","","./tasks/HMM-beads/Images/NewTrialWC.png","lowH","12","2","2","2","2","true","","","","","","","","","","","",""
"image-keyboard-response","114","182898","0.0-4.0-6.0-1.0-1.12","603595f7c81d8e6ceaa65476","635ab8fc87ce89828e04cd4d","635ac4a16af0122f9a07801b","null","","null","","","","","","","","./tasks/HMM-beads/Images/WhiteBeadChoice.png","","","","","","","","","","","","","","","","","","",""
"image-keyboard-response","115","183414","0.0-4.0-6.0-1.0-2.12","603595f7c81d8e6ceaa65476","635ab8fc87ce89828e04cd4d","635ac4a16af0122f9a07801b","null","","null","","","","","","","","./tasks/HMM-beads/Images/WhiteBeadChoiceCorrect.png","","","","","","","","","","","","","","","","","","",""
"image-keyboard-response","116","183699","0.0-4.0-6.0-1.0-0.13","603595f7c81d8e6ceaa65476","635ab8fc87ce89828e04cd4d","635ac4a16af0122f9a07801b","283","","j","","","","","","","","./tasks/HMM-beads/Images/NewTrialWC.png","lowH","13","2","2","2","2","true","","","","","","","","","","","",""
"image-keyboard-response","117","184007","0.0-4.0-6.0-1.0-1.13","603595f7c81d8e6ceaa65476","635ab8fc87ce89828e04cd4d","635ac4a16af0122f9a07801b","null","","null","","","","","","","","./tasks/HMM-beads/Images/WhiteBeadChoice.png","","","","","","","","","","","","","","","","","","",""
"image-keyboard-response","118","184514","0.0-4.0-6.0-1.0-2.13","603595f7c81d8e6ceaa65476","635ab8fc87ce89828e04cd4d","635ac4a16af0122f9a07801b","null","","null","","","","","","","","./tasks/HMM-beads/Images/WhiteBeadChoiceCorrect.png","","","","","","","","","","","","","","","","","","",""
"image-keyboard-response","119","184674","0.0-4.0-6.0-1.0-0.14","603595f7c81d8e6ceaa65476","635ab8fc87ce89828e04cd4d","635ac4a16af0122f9a07801b","160","","j","","","","","","","","./tasks/HMM-beads/Images/NewTrialWC.png","lowH","14","2","2","2","2","true","","","","","","","","","","","",""
"image-keyboard-response","120","184981","0.0-4.0-6.0-1.0-1.14","603595f7c81d8e6ceaa65476","635ab8fc87ce89828e04cd4d","635ac4a16af0122f9a07801b","null","","null","","","","","","","","./tasks/HMM-beads/Images/WhiteBeadChoice.png","","","","","","","","","","","","","","","","","","",""
"image-keyboard-response","121","185486","0.0-4.0-6.0-1.0-2.14","603595f7c81d8e6ceaa65476","635ab8fc87ce89828e04cd4d","635ac4a16af0122f9a07801b","null","","null","","","","","","","","./tasks/HMM-beads/Images/WhiteBeadChoiceCorrect.png","","","","","","","","","","","","","","","","","","",""
"image-keyboard-response","122","185763","0.0-4.0-6.0-1.0-0.15","603595f7c81d8e6ceaa65476","635ab8fc87ce89828e04cd4d","635ac4a16af0122f9a07801b","276","","j","","","","","","","","./tasks/HMM-beads/Images/NewTrialWC.png","lowH","15","2","1","2","2","false","","","","","","","","","","","",""
"image-keyboard-response","123","186082","0.0-4.0-6.0-1.0-1.15","603595f7c81d8e6ceaa65476","635ab8fc87ce89828e04cd4d","635ac4a16af0122f9a07801b","null","","null","","","","","","","","./tasks/HMM-beads/Images/WhiteBeadChoice.png","","","","","","","","","","","","","","","","","","",""
"image-keyboard-response","124","186588","0.0-4.0-6.0-1.0-2.15","603595f7c81d8e6ceaa65476","635ab8fc87ce89828e04cd4d","635ac4a16af0122f9a07801b","null","","null","","","","","","","","./tasks/HMM-beads/Images/WhiteBeadChoiceWrong.png","","","","","","","","","","","","","","","","","","",""
"image-keyboard-response","125","186803","0.0-4.0-6.0-1.0-0.16","603595f7c81d8e6ceaa65476","635ab8fc87ce89828e04cd4d","635ac4a16af0122f9a07801b","214","","j","","","","","","","","./tasks/HMM-beads/Images/NewTrialBC.png","lowH","16","2","1","1","2","false","","","","","","","","","","","",""
"image-keyboard-response","126","187109","0.0-4.0-6.0-1.0-1.16","603595f7c81d8e6ceaa65476","635ab8fc87ce89828e04cd4d","635ac4a16af0122f9a07801b","null","","null","","","","","","","","./tasks/HMM-beads/Images/WhiteBeadChoice.png","","","","","","","","","","","","","","","","","","",""
"image-keyboard-response","127","187620","0.0-4.0-6.0-1.0-2.16","603595f7c81d8e6ceaa65476","635ab8fc87ce89828e04cd4d","635ac4a16af0122f9a07801b","null","","null","","","","","","","","./tasks/HMM-beads/Images/WhiteBeadChoiceWrong.png","","","","","","","","","","","","","","","","","","",""
"image-keyboard-response","128","188011","0.0-4.0-6.0-1.0-0.17","603595f7c81d8e6ceaa65476","635ab8fc87ce89828e04cd4d","635ac4a16af0122f9a07801b","389","","j","","","","","","","","./tasks/HMM-beads/Images/NewTrialBC.png","lowH","17","2","2","1","2","true","","","","","","","","","","","",""
"image-keyboard-response","129","188322","0.0-4.0-6.0-1.0-1.17","603595f7c81d8e6ceaa65476","635ab8fc87ce89828e04cd4d","635ac4a16af0122f9a07801b","null","","null","","","","","","","","./tasks/HMM-beads/Images/WhiteBeadChoice.png","","","","","","","","","","","","","","","","","","",""
"image-keyboard-response","130","188828","0.0-4.0-6.0-1.0-2.17","603595f7c81d8e6ceaa65476","635ab8fc87ce89828e04cd4d","635ac4a16af0122f9a07801b","null","","null","","","","","","","","./tasks/HMM-beads/Images/WhiteBeadChoiceCorrect.png","","","","","","","","","","","","","","","","","","",""
"image-keyboard-response","131","189242","0.0-4.0-6.0-1.0-0.18","603595f7c81d8e6ceaa65476","635ab8fc87ce89828e04cd4d","635ac4a16af0122f9a07801b","413","","j","","","","","","","","./tasks/HMM-beads/Images/NewTrialWC.png","lowH","18","2","2","2","2","true","","","","","","","","","","","",""
"image-keyboard-response","132","189555","0.0-4.0-6.0-1.0-1.18","603595f7c81d8e6ceaa65476","635ab8fc87ce89828e04cd4d","635ac4a16af0122f9a07801b","null","","null","","","","","","","","./tasks/HMM-beads/Images/WhiteBeadChoice.png","","","","","","","","","","","","","","","","","","",""
"image-keyboard-response","133","190068","0.0-4.0-6.0-1.0-2.18","603595f7c81d8e6ceaa65476","635ab8fc87ce89828e04cd4d","635ac4a16af0122f9a07801b","null","","null","","","","","","","","./tasks/HMM-beads/Images/WhiteBeadChoiceCorrect.png","","","","","","","","","","","","","","","","","","",""
"image-keyboard-response","134","190368","0.0-4.0-6.0-1.0-0.19","603595f7c81d8e6ceaa65476","635ab8fc87ce89828e04cd4d","635ac4a16af0122f9a07801b","278","","j","","","","","","","","./tasks/HMM-beads/Images/NewTrialWC.png","lowH","19","2","2","2","2","true","","","","","","","","","","","",""
"image-keyboard-response","135","190684","0.0-4.0-6.0-1.0-1.19","603595f7c81d8e6ceaa65476","635ab8fc87ce89828e04cd4d","635ac4a16af0122f9a07801b","null","","null","","","","","","","","./tasks/HMM-beads/Images/WhiteBeadChoice.png","","","","","","","","","","","","","","","","","","",""
"image-keyboard-response","136","191199","0.0-4.0-6.0-1.0-2.19","603595f7c81d8e6ceaa65476","635ab8fc87ce89828e04cd4d","635ac4a16af0122f9a07801b","null","","null","","","","","","","","./tasks/HMM-beads/Images/WhiteBeadChoiceCorrect.png","","","","","","","","","","","","","","","","","","",""
"image-keyboard-response","137","191468","0.0-4.0-6.0-1.0-0.20","603595f7c81d8e6ceaa65476","635ab8fc87ce89828e04cd4d","635ac4a16af0122f9a07801b","268","","j","","","","","","","","./tasks/HMM-beads/Images/NewTrialWC.png","lowH","20","2","2","2","2","true","","","","","","","","","","","",""
"image-keyboard-response","138","191778","0.0-4.0-6.0-1.0-1.20","603595f7c81d8e6ceaa65476","635ab8fc87ce89828e04cd4d","635ac4a16af0122f9a07801b","null","","null","","","","","","","","./tasks/HMM-beads/Images/WhiteBeadChoice.png","","","","","","","","","","","","","","","","","","",""
"image-keyboard-response","139","192283","0.0-4.0-6.0-1.0-2.20","603595f7c81d8e6ceaa65476","635ab8fc87ce89828e04cd4d","635ac4a16af0122f9a07801b","null","","null","","","","","","","","./tasks/HMM-beads/Images/WhiteBeadChoiceCorrect.png","","","","","","","","","","","","","","","","","","",""
"image-keyboard-response","140","192579","0.0-4.0-6.0-1.0-0.21","603595f7c81d8e6ceaa65476","635ab8fc87ce89828e04cd4d","635ac4a16af0122f9a07801b","295","","j","","","","","","","","./tasks/HMM-beads/Images/NewTrialWC.png","lowH","21","2","2","2","2","true","","","","","","","","","","","",""
"image-keyboard-response","141","192887","0.0-4.0-6.0-1.0-1.21","603595f7c81d8e6ceaa65476","635ab8fc87ce89828e04cd4d","635ac4a16af0122f9a07801b","null","","null","","","","","","","","./tasks/HMM-beads/Images/WhiteBeadChoice.png","","","","","","","","","","","","","","","","","","",""
"image-keyboard-response","142","193390","0.0-4.0-6.0-1.0-2.21","603595f7c81d8e6ceaa65476","635ab8fc87ce89828e04cd4d","635ac4a16af0122f9a07801b","null","","null","","","","","","","","./tasks/HMM-beads/Images/WhiteBeadChoiceCorrect.png","","","","","","","","","","","","","","","","","","",""
"image-keyboard-response","143","193659","0.0-4.0-6.0-1.0-0.22","603595f7c81d8e6ceaa65476","635ab8fc87ce89828e04cd4d","635ac4a16af0122f9a07801b","267","","j","","","","","","","","./tasks/HMM-beads/Images/NewTrialWC.png","lowH","22","2","2","2","2","true","","","","","","","","","","","",""
"image-keyboard-response","144","193971","0.0-4.0-6.0-1.0-1.22","603595f7c81d8e6ceaa65476","635ab8fc87ce89828e04cd4d","635ac4a16af0122f9a07801b","null","","null","","","","","","","","./tasks/HMM-beads/Images/WhiteBeadChoice.png","","","","","","","","","","","","","","","","","","",""
"image-keyboard-response","145","194475","0.0-4.0-6.0-1.0-2.22","603595f7c81d8e6ceaa65476","635ab8fc87ce89828e04cd4d","635ac4a16af0122f9a07801b","null","","null","","","","","","","","./tasks/HMM-beads/Images/WhiteBeadChoiceCorrect.png","","","","","","","","","","","","","","","","","","",""
"image-keyboard-response","146","194763","0.0-4.0-6.0-1.0-0.23","603595f7c81d8e6ceaa65476","635ab8fc87ce89828e04cd4d","635ac4a16af0122f9a07801b","287","","j","","","","","","","","./tasks/HMM-beads/Images/NewTrialWC.png","lowH","23","2","2","2","2","true","","","","","","","","","","","",""
"image-keyboard-response","147","195085","0.0-4.0-6.0-1.0-1.23","603595f7c81d8e6ceaa65476","635ab8fc87ce89828e04cd4d","635ac4a16af0122f9a07801b","null","","null","","","","","","","","./tasks/HMM-beads/Images/WhiteBeadChoice.png","","","","","","","","","","","","","","","","","","",""
"image-keyboard-response","148","195588","0.0-4.0-6.0-1.0-2.23","603595f7c81d8e6ceaa65476","635ab8fc87ce89828e04cd4d","635ac4a16af0122f9a07801b","null","","null","","","","","","","","./tasks/HMM-beads/Images/WhiteBeadChoiceCorrect.png","","","","","","","","","","","","","","","","","","",""
"image-keyboard-response","149","195779","0.0-4.0-6.0-1.0-0.24","603595f7c81d8e6ceaa65476","635ab8fc87ce89828e04cd4d","635ac4a16af0122f9a07801b","190","","j","","","","","","","","./tasks/HMM-beads/Images/NewTrialWC.png","lowH","24","2","2","2","2","true","","","","","","","","","","","",""
"image-keyboard-response","150","196094","0.0-4.0-6.0-1.0-1.24","603595f7c81d8e6ceaa65476","635ab8fc87ce89828e04cd4d","635ac4a16af0122f9a07801b","null","","null","","","","","","","","./tasks/HMM-beads/Images/WhiteBeadChoice.png","","","","","","","","","","","","","","","","","","",""
"image-keyboard-response","151","196598","0.0-4.0-6.0-1.0-2.24","603595f7c81d8e6ceaa65476","635ab8fc87ce89828e04cd4d","635ac4a16af0122f9a07801b","null","","null","","","","","","","","./tasks/HMM-beads/Images/WhiteBeadChoiceCorrect.png","","","","","","","","","","","","","","","","","","",""
"image-keyboard-response","152","196875","0.0-4.0-6.0-1.0-0.25","603595f7c81d8e6ceaa65476","635ab8fc87ce89828e04cd4d","635ac4a16af0122f9a07801b","275","","j","","","","","","","","./tasks/HMM-beads/Images/NewTrialWC.png","lowH","25","2","2","2","2","true","","","","","","","","","","","",""
"image-keyboard-response","153","197178","0.0-4.0-6.0-1.0-1.25","603595f7c81d8e6ceaa65476","635ab8fc87ce89828e04cd4d","635ac4a16af0122f9a07801b","null","","null","","","","","","","","./tasks/HMM-beads/Images/WhiteBeadChoice.png","","","","","","","","","","","","","","","","","","",""
"image-keyboard-response","154","197683","0.0-4.0-6.0-1.0-2.25","603595f7c81d8e6ceaa65476","635ab8fc87ce89828e04cd4d","635ac4a16af0122f9a07801b","null","","null","","","","","","","","./tasks/HMM-beads/Images/WhiteBeadChoiceCorrect.png","","","","","","","","","","","","","","","","","","",""
"image-keyboard-response","155","197898","0.0-4.0-6.0-1.0-0.26","603595f7c81d8e6ceaa65476","635ab8fc87ce89828e04cd4d","635ac4a16af0122f9a07801b","214","","j","","","","","","","","./tasks/HMM-beads/Images/NewTrialWC.png","lowH","26","2","2","2","2","true","","","","","","","","","","","",""
"image-keyboard-response","156","198200","0.0-4.0-6.0-1.0-1.26","603595f7c81d8e6ceaa65476","635ab8fc87ce89828e04cd4d","635ac4a16af0122f9a07801b","null","","null","","","","","","","","./tasks/HMM-beads/Images/WhiteBeadChoice.png","","","","","","","","","","","","","","","","","","",""
"image-keyboard-response","157","198704","0.0-4.0-6.0-1.0-2.26","603595f7c81d8e6ceaa65476","635ab8fc87ce89828e04cd4d","635ac4a16af0122f9a07801b","null","","null","","","","","","","","./tasks/HMM-beads/Images/WhiteBeadChoiceCorrect.png","","","","","","","","","","","","","","","","","","",""
"image-keyboard-response","158","198915","0.0-4.0-6.0-1.0-0.27","603595f7c81d8e6ceaa65476","635ab8fc87ce89828e04cd4d","635ac4a16af0122f9a07801b","210","","j","","","","","","","","./tasks/HMM-beads/Images/NewTrialWC.png","lowH","27","2","2","2","2","true","","","","","","","","","","","",""
"image-keyboard-response","159","199226","0.0-4.0-6.0-1.0-1.27","603595f7c81d8e6ceaa65476","635ab8fc87ce89828e04cd4d","635ac4a16af0122f9a07801b","null","","null","","","","","","","","./tasks/HMM-beads/Images/WhiteBeadChoice.png","","","","","","","","","","","","","","","","","","",""
"image-keyboard-response","160","199729","0.0-4.0-6.0-1.0-2.27","603595f7c81d8e6ceaa65476","635ab8fc87ce89828e04cd4d","635ac4a16af0122f9a07801b","null","","null","","","","","","","","./tasks/HMM-beads/Images/WhiteBeadChoiceCorrect.png","","","","","","","","","","","","","","","","","","",""
"image-keyboard-response","161","200218","0.0-4.0-6.0-1.0-0.28","603595f7c81d8e6ceaa65476","635ab8fc87ce89828e04cd4d","635ac4a16af0122f9a07801b","488","","j","","","","","","","","./tasks/HMM-beads/Images/NewTrialWC.png","lowH","28","2","2","2","2","true","","","","","","","","","","","",""
"image-keyboard-response","162","200526","0.0-4.0-6.0-1.0-1.28","603595f7c81d8e6ceaa65476","635ab8fc87ce89828e04cd4d","635ac4a16af0122f9a07801b","null","","null","","","","","","","","./tasks/HMM-beads/Images/WhiteBeadChoice.png","","","","","","","","","","","","","","","","","","",""
"image-keyboard-response","163","201031","0.0-4.0-6.0-1.0-2.28","603595f7c81d8e6ceaa65476","635ab8fc87ce89828e04cd4d","635ac4a16af0122f9a07801b","null","","null","","","","","","","","./tasks/HMM-beads/Images/WhiteBeadChoiceCorrect.png","","","","","","","","","","","","","","","","","","",""
"image-keyboard-response","164","201347","0.0-4.0-6.0-1.0-0.29","603595f7c81d8e6ceaa65476","635ab8fc87ce89828e04cd4d","635ac4a16af0122f9a07801b","314","","j","","","","","","","","./tasks/HMM-beads/Images/NewTrialWC.png","lowH","29","2","1","2","2","false","","","","","","","","","","","",""
"image-keyboard-response","165","201656","0.0-4.0-6.0-1.0-1.29","603595f7c81d8e6ceaa65476","635ab8fc87ce89828e04cd4d","635ac4a16af0122f9a07801b","null","","null","","","","","","","","./tasks/HMM-beads/Images/WhiteBeadChoice.png","","","","","","","","","","","","","","","","","","",""
"image-keyboard-response","166","202170","0.0-4.0-6.0-1.0-2.29","603595f7c81d8e6ceaa65476","635ab8fc87ce89828e04cd4d","635ac4a16af0122f9a07801b","null","","null","","","","","","","","./tasks/HMM-beads/Images/WhiteBeadChoiceWrong.png","","","","","","","","","","","","","","","","","","",""
"image-keyboard-response","167","202707","0.0-4.0-6.0-1.0-0.30","603595f7c81d8e6ceaa65476","635ab8fc87ce89828e04cd4d","635ac4a16af0122f9a07801b","536","","j","","","","","","","","./tasks/HMM-beads/Images/NewTrialBC.png","lowH","30","2","2","1","2","true","","","","","","","","","","","",""
"image-keyboard-response","168","203016","0.0-4.0-6.0-1.0-1.30","603595f7c81d8e6ceaa65476","635ab8fc87ce89828e04cd4d","635ac4a16af0122f9a07801b","null","","null","","","","","","","","./tasks/HMM-beads/Images/WhiteBeadChoice.png","","","","","","","","","","","","","","","","","","",""
"image-keyboard-response","169","203533","0.0-4.0-6.0-1.0-2.30","603595f7c81d8e6ceaa65476","635ab8fc87ce89828e04cd4d","635ac4a16af0122f9a07801b","null","","null","","","","","","","","./tasks/HMM-beads/Images/WhiteBeadChoiceCorrect.png","","","","","","","","","","","","","","","","","","",""
"image-keyboard-response","170","203867","0.0-4.0-6.0-1.0-0.31","603595f7c81d8e6ceaa65476","635ab8fc87ce89828e04cd4d","635ac4a16af0122f9a07801b","333","","j","","","","","","","","./tasks/HMM-beads/Images/NewTrialWC.png","lowH","31","2","1","2","2","false","","","","","","","","","","","",""
"image-keyboard-response","171","204181","0.0-4.0-6.0-1.0-1.31","603595f7c81d8e6ceaa65476","635ab8fc87ce89828e04cd4d","635ac4a16af0122f9a07801b","null","","null","","","","","","","","./tasks/HMM-beads/Images/WhiteBeadChoice.png","","","","","","","","","","","","","","","","","","",""
"image-keyboard-response","172","204685","0.0-4.0-6.0-1.0-2.31","603595f7c81d8e6ceaa65476","635ab8fc87ce89828e04cd4d","635ac4a16af0122f9a07801b","null","","null","","","","","","","","./tasks/HMM-beads/Images/WhiteBeadChoiceWrong.png","","","","","","","","","","","","","","","","","","",""
"image-keyboard-response","173","205011","0.0-4.0-6.0-1.0-0.32","603595f7c81d8e6ceaa65476","635ab8fc87ce89828e04cd4d","635ac4a16af0122f9a07801b","326","","j","","","","","","","","./tasks/HMM-beads/Images/NewTrialBC.png","lowH","32","2","2","1","2","true","","","","","","","","","","","",""
"image-keyboard-response","174","205319","0.0-4.0-6.0-1.0-1.32","603595f7c81d8e6ceaa65476","635ab8fc87ce89828e04cd4d","635ac4a16af0122f9a07801b","null","","null","","","","","","","","./tasks/HMM-beads/Images/WhiteBeadChoice.png","","","","","","","","","","","","","","","","","","",""
"image-keyboard-response","175","205822","0.0-4.0-6.0-1.0-2.32","603595f7c81d8e6ceaa65476","635ab8fc87ce89828e04cd4d","635ac4a16af0122f9a07801b","null","","null","","","","","","","","./tasks/HMM-beads/Images/WhiteBeadChoiceCorrect.png","","","","","","","","","","","","","","","","","","",""
"image-keyboard-response","176","206107","0.0-4.0-6.0-1.0-0.33","603595f7c81d8e6ceaa65476","635ab8fc87ce89828e04cd4d","635ac4a16af0122f9a07801b","284","","j","","","","","","","","./tasks/HMM-beads/Images/NewTrialWC.png","lowH","33","2","2","2","2","true","","","","","","","","","","","",""
"image-keyboard-response","177","206422","0.0-4.0-6.0-1.0-1.33","603595f7c81d8e6ceaa65476","635ab8fc87ce89828e04cd4d","635ac4a16af0122f9a07801b","null","","null","","","","","","","","./tasks/HMM-beads/Images/WhiteBeadChoice.png","","","","","","","","","","","","","","","","","","",""
"image-keyboard-response","178","206932","0.0-4.0-6.0-1.0-2.33","603595f7c81d8e6ceaa65476","635ab8fc87ce89828e04cd4d","635ac4a16af0122f9a07801b","null","","null","","","","","","","","./tasks/HMM-beads/Images/WhiteBeadChoiceCorrect.png","","","","","","","","","","","","","","","","","","",""
"image-keyboard-response","179","207195","0.0-4.0-6.0-1.0-0.34","603595f7c81d8e6ceaa65476","635ab8fc87ce89828e04cd4d","635ac4a16af0122f9a07801b","262","","j","","","","","","","","./tasks/HMM-beads/Images/NewTrialWC.png","lowH","34","2","2","2","2","true","","","","","","","","","","","",""
"image-keyboard-response","180","207514","0.0-4.0-6.0-1.0-1.34","603595f7c81d8e6ceaa65476","635ab8fc87ce89828e04cd4d","635ac4a16af0122f9a07801b","null","","null","","","","","","","","./tasks/HMM-beads/Images/WhiteBeadChoice.png","","","","","","","","","","","","","","","","","","",""
"image-keyboard-response","181","208030","0.0-4.0-6.0-1.0-2.34","603595f7c81d8e6ceaa65476","635ab8fc87ce89828e04cd4d","635ac4a16af0122f9a07801b","null","","null","","","","","","","","./tasks/HMM-beads/Images/WhiteBeadChoiceCorrect.png","","","","","","","","","","","","","","","","","","",""
"image-keyboard-response","182","208283","0.0-4.0-6.0-1.0-0.35","603595f7c81d8e6ceaa65476","635ab8fc87ce89828e04cd4d","635ac4a16af0122f9a07801b","252","","j","","","","","","","","./tasks/HMM-beads/Images/NewTrialWC.png","lowH","35","2","2","2","2","true","","","","","","","","","","","",""
"image-keyboard-response","183","208585","0.0-4.0-6.0-1.0-1.35","603595f7c81d8e6ceaa65476","635ab8fc87ce89828e04cd4d","635ac4a16af0122f9a07801b","null","","null","","","","","","","","./tasks/HMM-beads/Images/WhiteBeadChoice.png","","","","","","","","","","","","","","","","","","",""
"image-keyboard-response","184","209088","0.0-4.0-6.0-1.0-2.35","603595f7c81d8e6ceaa65476","635ab8fc87ce89828e04cd4d","635ac4a16af0122f9a07801b","null","","null","","","","","","","","./tasks/HMM-beads/Images/WhiteBeadChoiceCorrect.png","","","","","","","","","","","","","","","","","","",""
"image-keyboard-response","185","209282","0.0-4.0-6.0-1.0-0.36","603595f7c81d8e6ceaa65476","635ab8fc87ce89828e04cd4d","635ac4a16af0122f9a07801b","194","","j","","","","","","","","./tasks/HMM-beads/Images/NewTrialWC.png","lowH","36","2","2","2","2","true","","","","","","","","","","","",""
"image-keyboard-response","186","209597","0.0-4.0-6.0-1.0-1.36","603595f7c81d8e6ceaa65476","635ab8fc87ce89828e04cd4d","635ac4a16af0122f9a07801b","null","","null","","","","","","","","./tasks/HMM-beads/Images/WhiteBeadChoice.png","","","","","","","","","","","","","","","","","","",""
"image-keyboard-response","187","210101","0.0-4.0-6.0-1.0-2.36","603595f7c81d8e6ceaa65476","635ab8fc87ce89828e04cd4d","635ac4a16af0122f9a07801b","null","","null","","","","","","","","./tasks/HMM-beads/Images/WhiteBeadChoiceCorrect.png","","","","","","","","","","","","","","","","","","",""
"image-keyboard-response","188","210371","0.0-4.0-6.0-1.0-0.37","603595f7c81d8e6ceaa65476","635ab8fc87ce89828e04cd4d","635ac4a16af0122f9a07801b","268","","j","","","","","","","","./tasks/HMM-beads/Images/NewTrialWC.png","lowH","37","2","2","2","2","true","","","","","","","","","","","",""
"image-keyboard-response","189","210682","0.0-4.0-6.0-1.0-1.37","603595f7c81d8e6ceaa65476","635ab8fc87ce89828e04cd4d","635ac4a16af0122f9a07801b","null","","null","","","","","","","","./tasks/HMM-beads/Images/WhiteBeadChoice.png","","","","","","","","","","","","","","","","","","",""
"image-keyboard-response","190","211190","0.0-4.0-6.0-1.0-2.37","603595f7c81d8e6ceaa65476","635ab8fc87ce89828e04cd4d","635ac4a16af0122f9a07801b","null","","null","","","","","","","","./tasks/HMM-beads/Images/WhiteBeadChoiceCorrect.png","","","","","","","","","","","","","","","","","","",""
"image-keyboard-response","191","211803","0.0-4.0-6.0-1.0-0.38","603595f7c81d8e6ceaa65476","635ab8fc87ce89828e04cd4d","635ac4a16af0122f9a07801b","612","","j","","","","","","","","./tasks/HMM-beads/Images/NewTrialWC.png","lowH","38","2","2","2","2","true","","","","","","","","","","","",""
"image-keyboard-response","192","212114","0.0-4.0-6.0-1.0-1.38","603595f7c81d8e6ceaa65476","635ab8fc87ce89828e04cd4d","635ac4a16af0122f9a07801b","null","","null","","","","","","","","./tasks/HMM-beads/Images/WhiteBeadChoice.png","","","","","","","","","","","","","","","","","","",""
"image-keyboard-response","193","212620","0.0-4.0-6.0-1.0-2.38","603595f7c81d8e6ceaa65476","635ab8fc87ce89828e04cd4d","635ac4a16af0122f9a07801b","null","","null","","","","","","","","./tasks/HMM-beads/Images/WhiteBeadChoiceCorrect.png","","","","","","","","","","","","","","","","","","",""
"image-keyboard-response","194","213018","0.0-4.0-6.0-1.0-0.39","603595f7c81d8e6ceaa65476","635ab8fc87ce89828e04cd4d","635ac4a16af0122f9a07801b","397","","j","","","","","","","","./tasks/HMM-beads/Images/NewTrialWC.png","lowH","39","2","1","2","2","false","","","","","","","","","","","",""
"image-keyboard-response","195","213332","0.0-4.0-6.0-1.0-1.39","603595f7c81d8e6ceaa65476","635ab8fc87ce89828e04cd4d","635ac4a16af0122f9a07801b","null","","null","","","","","","","","./tasks/HMM-beads/Images/WhiteBeadChoice.png","","","","","","","","","","","","","","","","","","",""
"image-keyboard-response","196","213840","0.0-4.0-6.0-1.0-2.39","603595f7c81d8e6ceaa65476","635ab8fc87ce89828e04cd4d","635ac4a16af0122f9a07801b","null","","null","","","","","","","","./tasks/HMM-beads/Images/WhiteBeadChoiceWrong.png","","","","","","","","","","","","","","","","","","",""
"image-keyboard-response","197","214051","0.0-4.0-6.0-1.0-0.40","603595f7c81d8e6ceaa65476","635ab8fc87ce89828e04cd4d","635ac4a16af0122f9a07801b","209","","j","","","","","","","","./tasks/HMM-beads/Images/NewTrialBC.png","lowH","40","2","2","1","2","true","","","","","","","","","","","",""
"image-keyboard-response","198","214360","0.0-4.0-6.0-1.0-1.40","603595f7c81d8e6ceaa65476","635ab8fc87ce89828e04cd4d","635ac4a16af0122f9a07801b","null","","null","","","","","","","","./tasks/HMM-beads/Images/WhiteBeadChoice.png","","","","","","","","","","","","","","","","","","",""
"image-keyboard-response","199","214869","0.0-4.0-6.0-1.0-2.40","603595f7c81d8e6ceaa65476","635ab8fc87ce89828e04cd4d","635ac4a16af0122f9a07801b","null","","null","","","","","","","","./tasks/HMM-beads/Images/WhiteBeadChoiceCorrect.png","","","","","","","","","","","","","","","","","","",""
"image-keyboard-response","200","215170","0.0-4.0-6.0-1.0-0.41","603595f7c81d8e6ceaa65476","635ab8fc87ce89828e04cd4d","635ac4a16af0122f9a07801b","300","","j","","","","","","","","./tasks/HMM-beads/Images/NewTrialWC.png","lowH","41","2","1","2","2","false","","","","","","","","","","","",""
"image-keyboard-response","201","215480","0.0-4.0-6.0-1.0-1.41","603595f7c81d8e6ceaa65476","635ab8fc87ce89828e04cd4d","635ac4a16af0122f9a07801b","null","","null","","","","","","","","./tasks/HMM-beads/Images/WhiteBeadChoice.png","","","","","","","","","","","","","","","","","","",""
"image-keyboard-response","202","215984","0.0-4.0-6.0-1.0-2.41","603595f7c81d8e6ceaa65476","635ab8fc87ce89828e04cd4d","635ac4a16af0122f9a07801b","null","","null","","","","","","","","./tasks/HMM-beads/Images/WhiteBeadChoiceWrong.png","","","","","","","","","","","","","","","","","","",""
"image-keyboard-response","203","216210","0.0-4.0-6.0-1.0-0.42","603595f7c81d8e6ceaa65476","635ab8fc87ce89828e04cd4d","635ac4a16af0122f9a07801b","225","","j","","","","","","","","./tasks/HMM-beads/Images/NewTrialBC.png","lowH","42","2","1","1","2","false","","","","","","","","","","","",""
"image-keyboard-response","204","216521","0.0-4.0-6.0-1.0-1.42","603595f7c81d8e6ceaa65476","635ab8fc87ce89828e04cd4d","635ac4a16af0122f9a07801b","null","","null","","","","","","","","./tasks/HMM-beads/Images/WhiteBeadChoice.png","","","","","","","","","","","","","","","","","","",""
"image-keyboard-response","205","217025","0.0-4.0-6.0-1.0-2.42","603595f7c81d8e6ceaa65476","635ab8fc87ce89828e04cd4d","635ac4a16af0122f9a07801b","null","","null","","","","","","","","./tasks/HMM-beads/Images/WhiteBeadChoiceWrong.png","","","","","","","","","","","","","","","","","","",""
"image-keyboard-response","206","217547","0.0-4.0-6.0-1.0-0.43","603595f7c81d8e6ceaa65476","635ab8fc87ce89828e04cd4d","635ac4a16af0122f9a07801b","521","","f","","","","","","","","./tasks/HMM-beads/Images/NewTrialBC.png","lowH","43","2","2","1","1","false","","","","","","","","","","","",""
"image-keyboard-response","207","217859","0.0-4.0-6.0-1.0-1.43","603595f7c81d8e6ceaa65476","635ab8fc87ce89828e04cd4d","635ac4a16af0122f9a07801b","null","","null","","","","","","","","./tasks/HMM-beads/Images/BlackBeadChoice.png","","","","","","","","","","","","","","","","","","",""
"image-keyboard-response","208","218374","0.0-4.0-6.0-1.0-2.43","603595f7c81d8e6ceaa65476","635ab8fc87ce89828e04cd4d","635ac4a16af0122f9a07801b","null","","null","","","","","","","","./tasks/HMM-beads/Images/BlackBeadChoiceWrong.png","","","","","","","","","","","","","","","","","","",""
"image-keyboard-response","209","218667","0.0-4.0-6.0-1.0-0.44","603595f7c81d8e6ceaa65476","635ab8fc87ce89828e04cd4d","635ac4a16af0122f9a07801b","292","","j","","","","","","","","./tasks/HMM-beads/Images/NewTrialWC.png","lowH","44","2","2","2","2","true","","","","","","","","","","","",""
"image-keyboard-response","210","218970","0.0-4.0-6.0-1.0-1.44","603595f7c81d8e6ceaa65476","635ab8fc87ce89828e04cd4d","635ac4a16af0122f9a07801b","null","","null","","","","","","","","./tasks/HMM-beads/Images/WhiteBeadChoice.png","","","","","","","","","","","","","","","","","","",""
"image-keyboard-response","211","219476","0.0-4.0-6.0-1.0-2.44","603595f7c81d8e6ceaa65476","635ab8fc87ce89828e04cd4d","635ac4a16af0122f9a07801b","null","","null","","","","","","","","./tasks/HMM-beads/Images/WhiteBeadChoiceCorrect.png","","","","","","","","","","","","","","","","","","",""
"image-keyboard-response","212","219811","0.0-4.0-6.0-1.0-0.45","603595f7c81d8e6ceaa65476","635ab8fc87ce89828e04cd4d","635ac4a16af0122f9a07801b","334","","j","","","","","","","","./tasks/HMM-beads/Images/NewTrialWC.png","lowH","45","2","1","2","2","false","","","","","","","","","","","",""
"image-keyboard-response","213","220121","0.0-4.0-6.0-1.0-1.45","603595f7c81d8e6ceaa65476","635ab8fc87ce89828e04cd4d","635ac4a16af0122f9a07801b","null","","null","","","","","","","","./tasks/HMM-beads/Images/WhiteBeadChoice.png","","","","","","","","","","","","","","","","","","",""
"image-keyboard-response","214","220626","0.0-4.0-6.0-1.0-2.45","603595f7c81d8e6ceaa65476","635ab8fc87ce89828e04cd4d","635ac4a16af0122f9a07801b","null","","null","","","","","","","","./tasks/HMM-beads/Images/WhiteBeadChoiceWrong.png","","","","","","","","","","","","","","","","","","",""
"image-keyboard-response","215","221366","0.0-4.0-6.0-1.0-0.46","603595f7c81d8e6ceaa65476","635ab8fc87ce89828e04cd4d","635ac4a16af0122f9a07801b","738","","f","","","","","","","","./tasks/HMM-beads/Images/NewTrialBC.png","lowH","46","2","2","1","1","false","","","","","","","","","","","",""
"image-keyboard-response","216","221667","0.0-4.0-6.0-1.0-1.46","603595f7c81d8e6ceaa65476","635ab8fc87ce89828e04cd4d","635ac4a16af0122f9a07801b","null","","null","","","","","","","","./tasks/HMM-beads/Images/BlackBeadChoice.png","","","","","","","","","","","","","","","","","","",""
"image-keyboard-response","217","222182","0.0-4.0-6.0-1.0-2.46","603595f7c81d8e6ceaa65476","635ab8fc87ce89828e04cd4d","635ac4a16af0122f9a07801b","null","","null","","","","","","","","./tasks/HMM-beads/Images/BlackBeadChoiceWrong.png","","","","","","","","","","","","","","","","","","",""
"image-keyboard-response","218","222371","0.0-4.0-6.0-1.0-0.47","603595f7c81d8e6ceaa65476","635ab8fc87ce89828e04cd4d","635ac4a16af0122f9a07801b","188","","j","","","","","","","","./tasks/HMM-beads/Images/NewTrialWC.png","lowH","47","2","2","2","2","true","","","","","","","","","","","",""
"image-keyboard-response","219","222683","0.0-4.0-6.0-1.0-1.47","603595f7c81d8e6ceaa65476","635ab8fc87ce89828e04cd4d","635ac4a16af0122f9a07801b","null","","null","","","","","","","","./tasks/HMM-beads/Images/WhiteBeadChoice.png","","","","","","","","","","","","","","","","","","",""
"image-keyboard-response","220","223186","0.0-4.0-6.0-1.0-2.47","603595f7c81d8e6ceaa65476","635ab8fc87ce89828e04cd4d","635ac4a16af0122f9a07801b","null","","null","","","","","","","","./tasks/HMM-beads/Images/WhiteBeadChoiceCorrect.png","","","","","","","","","","","","","","","","","","",""
"image-keyboard-response","221","223427","0.0-4.0-6.0-1.0-0.48","603595f7c81d8e6ceaa65476","635ab8fc87ce89828e04cd4d","635ac4a16af0122f9a07801b","240","","j","","","","","","","","./tasks/HMM-beads/Images/NewTrialWC.png","lowH","48","2","2","2","2","true","","","","","","","","","","","",""
"image-keyboard-response","222","223731","0.0-4.0-6.0-1.0-1.48","603595f7c81d8e6ceaa65476","635ab8fc87ce89828e04cd4d","635ac4a16af0122f9a07801b","null","","null","","","","","","","","./tasks/HMM-beads/Images/WhiteBeadChoice.png","","","","","","","","","","","","","","","","","","",""
"image-keyboard-response","223","224233","0.0-4.0-6.0-1.0-2.48","603595f7c81d8e6ceaa65476","635ab8fc87ce89828e04cd4d","635ac4a16af0122f9a07801b","null","","null","","","","","","","","./tasks/HMM-beads/Images/WhiteBeadChoiceCorrect.png","","","","","","","","","","","","","","","","","","",""
"image-keyboard-response","224","224506","0.0-4.0-6.0-1.0-0.49","603595f7c81d8e6ceaa65476","635ab8fc87ce89828e04cd4d","635ac4a16af0122f9a07801b","273","","j","","","","","","","","./tasks/HMM-beads/Images/NewTrialWC.png","lowH","49","2","2","2","2","true","","","","","","","","","","","",""
"image-keyboard-response","225","224814","0.0-4.0-6.0-1.0-1.49","603595f7c81d8e6ceaa65476","635ab8fc87ce89828e04cd4d","635ac4a16af0122f9a07801b","null","","null","","","","","","","","./tasks/HMM-beads/Images/WhiteBeadChoice.png","","","","","","","","","","","","","","","","","","",""
"image-keyboard-response","226","225331","0.0-4.0-6.0-1.0-2.49","603595f7c81d8e6ceaa65476","635ab8fc87ce89828e04cd4d","635ac4a16af0122f9a07801b","null","","null","","","","","","","","./tasks/HMM-beads/Images/WhiteBeadChoiceCorrect.png","","","","","","","","","","","","","","","","","","",""
"image-keyboard-response","227","225507","0.0-4.0-6.0-1.0-0.50","603595f7c81d8e6ceaa65476","635ab8fc87ce89828e04cd4d","635ac4a16af0122f9a07801b","174","","j","","","","","","","","./tasks/HMM-beads/Images/NewTrialWC.png","lowH","50","2","1","2","2","false","","","","","","","","","","","",""
"image-keyboard-response","228","225815","0.0-4.0-6.0-1.0-1.50","603595f7c81d8e6ceaa65476","635ab8fc87ce89828e04cd4d","635ac4a16af0122f9a07801b","null","","null","","","","","","","","./tasks/HMM-beads/Images/WhiteBeadChoice.png","","","","","","","","","","","","","","","","","","",""
"image-keyboard-response","229","226329","0.0-4.0-6.0-1.0-2.50","603595f7c81d8e6ceaa65476","635ab8fc87ce89828e04cd4d","635ac4a16af0122f9a07801b","null","","null","","","","","","","","./tasks/HMM-beads/Images/WhiteBeadChoiceWrong.png","","","","","","","","","","","","","","","","","","",""
"image-keyboard-response","230","226738","0.0-4.0-6.0-1.0-0.51","603595f7c81d8e6ceaa65476","635ab8fc87ce89828e04cd4d","635ac4a16af0122f9a07801b","408","","j","","","","","","","","./tasks/HMM-beads/Images/NewTrialBC.png","lowH","51","2","1","1","2","false","","","","","","","","","","","",""
"image-keyboard-response","231","227047","0.0-4.0-6.0-1.0-1.51","603595f7c81d8e6ceaa65476","635ab8fc87ce89828e04cd4d","635ac4a16af0122f9a07801b","null","","null","","","","","","","","./tasks/HMM-beads/Images/WhiteBeadChoice.png","","","","","","","","","","","","","","","","","","",""
"image-keyboard-response","232","227563","0.0-4.0-6.0-1.0-2.51","603595f7c81d8e6ceaa65476","635ab8fc87ce89828e04cd4d","635ac4a16af0122f9a07801b","null","","null","","","","","","","","./tasks/HMM-beads/Images/WhiteBeadChoiceWrong.png","","","","","","","","","","","","","","","","","","",""
"image-keyboard-response","233","228347","0.0-4.0-6.0-1.0-0.52","603595f7c81d8e6ceaa65476","635ab8fc87ce89828e04cd4d","635ac4a16af0122f9a07801b","783","","j","","","","","","","","./tasks/HMM-beads/Images/NewTrialBC.png","lowH","52","2","2","1","2","true","","","","","","","","","","","",""
"image-keyboard-response","234","228652","0.0-4.0-6.0-1.0-1.52","603595f7c81d8e6ceaa65476","635ab8fc87ce89828e04cd4d","635ac4a16af0122f9a07801b","null","","null","","","","","","","","./tasks/HMM-beads/Images/WhiteBeadChoice.png","","","","","","","","","","","","","","","","","","",""
"image-keyboard-response","235","229158","0.0-4.0-6.0-1.0-2.52","603595f7c81d8e6ceaa65476","635ab8fc87ce89828e04cd4d","635ac4a16af0122f9a07801b","null","","null","","","","","","","","./tasks/HMM-beads/Images/WhiteBeadChoiceCorrect.png","","","","","","","","","","","","","","","","","","",""
"image-keyboard-response","236","229626","0.0-4.0-6.0-1.0-0.53","603595f7c81d8e6ceaa65476","635ab8fc87ce89828e04cd4d","635ac4a16af0122f9a07801b","467","","j","","","","","","","","./tasks/HMM-beads/Images/NewTrialWC.png","lowH","53","2","2","2","2","true","","","","","","","","","","","",""
"image-keyboard-response","237","229939","0.0-4.0-6.0-1.0-1.53","603595f7c81d8e6ceaa65476","635ab8fc87ce89828e04cd4d","635ac4a16af0122f9a07801b","null","","null","","","","","","","","./tasks/HMM-beads/Images/WhiteBeadChoice.png","","","","","","","","","","","","","","","","","","",""
"image-keyboard-response","238","230455","0.0-4.0-6.0-1.0-2.53","603595f7c81d8e6ceaa65476","635ab8fc87ce89828e04cd4d","635ac4a16af0122f9a07801b","null","","null","","","","","","","","./tasks/HMM-beads/Images/WhiteBeadChoiceCorrect.png","","","","","","","","","","","","","","","","","","",""
"image-keyboard-response","239","230858","0.0-4.0-6.0-1.0-0.54","603595f7c81d8e6ceaa65476","635ab8fc87ce89828e04cd4d","635ac4a16af0122f9a07801b","402","","j","","","","","","","","./tasks/HMM-beads/Images/NewTrialWC.png","lowH","54","2","2","2","2","true","","","","","","","","","","","",""
"image-keyboard-response","240","231165","0.0-4.0-6.0-1.0-1.54","603595f7c81d8e6ceaa65476","635ab8fc87ce89828e04cd4d","635ac4a16af0122f9a07801b","null","","null","","","","","","","","./tasks/HMM-beads/Images/WhiteBeadChoice.png","","","","","","","","","","","","","","","","","","",""
"image-keyboard-response","241","231669","0.0-4.0-6.0-1.0-2.54","603595f7c81d8e6ceaa65476","635ab8fc87ce89828e04cd4d","635ac4a16af0122f9a07801b","null","","null","","","","","","","","./tasks/HMM-beads/Images/WhiteBeadChoiceCorrect.png","","","","","","","","","","","","","","","","","","",""
"image-keyboard-response","242","231963","0.0-4.0-6.0-1.0-0.55","603595f7c81d8e6ceaa65476","635ab8fc87ce89828e04cd4d","635ac4a16af0122f9a07801b","293","","j","","","","","","","","./tasks/HMM-beads/Images/NewTrialWC.png","lowH","55","2","2","2","2","true","","","","","","","","","","","",""
"image-keyboard-response","243","232277","0.0-4.0-6.0-1.0-1.55","603595f7c81d8e6ceaa65476","635ab8fc87ce89828e04cd4d","635ac4a16af0122f9a07801b","null","","null","","","","","","","","./tasks/HMM-beads/Images/WhiteBeadChoice.png","","","","","","","","","","","","","","","","","","",""
"image-keyboard-response","244","232792","0.0-4.0-6.0-1.0-2.55","603595f7c81d8e6ceaa65476","635ab8fc87ce89828e04cd4d","635ac4a16af0122f9a07801b","null","","null","","","","","","","","./tasks/HMM-beads/Images/WhiteBeadChoiceCorrect.png","","","","","","","","","","","","","","","","","","",""
"image-keyboard-response","245","233075","0.0-4.0-6.0-1.0-0.56","603595f7c81d8e6ceaa65476","635ab8fc87ce89828e04cd4d","635ac4a16af0122f9a07801b","282","","j","","","","","","","","./tasks/HMM-beads/Images/NewTrialWC.png","lowH","56","2","1","2","2","false","","","","","","","","","","","",""
"image-keyboard-response","246","233388","0.0-4.0-6.0-1.0-1.56","603595f7c81d8e6ceaa65476","635ab8fc87ce89828e04cd4d","635ac4a16af0122f9a07801b","null","","null","","","","","","","","./tasks/HMM-beads/Images/WhiteBeadChoice.png","","","","","","","","","","","","","","","","","","",""
"image-keyboard-response","247","233893","0.0-4.0-6.0-1.0-2.56","603595f7c81d8e6ceaa65476","635ab8fc87ce89828e04cd4d","635ac4a16af0122f9a07801b","null","","null","","","","","","","","./tasks/HMM-beads/Images/WhiteBeadChoiceWrong.png","","","","","","","","","","","","","","","","","","",""
"image-keyboard-response","248","234282","0.0-4.0-6.0-1.0-0.57","603595f7c81d8e6ceaa65476","635ab8fc87ce89828e04cd4d","635ac4a16af0122f9a07801b","389","","j","","","","","","","","./tasks/HMM-beads/Images/NewTrialBC.png","lowH","57","2","2","1","2","true","","","","","","","","","","","",""
"image-keyboard-response","249","234592","0.0-4.0-6.0-1.0-1.57","603595f7c81d8e6ceaa65476","635ab8fc87ce89828e04cd4d","635ac4a16af0122f9a07801b","null","","null","","","","","","","","./tasks/HMM-beads/Images/WhiteBeadChoice.png","","","","","","","","","","","","","","","","","","",""
"image-keyboard-response","250","235109","0.0-4.0-6.0-1.0-2.57","603595f7c81d8e6ceaa65476","635ab8fc87ce89828e04cd4d","635ac4a16af0122f9a07801b","null","","null","","","","","","","","./tasks/HMM-beads/Images/WhiteBeadChoiceCorrect.png","","","","","","","","","","","","","","","","","","",""
"image-keyboard-response","251","235411","0.0-4.0-6.0-1.0-0.58","603595f7c81d8e6ceaa65476","635ab8fc87ce89828e04cd4d","635ac4a16af0122f9a07801b","297","","j","","","","","","","","./tasks/HMM-beads/Images/NewTrialWC.png","lowH","58","2","1","2","2","false","","","","","","","","","","","",""
"image-keyboard-response","252","235719","0.0-4.0-6.0-1.0-1.58","603595f7c81d8e6ceaa65476","635ab8fc87ce89828e04cd4d","635ac4a16af0122f9a07801b","null","","null","","","","","","","","./tasks/HMM-beads/Images/WhiteBeadChoice.png","","","","","","","","","","","","","","","","","","",""
"image-keyboard-response","253","236222","0.0-4.0-6.0-1.0-2.58","603595f7c81d8e6ceaa65476","635ab8fc87ce89828e04cd4d","635ac4a16af0122f9a07801b","null","","null","","","","","","","","./tasks/HMM-beads/Images/WhiteBeadChoiceWrong.png","","","","","","","","","","","","","","","","","","",""
"image-keyboard-response","254","236531","0.0-4.0-6.0-1.0-0.59","603595f7c81d8e6ceaa65476","635ab8fc87ce89828e04cd4d","635ac4a16af0122f9a07801b","309","","j","","","","","","","","./tasks/HMM-beads/Images/NewTrialBC.png","lowH","59","2","1","1","2","false","","","","","","","","","","","",""
"image-keyboard-response","255","236837","0.0-4.0-6.0-1.0-1.59","603595f7c81d8e6ceaa65476","635ab8fc87ce89828e04cd4d","635ac4a16af0122f9a07801b","null","","null","","","","","","","","./tasks/HMM-beads/Images/WhiteBeadChoice.png","","","","","","","","","","","","","","","","","","",""
"image-keyboard-response","256","237345","0.0-4.0-6.0-1.0-2.59","603595f7c81d8e6ceaa65476","635ab8fc87ce89828e04cd4d","635ac4a16af0122f9a07801b","null","","null","","","","","","","","./tasks/HMM-beads/Images/WhiteBeadChoiceWrong.png","","","","","","","","","","","","","","","","","","",""
"image-keyboard-response","257","237658","0.0-4.0-6.0-1.0-0.60","603595f7c81d8e6ceaa65476","635ab8fc87ce89828e04cd4d","635ac4a16af0122f9a07801b","311","","j","","","","","","","","./tasks/HMM-beads/Images/NewTrialBC.png","lowH","60","2","2","1","2","true","","","","","","","","","","","",""
"image-keyboard-response","258","237963","0.0-4.0-6.0-1.0-1.60","603595f7c81d8e6ceaa65476","635ab8fc87ce89828e04cd4d","635ac4a16af0122f9a07801b","null","","null","","","","","","","","./tasks/HMM-beads/Images/WhiteBeadChoice.png","","","","","","","","","","","","","","","","","","",""
"image-keyboard-response","259","238480","0.0-4.0-6.0-1.0-2.60","603595f7c81d8e6ceaa65476","635ab8fc87ce89828e04cd4d","635ac4a16af0122f9a07801b","null","","null","","","","","","","","./tasks/HMM-beads/Images/WhiteBeadChoiceCorrect.png","","","","","","","","","","","","","","","","","","",""
"image-keyboard-response","260","239426","0.0-4.0-6.0-1.0-0.61","603595f7c81d8e6ceaa65476","635ab8fc87ce89828e04cd4d","635ac4a16af0122f9a07801b","945","","f","","","","","","","","./tasks/HMM-beads/Images/NewTrialWC.png","lowH","61","2","2","2","1","false","","","","","","","","","","","",""
"image-keyboard-response","261","239733","0.0-4.0-6.0-1.0-1.61","603595f7c81d8e6ceaa65476","635ab8fc87ce89828e04cd4d","635ac4a16af0122f9a07801b","null","","null","","","","","","","","./tasks/HMM-beads/Images/BlackBeadChoice.png","","","","","","","","","","","","","","","","","","",""
"image-keyboard-response","262","240239","0.0-4.0-6.0-1.0-2.61","603595f7c81d8e6ceaa65476","635ab8fc87ce89828e04cd4d","635ac4a16af0122f9a07801b","null","","null","","","","","","","","./tasks/HMM-beads/Images/BlackBeadChoiceWrong.png","","","","","","","","","","","","","","","","","","",""
"image-keyboard-response","263","240482","0.0-4.0-6.0-1.0-0.62","603595f7c81d8e6ceaa65476","635ab8fc87ce89828e04cd4d","635ac4a16af0122f9a07801b","243","","j","","","","","","","","./tasks/HMM-beads/Images/NewTrialWC.png","lowH","62","2","2","2","2","true","","","","","","","","","","","",""
"image-keyboard-response","264","240794","0.0-4.0-6.0-1.0-1.62","603595f7c81d8e6ceaa65476","635ab8fc87ce89828e04cd4d","635ac4a16af0122f9a07801b","null","","null","","","","","","","","./tasks/HMM-beads/Images/WhiteBeadChoice.png","","","","","","","","","","","","","","","","","","",""
"image-keyboard-response","265","241301","0.0-4.0-6.0-1.0-2.62","603595f7c81d8e6ceaa65476","635ab8fc87ce89828e04cd4d","635ac4a16af0122f9a07801b","null","","null","","","","","","","","./tasks/HMM-beads/Images/WhiteBeadChoiceCorrect.png","","","","","","","","","","","","","","","","","","",""
"image-keyboard-response","266","241490","0.0-4.0-6.0-1.0-0.63","603595f7c81d8e6ceaa65476","635ab8fc87ce89828e04cd4d","635ac4a16af0122f9a07801b","188","","j","","","","","","","","./tasks/HMM-beads/Images/NewTrialWC.png","lowH","63","2","1","2","2","false","","","","","","","","","","","",""
"image-keyboard-response","267","241804","0.0-4.0-6.0-1.0-1.63","603595f7c81d8e6ceaa65476","635ab8fc87ce89828e04cd4d","635ac4a16af0122f9a07801b","null","","null","","","","","","","","./tasks/HMM-beads/Images/WhiteBeadChoice.png","","","","","","","","","","","","","","","","","","",""
"image-keyboard-response","268","242313","0.0-4.0-6.0-1.0-2.63","603595f7c81d8e6ceaa65476","635ab8fc87ce89828e04cd4d","635ac4a16af0122f9a07801b","null","","null","","","","","","","","./tasks/HMM-beads/Images/WhiteBeadChoiceWrong.png","","","","","","","","","","","","","","","","","","",""
"image-keyboard-response","269","242874","0.0-4.0-6.0-1.0-0.64","603595f7c81d8e6ceaa65476","635ab8fc87ce89828e04cd4d","635ac4a16af0122f9a07801b","560","","f","","","","","","","","./tasks/HMM-beads/Images/NewTrialBC.png","lowH","64","2","2","1","1","false","","","","","","","","","","","",""
"image-keyboard-response","270","243188","0.0-4.0-6.0-1.0-1.64","603595f7c81d8e6ceaa65476","635ab8fc87ce89828e04cd4d","635ac4a16af0122f9a07801b","null","","null","","","","","","","","./tasks/HMM-beads/Images/BlackBeadChoice.png","","","","","","","","","","","","","","","","","","",""
"image-keyboard-response","271","243689","0.0-4.0-6.0-1.0-2.64","603595f7c81d8e6ceaa65476","635ab8fc87ce89828e04cd4d","635ac4a16af0122f9a07801b","null","","null","","","","","","","","./tasks/HMM-beads/Images/BlackBeadChoiceWrong.png","","","","","","","","","","","","","","","","","","",""
"image-keyboard-response","272","244580","0.0-4.0-6.0-1.0-0.65","603595f7c81d8e6ceaa65476","635ab8fc87ce89828e04cd4d","635ac4a16af0122f9a07801b","889","","j","","","","","","","","./tasks/HMM-beads/Images/NewTrialWC.png","lowH","65","2","2","2","2","true","","","","","","","","","","","",""
"image-keyboard-response","273","244895","0.0-4.0-6.0-1.0-1.65","603595f7c81d8e6ceaa65476","635ab8fc87ce89828e04cd4d","635ac4a16af0122f9a07801b","null","","null","","","","","","","","./tasks/HMM-beads/Images/WhiteBeadChoice.png","","","","","","","","","","","","","","","","","","",""
"image-keyboard-response","274","245401","0.0-4.0-6.0-1.0-2.65","603595f7c81d8e6ceaa65476","635ab8fc87ce89828e04cd4d","635ac4a16af0122f9a07801b","null","","null","","","","","","","","./tasks/HMM-beads/Images/WhiteBeadChoiceCorrect.png","","","","","","","","","","","","","","","","","","",""
"image-keyboard-response","275","246306","0.0-4.0-6.0-1.0-0.66","603595f7c81d8e6ceaa65476","635ab8fc87ce89828e04cd4d","635ac4a16af0122f9a07801b","904","","j","","","","","","","","./tasks/HMM-beads/Images/NewTrialWC.png","lowH","66","2","1","2","2","false","","","","","","","","","","","",""
"image-keyboard-response","276","246614","0.0-4.0-6.0-1.0-1.66","603595f7c81d8e6ceaa65476","635ab8fc87ce89828e04cd4d","635ac4a16af0122f9a07801b","null","","null","","","","","","","","./tasks/HMM-beads/Images/WhiteBeadChoice.png","","","","","","","","","","","","","","","","","","",""
"image-keyboard-response","277","247122","0.0-4.0-6.0-1.0-2.66","603595f7c81d8e6ceaa65476","635ab8fc87ce89828e04cd4d","635ac4a16af0122f9a07801b","null","","null","","","","","","","","./tasks/HMM-beads/Images/WhiteBeadChoiceWrong.png","","","","","","","","","","","","","","","","","","",""
"image-keyboard-response","278","247610","0.0-4.0-6.0-1.0-0.67","603595f7c81d8e6ceaa65476","635ab8fc87ce89828e04cd4d","635ac4a16af0122f9a07801b","487","","j","","","","","","","","./tasks/HMM-beads/Images/NewTrialBC.png","lowH","67","2","2","1","2","true","","","","","","","","","","","",""
"image-keyboard-response","279","247924","0.0-4.0-6.0-1.0-1.67","603595f7c81d8e6ceaa65476","635ab8fc87ce89828e04cd4d","635ac4a16af0122f9a07801b","null","","null","","","","","","","","./tasks/HMM-beads/Images/WhiteBeadChoice.png","","","","","","","","","","","","","","","","","","",""
"image-keyboard-response","280","248431","0.0-4.0-6.0-1.0-2.67","603595f7c81d8e6ceaa65476","635ab8fc87ce89828e04cd4d","635ac4a16af0122f9a07801b","null","","null","","","","","","","","./tasks/HMM-beads/Images/WhiteBeadChoiceCorrect.png","","","","","","","","","","","","","","","","","","",""
"image-keyboard-response","281","248986","0.0-4.0-6.0-1.0-0.68","603595f7c81d8e6ceaa65476","635ab8fc87ce89828e04cd4d","635ac4a16af0122f9a07801b","554","","j","","","","","","","","./tasks/HMM-beads/Images/NewTrialWC.png","lowH","68","2","2","2","2","true","","","","","","","","","","","",""
"image-keyboard-response","282","249295","0.0-4.0-6.0-1.0-1.68","603595f7c81d8e6ceaa65476","635ab8fc87ce89828e04cd4d","635ac4a16af0122f9a07801b","null","","null","","","","","","","","./tasks/HMM-beads/Images/WhiteBeadChoice.png","","","","","","","","","","","","","","","","","","",""
"image-keyboard-response","283","249800","0.0-4.0-6.0-1.0-2.68","603595f7c81d8e6ceaa65476","635ab8fc87ce89828e04cd4d","635ac4a16af0122f9a07801b","null","","null","","","","","","","","./tasks/HMM-beads/Images/WhiteBeadChoiceCorrect.png","","","","","","","","","","","","","","","","","","",""
"image-keyboard-response","284","250218","0.0-4.0-6.0-1.0-0.69","603595f7c81d8e6ceaa65476","635ab8fc87ce89828e04cd4d","635ac4a16af0122f9a07801b","418","","j","","","","","","","","./tasks/HMM-beads/Images/NewTrialWC.png","lowH","69","2","2","2","2","true","","","","","","","","","","","",""
"image-keyboard-response","285","250522","0.0-4.0-6.0-1.0-1.69","603595f7c81d8e6ceaa65476","635ab8fc87ce89828e04cd4d","635ac4a16af0122f9a07801b","null","","null","","","","","","","","./tasks/HMM-beads/Images/WhiteBeadChoice.png","","","","","","","","","","","","","","","","","","",""
"image-keyboard-response","286","251024","0.0-4.0-6.0-1.0-2.69","603595f7c81d8e6ceaa65476","635ab8fc87ce89828e04cd4d","635ac4a16af0122f9a07801b","null","","null","","","","","","","","./tasks/HMM-beads/Images/WhiteBeadChoiceCorrect.png","","","","","","","","","","","","","","","","","","",""
"image-keyboard-response","287","251338","0.0-4.0-6.0-1.0-0.70","603595f7c81d8e6ceaa65476","635ab8fc87ce89828e04cd4d","635ac4a16af0122f9a07801b","314","","j","","","","","","","","./tasks/HMM-beads/Images/NewTrialWC.png","lowH","70","2","2","2","2","true","","","","","","","","","","","",""
"image-keyboard-response","288","251641","0.0-4.0-6.0-1.0-1.70","603595f7c81d8e6ceaa65476","635ab8fc87ce89828e04cd4d","635ac4a16af0122f9a07801b","null","","null","","","","","","","","./tasks/HMM-beads/Images/WhiteBeadChoice.png","","","","","","","","","","","","","","","","","","",""
"image-keyboard-response","289","252148","0.0-4.0-6.0-1.0-2.70","603595f7c81d8e6ceaa65476","635ab8fc87ce89828e04cd4d","635ac4a16af0122f9a07801b","null","","null","","","","","","","","./tasks/HMM-beads/Images/WhiteBeadChoiceCorrect.png","","","","","","","","","","","","","","","","","","",""
"image-keyboard-response","290","252491","0.0-4.0-6.0-1.0-0.71","603595f7c81d8e6ceaa65476","635ab8fc87ce89828e04cd4d","635ac4a16af0122f9a07801b","342","","j","","","","","","","","./tasks/HMM-beads/Images/NewTrialWC.png","lowH","71","2","2","2","2","true","","","","","","","","","","","",""
"image-keyboard-response","291","252798","0.0-4.0-6.0-1.0-1.71","603595f7c81d8e6ceaa65476","635ab8fc87ce89828e04cd4d","635ac4a16af0122f9a07801b","null","","null","","","","","","","","./tasks/HMM-beads/Images/WhiteBeadChoice.png","","","","","","","","","","","","","","","","","","",""
"image-keyboard-response","292","253309","0.0-4.0-6.0-1.0-2.71","603595f7c81d8e6ceaa65476","635ab8fc87ce89828e04cd4d","635ac4a16af0122f9a07801b","null","","null","","","","","","","","./tasks/HMM-beads/Images/WhiteBeadChoiceCorrect.png","","","","","","","","","","","","","","","","","","",""
"image-keyboard-response","293","254826","0.0-4.0-6.0-1.0-0.72","603595f7c81d8e6ceaa65476","635ab8fc87ce89828e04cd4d","635ac4a16af0122f9a07801b","1517","","f","","","","","","","","./tasks/HMM-beads/Images/NewTrialWC.png","lowH","72","2","1","2","1","true","","","","","","","","","","","",""
"image-keyboard-response","294","255134","0.0-4.0-6.0-1.0-1.72","603595f7c81d8e6ceaa65476","635ab8fc87ce89828e04cd4d","635ac4a16af0122f9a07801b","null","","null","","","","","","","","./tasks/HMM-beads/Images/BlackBeadChoice.png","","","","","","","","","","","","","","","","","","",""
"image-keyboard-response","295","255651","0.0-4.0-6.0-1.0-2.72","603595f7c81d8e6ceaa65476","635ab8fc87ce89828e04cd4d","635ac4a16af0122f9a07801b","null","","null","","","","","","","","./tasks/HMM-beads/Images/BlackBeadChoiceCorrect.png","","","","","","","","","","","","","","","","","","",""
"image-keyboard-response","296","256418","0.0-4.0-6.0-1.0-0.73","603595f7c81d8e6ceaa65476","635ab8fc87ce89828e04cd4d","635ac4a16af0122f9a07801b","766","","j","","","","","","","","./tasks/HMM-beads/Images/NewTrialBC.png","lowH","73","2","2","1","2","true","","","","","","","","","","","",""
"image-keyboard-response","297","256722","0.0-4.0-6.0-1.0-1.73","603595f7c81d8e6ceaa65476","635ab8fc87ce89828e04cd4d","635ac4a16af0122f9a07801b","null","","null","","","","","","","","./tasks/HMM-beads/Images/WhiteBeadChoice.png","","","","","","","","","","","","","","","","","","",""
"image-keyboard-response","298","257226","0.0-4.0-6.0-1.0-2.73","603595f7c81d8e6ceaa65476","635ab8fc87ce89828e04cd4d","635ac4a16af0122f9a07801b","null","","null","","","","","","","","./tasks/HMM-beads/Images/WhiteBeadChoiceCorrect.png","","","","","","","","","","","","","","","","","","",""
"image-keyboard-response","299","257650","0.0-4.0-6.0-1.0-0.74","603595f7c81d8e6ceaa65476","635ab8fc87ce89828e04cd4d","635ac4a16af0122f9a07801b","423","","j","","","","","","","","./tasks/HMM-beads/Images/NewTrialWC.png","lowH","74","2","1","2","2","false","","","","","","","","","","","",""
"image-keyboard-response","300","257957","0.0-4.0-6.0-1.0-1.74","603595f7c81d8e6ceaa65476","635ab8fc87ce89828e04cd4d","635ac4a16af0122f9a07801b","null","","null","","","","","","","","./tasks/HMM-beads/Images/WhiteBeadChoice.png","","","","","","","","","","","","","","","","","","",""
"image-keyboard-response","301","258463","0.0-4.0-6.0-1.0-2.74","603595f7c81d8e6ceaa65476","635ab8fc87ce89828e04cd4d","635ac4a16af0122f9a07801b","null","","null","","","","","","","","./tasks/HMM-beads/Images/WhiteBeadChoiceWrong.png","","","","","","","","","","","","","","","","","","",""
"image-keyboard-response","302","259506","0.0-4.0-6.0-1.0-0.75","603595f7c81d8e6ceaa65476","635ab8fc87ce89828e04cd4d","635ac4a16af0122f9a07801b","1042","","j","","","","","","","","./tasks/HMM-beads/Images/NewTrialBC.png","lowH","75","2","2","1","2","true","","","","","","","","","","","",""
"image-keyboard-response","303","259817","0.0-4.0-6.0-1.0-1.75","603595f7c81d8e6ceaa65476","635ab8fc87ce89828e04cd4d","635ac4a16af0122f9a07801b","null","","null","","","","","","","","./tasks/HMM-beads/Images/WhiteBeadChoice.png","","","","","","","","","","","","","","","","","","",""
"image-keyboard-response","304","260321","0.0-4.0-6.0-1.0-2.75","603595f7c81d8e6ceaa65476","635ab8fc87ce89828e04cd4d","635ac4a16af0122f9a07801b","null","","null","","","","","","","","./tasks/HMM-beads/Images/WhiteBeadChoiceCorrect.png","","","","","","","","","","","","","","","","","","",""
"image-keyboard-response","305","260594","0.0-4.0-6.0-1.0-0.76","603595f7c81d8e6ceaa65476","635ab8fc87ce89828e04cd4d","635ac4a16af0122f9a07801b","272","","j","","","","","","","","./tasks/HMM-beads/Images/NewTrialWC.png","lowH","76","2","1","2","2","false","","","","","","","","","","","",""
"image-keyboard-response","306","260902","0.0-4.0-6.0-1.0-1.76","603595f7c81d8e6ceaa65476","635ab8fc87ce89828e04cd4d","635ac4a16af0122f9a07801b","null","","null","","","","","","","","./tasks/HMM-beads/Images/WhiteBeadChoice.png","","","","","","","","","","","","","","","","","","",""
"image-keyboard-response","307","261408","0.0-4.0-6.0-1.0-2.76","603595f7c81d8e6ceaa65476","635ab8fc87ce89828e04cd4d","635ac4a16af0122f9a07801b","null","","null","","","","","","","","./tasks/HMM-beads/Images/WhiteBeadChoiceWrong.png","","","","","","","","","","","","","","","","","","",""
"image-keyboard-response","308","261690","0.0-4.0-6.0-1.0-0.77","603595f7c81d8e6ceaa65476","635ab8fc87ce89828e04cd4d","635ac4a16af0122f9a07801b","282","","j","","","","","","","","./tasks/HMM-beads/Images/NewTrialBC.png","lowH","77","2","2","1","2","true","","","","","","","","","","","",""
"image-keyboard-response","309","261995","0.0-4.0-6.0-1.0-1.77","603595f7c81d8e6ceaa65476","635ab8fc87ce89828e04cd4d","635ac4a16af0122f9a07801b","null","","null","","","","","","","","./tasks/HMM-beads/Images/WhiteBeadChoice.png","","","","","","","","","","","","","","","","","","",""
"image-keyboard-response","310","262500","0.0-4.0-6.0-1.0-2.77","603595f7c81d8e6ceaa65476","635ab8fc87ce89828e04cd4d","635ac4a16af0122f9a07801b","null","","null","","","","","","","","./tasks/HMM-beads/Images/WhiteBeadChoiceCorrect.png","","","","","","","","","","","","","","","","","","",""
"image-keyboard-response","311","263083","0.0-4.0-6.0-1.0-0.78","603595f7c81d8e6ceaa65476","635ab8fc87ce89828e04cd4d","635ac4a16af0122f9a07801b","582","","f","","","","","","","","./tasks/HMM-beads/Images/NewTrialWC.png","lowH","78","2","2","2","1","false","","","","","","","","","","","",""
"image-keyboard-response","312","263386","0.0-4.0-6.0-1.0-1.78","603595f7c81d8e6ceaa65476","635ab8fc87ce89828e04cd4d","635ac4a16af0122f9a07801b","null","","null","","","","","","","","./tasks/HMM-beads/Images/BlackBeadChoice.png","","","","","","","","","","","","","","","","","","",""
"image-keyboard-response","313","263887","0.0-4.0-6.0-1.0-2.78","603595f7c81d8e6ceaa65476","635ab8fc87ce89828e04cd4d","635ac4a16af0122f9a07801b","null","","null","","","","","","","","./tasks/HMM-beads/Images/BlackBeadChoiceWrong.png","","","","","","","","","","","","","","","","","","",""
"image-keyboard-response","314","264195","0.0-4.0-6.0-1.0-0.79","603595f7c81d8e6ceaa65476","635ab8fc87ce89828e04cd4d","635ac4a16af0122f9a07801b","307","","j","","","","","","","","./tasks/HMM-beads/Images/NewTrialWC.png","lowH","79","2","2","2","2","true","","","","","","","","","","","",""
"image-keyboard-response","315","264505","0.0-4.0-6.0-1.0-1.79","603595f7c81d8e6ceaa65476","635ab8fc87ce89828e04cd4d","635ac4a16af0122f9a07801b","null","","null","","","","","","","","./tasks/HMM-beads/Images/WhiteBeadChoice.png","","","","","","","","","","","","","","","","","","",""
"image-keyboard-response","316","265013","0.0-4.0-6.0-1.0-2.79","603595f7c81d8e6ceaa65476","635ab8fc87ce89828e04cd4d","635ac4a16af0122f9a07801b","null","","null","","","","","","","","./tasks/HMM-beads/Images/WhiteBeadChoiceCorrect.png","","","","","","","","","","","","","","","","","","",""
"image-keyboard-response","317","265403","0.0-4.0-6.0-1.0-0.80","603595f7c81d8e6ceaa65476","635ab8fc87ce89828e04cd4d","635ac4a16af0122f9a07801b","389","","j","","","","","","","","./tasks/HMM-beads/Images/NewTrialWC.png","lowH","80","2","2","2","2","true","","","","","","","","","","","",""
"image-keyboard-response","318","265708","0.0-4.0-6.0-1.0-1.80","603595f7c81d8e6ceaa65476","635ab8fc87ce89828e04cd4d","635ac4a16af0122f9a07801b","null","","null","","","","","","","","./tasks/HMM-beads/Images/WhiteBeadChoice.png","","","","","","","","","","","","","","","","","","",""
"image-keyboard-response","319","266214","0.0-4.0-6.0-1.0-2.80","603595f7c81d8e6ceaa65476","635ab8fc87ce89828e04cd4d","635ac4a16af0122f9a07801b","null","","null","","","","","","","","./tasks/HMM-beads/Images/WhiteBeadChoiceCorrect.png","","","","","","","","","","","","","","","","","","",""
"image-keyboard-response","320","266578","0.0-4.0-6.0-1.0-0.81","603595f7c81d8e6ceaa65476","635ab8fc87ce89828e04cd4d","635ac4a16af0122f9a07801b","364","","j","","","","","","","","./tasks/HMM-beads/Images/NewTrialWC.png","lowH","81","2","2","2","2","true","","","","","","","","","","","",""
"image-keyboard-response","321","266892","0.0-4.0-6.0-1.0-1.81","603595f7c81d8e6ceaa65476","635ab8fc87ce89828e04cd4d","635ac4a16af0122f9a07801b","null","","null","","","","","","","","./tasks/HMM-beads/Images/WhiteBeadChoice.png","","","","","","","","","","","","","","","","","","",""
"image-keyboard-response","322","267397","0.0-4.0-6.0-1.0-2.81","603595f7c81d8e6ceaa65476","635ab8fc87ce89828e04cd4d","635ac4a16af0122f9a07801b","null","","null","","","","","","","","./tasks/HMM-beads/Images/WhiteBeadChoiceCorrect.png","","","","","","","","","","","","","","","","","","",""
"image-keyboard-response","323","267770","0.0-4.0-6.0-1.0-0.82","603595f7c81d8e6ceaa65476","635ab8fc87ce89828e04cd4d","635ac4a16af0122f9a07801b","372","","j","","","","","","","","./tasks/HMM-beads/Images/NewTrialWC.png","lowH","82","2","2","2","2","true","","","","","","","","","","","",""
"image-keyboard-response","324","268080","0.0-4.0-6.0-1.0-1.82","603595f7c81d8e6ceaa65476","635ab8fc87ce89828e04cd4d","635ac4a16af0122f9a07801b","null","","null","","","","","","","","./tasks/HMM-beads/Images/WhiteBeadChoice.png","","","","","","","","","","","","","","","","","","",""
"image-keyboard-response","325","268582","0.0-4.0-6.0-1.0-2.82","603595f7c81d8e6ceaa65476","635ab8fc87ce89828e04cd4d","635ac4a16af0122f9a07801b","null","","null","","","","","","","","./tasks/HMM-beads/Images/WhiteBeadChoiceCorrect.png","","","","","","","","","","","","","","","","","","",""
"image-keyboard-response","326","268930","0.0-4.0-6.0-1.0-0.83","603595f7c81d8e6ceaa65476","635ab8fc87ce89828e04cd4d","635ac4a16af0122f9a07801b","347","","j","","","","","","","","./tasks/HMM-beads/Images/NewTrialWC.png","lowH","83","2","2","2","2","true","","","","","","","","","","","",""
"image-keyboard-response","327","269237","0.0-4.0-6.0-1.0-1.83","603595f7c81d8e6ceaa65476","635ab8fc87ce89828e04cd4d","635ac4a16af0122f9a07801b","null","","null","","","","","","","","./tasks/HMM-beads/Images/WhiteBeadChoice.png","","","","","","","","","","","","","","","","","","",""
"image-keyboard-response","328","269754","0.0-4.0-6.0-1.0-2.83","603595f7c81d8e6ceaa65476","635ab8fc87ce89828e04cd4d","635ac4a16af0122f9a07801b","null","","null","","","","","","","","./tasks/HMM-beads/Images/WhiteBeadChoiceCorrect.png","","","","","","","","","","","","","","","","","","",""
"image-keyboard-response","329","270154","0.0-4.0-6.0-1.0-0.84","603595f7c81d8e6ceaa65476","635ab8fc87ce89828e04cd4d","635ac4a16af0122f9a07801b","400","","j","","","","","","","","./tasks/HMM-beads/Images/NewTrialWC.png","lowH","84","2","2","2","2","true","","","","","","","","","","","",""
"image-keyboard-response","330","270463","0.0-4.0-6.0-1.0-1.84","603595f7c81d8e6ceaa65476","635ab8fc87ce89828e04cd4d","635ac4a16af0122f9a07801b","null","","null","","","","","","","","./tasks/HMM-beads/Images/WhiteBeadChoice.png","","","","","","","","","","","","","","","","","","",""
"image-keyboard-response","331","270978","0.0-4.0-6.0-1.0-2.84","603595f7c81d8e6ceaa65476","635ab8fc87ce89828e04cd4d","635ac4a16af0122f9a07801b","null","","null","","","","","","","","./tasks/HMM-beads/Images/WhiteBeadChoiceCorrect.png","","","","","","","","","","","","","","","","","","",""
"image-keyboard-response","332","271154","0.0-4.0-6.0-1.0-0.85","603595f7c81d8e6ceaa65476","635ab8fc87ce89828e04cd4d","635ac4a16af0122f9a07801b","175","","j","","","","","","","","./tasks/HMM-beads/Images/NewTrialWC.png","lowH","85","2","2","2","2","true","","","","","","","","","","","",""
"image-keyboard-response","333","271466","0.0-4.0-6.0-1.0-1.85","603595f7c81d8e6ceaa65476","635ab8fc87ce89828e04cd4d","635ac4a16af0122f9a07801b","null","","null","","","","","","","","./tasks/HMM-beads/Images/WhiteBeadChoice.png","","","","","","","","","","","","","","","","","","",""
"image-keyboard-response","334","271975","0.0-4.0-6.0-1.0-2.85","603595f7c81d8e6ceaa65476","635ab8fc87ce89828e04cd4d","635ac4a16af0122f9a07801b","null","","null","","","","","","","","./tasks/HMM-beads/Images/WhiteBeadChoiceCorrect.png","","","","","","","","","","","","","","","","","","",""
"image-keyboard-response","335","272330","0.0-4.0-6.0-1.0-0.86","603595f7c81d8e6ceaa65476","635ab8fc87ce89828e04cd4d","635ac4a16af0122f9a07801b","355","","j","","","","","","","","./tasks/HMM-beads/Images/NewTrialWC.png","lowH","86","2","2","2","2","true","","","","","","","","","","","",""
"image-keyboard-response","336","272647","0.0-4.0-6.0-1.0-1.86","603595f7c81d8e6ceaa65476","635ab8fc87ce89828e04cd4d","635ac4a16af0122f9a07801b","null","","null","","","","","","","","./tasks/HMM-beads/Images/WhiteBeadChoice.png","","","","","","","","","","","","","","","","","","",""
"image-keyboard-response","337","273155","0.0-4.0-6.0-1.0-2.86","603595f7c81d8e6ceaa65476","635ab8fc87ce89828e04cd4d","635ac4a16af0122f9a07801b","null","","null","","","","","","","","./tasks/HMM-beads/Images/WhiteBeadChoiceCorrect.png","","","","","","","","","","","","","","","","","","",""
"image-keyboard-response","338","273402","0.0-4.0-6.0-1.0-0.87","603595f7c81d8e6ceaa65476","635ab8fc87ce89828e04cd4d","635ac4a16af0122f9a07801b","246","","j","","","","","","","","./tasks/HMM-beads/Images/NewTrialWC.png","lowH","87","2","2","2","2","true","","","","","","","","","","","",""
