"trial_type","trial_index","time_elapsed","internal_node_id","rt","url","response","question_order","view_history","success","timeout","failed_images","failed_audio","failed_video","stimulus","block","trial_number","state","choice","rewarded"
"pavlovia","0","578","0.0-0.0","","","","","","","","","","","","","","","",""
"external-html","1","48266","0.0-1.0-0.0","47680","consent.html","","","","","","","","","","","","","",""
"survey-multi-choice","2","52886","0.0-1.0-1.0","4618","","{""Q0"":""Male"",""Q1"":""White""}","[0,1]","","","","","","","","","","","",""
"survey-text","3","56384","0.0-1.0-2.0","3496","","{""Q0"":""27""}","","","","","","","","","","","","",""
"survey-text","4","61637","0.0-1.0-3.0","5141","","{""Q0"":""82473777""}","","","","","","","","","","","","",""
"instructions","5","81613","0.0-2.0","19871","","","","[{""page_index"":0,""viewing_time"":18172},{""page_index"":1,""viewing_time"":1699}]","","","","","","","","","","",""
"instructions","6","83728","0.0-3.0","2115","","","","[{""page_index"":0,""viewing_time"":2114}]","","","","","","","","","","",""
"preload","7","84430","0.0-4.0-0.0","","","","","","true","false","[]","[]","[]","","","","","",""
"instructions","8","134737","0.0-4.0-1.0","50306","","","","[{""page_index"":0,""viewing_time"":3543},{""page_index"":1,""viewing_time"":10581},{""page_index"":2,""viewing_time"":7429},{""page_index"":3,""viewing_time"":16055},{""page_index"":4,""viewing_time"":12698}]","","","","","","","","","","",""
"html-keyboard-response","9","137322","0.0-4.0-2.0-0.0","2584","","j","","","","","","","","<div style=""background-image: url('./tasks/two-arm-new/img/green_planet.png')""><div id=""jspsych-space-daw-top-stim-left"" ></div><div id=""jspsych-space-daw-top-stim-middle"" ></div><div id=""jspsych-space-daw-top-stim-right"" ></div><div style=""clear:both""></div><div id=""jspsych-space-daw-bottom-stim-left"" style=""background-image: url('./tasks/two-arm-new/img/green_stim_2_deact.png')""></div><div id=""jspsych-space-daw-bottom-stim-middle"" ></div><div id=""jspsych-space-daw-bottom-stim-right"" style=""background-image: url('./tasks/two-arm-new/img/green_stim_1.png')""></div></div>","good_alien_practice","0","green","1","1"
"html-keyboard-response","10","137837","0.0-4.0-2.0-1.0","null","","null","","","","","","","","<div style=""background-image: url('./tasks/two-arm-new/img/green_planet.png')""><div id=""jspsych-space-daw-top-stim-left"" ></div><div id=""jspsych-space-daw-top-stim-middle"" ></div><div id=""jspsych-space-daw-top-stim-right"" ></div><div style=""clear:both""></div><div id=""jspsych-space-daw-bottom-stim-left"" style=""background-image: url('./tasks/two-arm-new/img/green_stim_2_deact.png')""></div><div id=""jspsych-space-daw-bottom-stim-middle"" ></div><div id=""jspsych-space-daw-bottom-stim-right"" class=""jspsych-space-daw-bottom-stim-border"" style=""background-image: url('./tasks/two-arm-new/img/green_stim_1.png')""></div></div>","","","","",""
"html-keyboard-response","11","138853","0.0-4.0-2.0-2.0","null","","null","","","","","","","","<div style=""background-image: url('./tasks/two-arm-new/img/green_planet.png')""><div id=""jspsych-space-daw-top-stim-left"" ></div><div id=""jspsych-space-daw-top-stim-middle"" ></div><div id=""jspsych-space-daw-top-stim-right"" style=""background-image: url('./tasks/two-arm-new/img/treasure.png')""></div><div style=""clear:both""></div><div id=""jspsych-space-daw-bottom-stim-left"" style=""background-image: url('./tasks/two-arm-new/img/green_stim_2_deact.png')""></div><div id=""jspsych-space-daw-bottom-stim-middle"" ></div><div id=""jspsych-space-daw-bottom-stim-right"" class=""jspsych-space-daw-bottom-stim-border"" style=""background-image: url('./tasks/two-arm-new/img/green_stim_1.png')""></div></div>","","","","",""
"html-keyboard-response","12","139869","0.0-4.0-2.0-0.1","1014","","j","","","","","","","","<div style=""background-image: url('./tasks/two-arm-new/img/green_planet.png')""><div id=""jspsych-space-daw-top-stim-left"" ></div><div id=""jspsych-space-daw-top-stim-middle"" ></div><div id=""jspsych-space-daw-top-stim-right"" ></div><div style=""clear:both""></div><div id=""jspsych-space-daw-bottom-stim-left"" style=""background-image: url('./tasks/two-arm-new/img/green_stim_2_deact.png')""></div><div id=""jspsych-space-daw-bottom-stim-middle"" ></div><div id=""jspsych-space-daw-bottom-stim-right"" style=""background-image: url('./tasks/two-arm-new/img/green_stim_1.png')""></div></div>","good_alien_practice","1","green","1","1"
"html-keyboard-response","13","140378","0.0-4.0-2.0-1.1","null","","null","","","","","","","","<div style=""background-image: url('./tasks/two-arm-new/img/green_planet.png')""><div id=""jspsych-space-daw-top-stim-left"" ></div><div id=""jspsych-space-daw-top-stim-middle"" ></div><div id=""jspsych-space-daw-top-stim-right"" ></div><div style=""clear:both""></div><div id=""jspsych-space-daw-bottom-stim-left"" style=""background-image: url('./tasks/two-arm-new/img/green_stim_2_deact.png')""></div><div id=""jspsych-space-daw-bottom-stim-middle"" ></div><div id=""jspsych-space-daw-bottom-stim-right"" class=""jspsych-space-daw-bottom-stim-border"" style=""background-image: url('./tasks/two-arm-new/img/green_stim_1.png')""></div></div>","","","","",""
"html-keyboard-response","14","141387","0.0-4.0-2.0-2.1","null","","null","","","","","","","","<div style=""background-image: url('./tasks/two-arm-new/img/green_planet.png')""><div id=""jspsych-space-daw-top-stim-left"" ></div><div id=""jspsych-space-daw-top-stim-middle"" ></div><div id=""jspsych-space-daw-top-stim-right"" style=""background-image: url('./tasks/two-arm-new/img/treasure.png')""></div><div style=""clear:both""></div><div id=""jspsych-space-daw-bottom-stim-left"" style=""background-image: url('./tasks/two-arm-new/img/green_stim_2_deact.png')""></div><div id=""jspsych-space-daw-bottom-stim-middle"" ></div><div id=""jspsych-space-daw-bottom-stim-right"" class=""jspsych-space-daw-bottom-stim-border"" style=""background-image: url('./tasks/two-arm-new/img/green_stim_1.png')""></div></div>","","","","",""
"html-keyboard-response","15","142517","0.0-4.0-2.0-0.2","1130","","j","","","","","","","","<div style=""background-image: url('./tasks/two-arm-new/img/green_planet.png')""><div id=""jspsych-space-daw-top-stim-left"" ></div><div id=""jspsych-space-daw-top-stim-middle"" ></div><div id=""jspsych-space-daw-top-stim-right"" ></div><div style=""clear:both""></div><div id=""jspsych-space-daw-bottom-stim-left"" style=""background-image: url('./tasks/two-arm-new/img/green_stim_2_deact.png')""></div><div id=""jspsych-space-daw-bottom-stim-middle"" ></div><div id=""jspsych-space-daw-bottom-stim-right"" style=""background-image: url('./tasks/two-arm-new/img/green_stim_1.png')""></div></div>","good_alien_practice","2","green","1","1"
"html-keyboard-response","16","143021","0.0-4.0-2.0-1.2","null","","null","","","","","","","","<div style=""background-image: url('./tasks/two-arm-new/img/green_planet.png')""><div id=""jspsych-space-daw-top-stim-left"" ></div><div id=""jspsych-space-daw-top-stim-middle"" ></div><div id=""jspsych-space-daw-top-stim-right"" ></div><div style=""clear:both""></div><div id=""jspsych-space-daw-bottom-stim-left"" style=""background-image: url('./tasks/two-arm-new/img/green_stim_2_deact.png')""></div><div id=""jspsych-space-daw-bottom-stim-middle"" ></div><div id=""jspsych-space-daw-bottom-stim-right"" class=""jspsych-space-daw-bottom-stim-border"" style=""background-image: url('./tasks/two-arm-new/img/green_stim_1.png')""></div></div>","","","","",""
"html-keyboard-response","17","144032","0.0-4.0-2.0-2.2","null","","null","","","","","","","","<div style=""background-image: url('./tasks/two-arm-new/img/green_planet.png')""><div id=""jspsych-space-daw-top-stim-left"" ></div><div id=""jspsych-space-daw-top-stim-middle"" ></div><div id=""jspsych-space-daw-top-stim-right"" style=""background-image: url('./tasks/two-arm-new/img/treasure.png')""></div><div style=""clear:both""></div><div id=""jspsych-space-daw-bottom-stim-left"" style=""background-image: url('./tasks/two-arm-new/img/green_stim_2_deact.png')""></div><div id=""jspsych-space-daw-bottom-stim-middle"" ></div><div id=""jspsych-space-daw-bottom-stim-right"" class=""jspsych-space-daw-bottom-stim-border"" style=""background-image: url('./tasks/two-arm-new/img/green_stim_1.png')""></div></div>","","","","",""
"html-keyboard-response","18","145137","0.0-4.0-2.0-0.3","1105","","f","","","","","","","","<div style=""background-image: url('./tasks/two-arm-new/img/green_planet.png')""><div id=""jspsych-space-daw-top-stim-left"" ></div><div id=""jspsych-space-daw-top-stim-middle"" ></div><div id=""jspsych-space-daw-top-stim-right"" ></div><div style=""clear:both""></div><div id=""jspsych-space-daw-bottom-stim-left"" style=""background-image: url('./tasks/two-arm-new/img/green_stim_1.png')""></div><div id=""jspsych-space-daw-bottom-stim-middle"" ></div><div id=""jspsych-space-daw-bottom-stim-right"" style=""background-image: url('./tasks/two-arm-new/img/green_stim_2_deact.png')""></div></div>","good_alien_practice","3","green","1","0"
"html-keyboard-response","19","145653","0.0-4.0-2.0-1.3","null","","null","","","","","","","","<div style=""background-image: url('./tasks/two-arm-new/img/green_planet.png')""><div id=""jspsych-space-daw-top-stim-left"" ></div><div id=""jspsych-space-daw-top-stim-middle"" ></div><div id=""jspsych-space-daw-top-stim-right"" ></div><div style=""clear:both""></div><div id=""jspsych-space-daw-bottom-stim-left"" class=""jspsych-space-daw-bottom-stim-border"" style=""background-image: url('./tasks/two-arm-new/img/green_stim_1.png')""></div><div id=""jspsych-space-daw-bottom-stim-middle"" ></div><div id=""jspsych-space-daw-bottom-stim-right"" style=""background-image: url('./tasks/two-arm-new/img/green_stim_2_deact.png')""></div></div>","","","","",""
"html-keyboard-response","20","146666","0.0-4.0-2.0-2.3","null","","null","","","","","","","","<div style=""background-image: url('./tasks/two-arm-new/img/green_planet.png')""><div id=""jspsych-space-daw-top-stim-left"" style=""background-image: url('./tasks/two-arm-new/img/noreward.png')""></div><div id=""jspsych-space-daw-top-stim-middle"" ></div><div id=""jspsych-space-daw-top-stim-right"" ></div><div style=""clear:both""></div><div id=""jspsych-space-daw-bottom-stim-left"" class=""jspsych-space-daw-bottom-stim-border"" style=""background-image: url('./tasks/two-arm-new/img/green_stim_1_sad.png')""></div><div id=""jspsych-space-daw-bottom-stim-middle"" ></div><div id=""jspsych-space-daw-bottom-stim-right"" style=""background-image: url('./tasks/two-arm-new/img/green_stim_2_deact.png')""></div></div>","","","","",""
"html-keyboard-response","21","147542","0.0-4.0-2.0-0.4","875","","j","","","","","","","","<div style=""background-image: url('./tasks/two-arm-new/img/green_planet.png')""><div id=""jspsych-space-daw-top-stim-left"" ></div><div id=""jspsych-space-daw-top-stim-middle"" ></div><div id=""jspsych-space-daw-top-stim-right"" ></div><div style=""clear:both""></div><div id=""jspsych-space-daw-bottom-stim-left"" style=""background-image: url('./tasks/two-arm-new/img/green_stim_2_deact.png')""></div><div id=""jspsych-space-daw-bottom-stim-middle"" ></div><div id=""jspsych-space-daw-bottom-stim-right"" style=""background-image: url('./tasks/two-arm-new/img/green_stim_1.png')""></div></div>","good_alien_practice","4","green","1","1"
"html-keyboard-response","22","148051","0.0-4.0-2.0-1.4","null","","null","","","","","","","","<div style=""background-image: url('./tasks/two-arm-new/img/green_planet.png')""><div id=""jspsych-space-daw-top-stim-left"" ></div><div id=""jspsych-space-daw-top-stim-middle"" ></div><div id=""jspsych-space-daw-top-stim-right"" ></div><div style=""clear:both""></div><div id=""jspsych-space-daw-bottom-stim-left"" style=""background-image: url('./tasks/two-arm-new/img/green_stim_2_deact.png')""></div><div id=""jspsych-space-daw-bottom-stim-middle"" ></div><div id=""jspsych-space-daw-bottom-stim-right"" class=""jspsych-space-daw-bottom-stim-border"" style=""background-image: url('./tasks/two-arm-new/img/green_stim_1.png')""></div></div>","","","","",""
"html-keyboard-response","23","149062","0.0-4.0-2.0-2.4","null","","null","","","","","","","","<div style=""background-image: url('./tasks/two-arm-new/img/green_planet.png')""><div id=""jspsych-space-daw-top-stim-left"" ></div><div id=""jspsych-space-daw-top-stim-middle"" ></div><div id=""jspsych-space-daw-top-stim-right"" style=""background-image: url('./tasks/two-arm-new/img/treasure.png')""></div><div style=""clear:both""></div><div id=""jspsych-space-daw-bottom-stim-left"" style=""background-image: url('./tasks/two-arm-new/img/green_stim_2_deact.png')""></div><div id=""jspsych-space-daw-bottom-stim-middle"" ></div><div id=""jspsych-space-daw-bottom-stim-right"" class=""jspsych-space-daw-bottom-stim-border"" style=""background-image: url('./tasks/two-arm-new/img/green_stim_1.png')""></div></div>","","","","",""
"instructions","24","156582","0.0-4.0-3.0","7519","","","","[{""page_index"":0,""viewing_time"":7519}]","","","","","","","","","","",""
"html-keyboard-response","25","158055","0.0-4.0-4.0-0.0","1471","","j","","","","","","","","<div style=""background-image: url('./tasks/two-arm-new/img/yellow_planet.png')""><div id=""jspsych-space-daw-top-stim-left"" ></div><div id=""jspsych-space-daw-top-stim-middle"" ></div><div id=""jspsych-space-daw-top-stim-right"" ></div><div style=""clear:both""></div><div id=""jspsych-space-daw-bottom-stim-left"" style=""background-image: url('./tasks/two-arm-new/img/yellow_stim_2_deact.png')""></div><div id=""jspsych-space-daw-bottom-stim-middle"" ></div><div id=""jspsych-space-daw-bottom-stim-right"" style=""background-image: url('./tasks/two-arm-new/img/yellow_stim_1.png')""></div></div>","bad_alien_practice","0","yellow","1","0"
"html-keyboard-response","26","158562","0.0-4.0-4.0-1.0","null","","null","","","","","","","","<div style=""background-image: url('./tasks/two-arm-new/img/yellow_planet.png')""><div id=""jspsych-space-daw-top-stim-left"" ></div><div id=""jspsych-space-daw-top-stim-middle"" ></div><div id=""jspsych-space-daw-top-stim-right"" ></div><div style=""clear:both""></div><div id=""jspsych-space-daw-bottom-stim-left"" style=""background-image: url('./tasks/two-arm-new/img/yellow_stim_2_deact.png')""></div><div id=""jspsych-space-daw-bottom-stim-middle"" ></div><div id=""jspsych-space-daw-bottom-stim-right"" class=""jspsych-space-daw-bottom-stim-border"" style=""background-image: url('./tasks/two-arm-new/img/yellow_stim_1.png')""></div></div>","","","","",""
"html-keyboard-response","27","159574","0.0-4.0-4.0-2.0","null","","null","","","","","","","","<div style=""background-image: url('./tasks/two-arm-new/img/yellow_planet.png')""><div id=""jspsych-space-daw-top-stim-left"" ></div><div id=""jspsych-space-daw-top-stim-middle"" ></div><div id=""jspsych-space-daw-top-stim-right"" style=""background-image: url('./tasks/two-arm-new/img/noreward.png')""></div><div style=""clear:both""></div><div id=""jspsych-space-daw-bottom-stim-left"" style=""background-image: url('./tasks/two-arm-new/img/yellow_stim_2_deact.png')""></div><div id=""jspsych-space-daw-bottom-stim-middle"" ></div><div id=""jspsych-space-daw-bottom-stim-right"" class=""jspsych-space-daw-bottom-stim-border"" style=""background-image: url('./tasks/two-arm-new/img/yellow_stim_1_sad.png')""></div></div>","","","","",""
"html-keyboard-response","28","160224","0.0-4.0-4.0-0.1","649","","j","","","","","","","","<div style=""background-image: url('./tasks/two-arm-new/img/yellow_planet.png')""><div id=""jspsych-space-daw-top-stim-left"" ></div><div id=""jspsych-space-daw-top-stim-middle"" ></div><div id=""jspsych-space-daw-top-stim-right"" ></div><div style=""clear:both""></div><div id=""jspsych-space-daw-bottom-stim-left"" style=""background-image: url('./tasks/two-arm-new/img/yellow_stim_2_deact.png')""></div><div id=""jspsych-space-daw-bottom-stim-middle"" ></div><div id=""jspsych-space-daw-bottom-stim-right"" style=""background-image: url('./tasks/two-arm-new/img/yellow_stim_1.png')""></div></div>","bad_alien_practice","1","yellow","1","1"
"html-keyboard-response","29","160739","0.0-4.0-4.0-1.1","null","","null","","","","","","","","<div style=""background-image: url('./tasks/two-arm-new/img/yellow_planet.png')""><div id=""jspsych-space-daw-top-stim-left"" ></div><div id=""jspsych-space-daw-top-stim-middle"" ></div><div id=""jspsych-space-daw-top-stim-right"" ></div><div style=""clear:both""></div><div id=""jspsych-space-daw-bottom-stim-left"" style=""background-image: url('./tasks/two-arm-new/img/yellow_stim_2_deact.png')""></div><div id=""jspsych-space-daw-bottom-stim-middle"" ></div><div id=""jspsych-space-daw-bottom-stim-right"" class=""jspsych-space-daw-bottom-stim-border"" style=""background-image: url('./tasks/two-arm-new/img/yellow_stim_1.png')""></div></div>","","","","",""
"html-keyboard-response","30","161754","0.0-4.0-4.0-2.1","null","","null","","","","","","","","<div style=""background-image: url('./tasks/two-arm-new/img/yellow_planet.png')""><div id=""jspsych-space-daw-top-stim-left"" ></div><div id=""jspsych-space-daw-top-stim-middle"" ></div><div id=""jspsych-space-daw-top-stim-right"" style=""background-image: url('./tasks/two-arm-new/img/treasure.png')""></div><div style=""clear:both""></div><div id=""jspsych-space-daw-bottom-stim-left"" style=""background-image: url('./tasks/two-arm-new/img/yellow_stim_2_deact.png')""></div><div id=""jspsych-space-daw-bottom-stim-middle"" ></div><div id=""jspsych-space-daw-bottom-stim-right"" class=""jspsych-space-daw-bottom-stim-border"" style=""background-image: url('./tasks/two-arm-new/img/yellow_stim_1.png')""></div></div>","","","","",""
"html-keyboard-response","31","162490","0.0-4.0-4.0-0.2","736","","f","","","","","","","","<div style=""background-image: url('./tasks/two-arm-new/img/yellow_planet.png')""><div id=""jspsych-space-daw-top-stim-left"" ></div><div id=""jspsych-space-daw-top-stim-middle"" ></div><div id=""jspsych-space-daw-top-stim-right"" ></div><div style=""clear:both""></div><div id=""jspsych-space-daw-bottom-stim-left"" style=""background-image: url('./tasks/two-arm-new/img/yellow_stim_1.png')""></div><div id=""jspsych-space-daw-bottom-stim-middle"" ></div><div id=""jspsych-space-daw-bottom-stim-right"" style=""background-image: url('./tasks/two-arm-new/img/yellow_stim_2_deact.png')""></div></div>","bad_alien_practice","2","yellow","1","0"
"html-keyboard-response","32","163001","0.0-4.0-4.0-1.2","null","","null","","","","","","","","<div style=""background-image: url('./tasks/two-arm-new/img/yellow_planet.png')""><div id=""jspsych-space-daw-top-stim-left"" ></div><div id=""jspsych-space-daw-top-stim-middle"" ></div><div id=""jspsych-space-daw-top-stim-right"" ></div><div style=""clear:both""></div><div id=""jspsych-space-daw-bottom-stim-left"" class=""jspsych-space-daw-bottom-stim-border"" style=""background-image: url('./tasks/two-arm-new/img/yellow_stim_1.png')""></div><div id=""jspsych-space-daw-bottom-stim-middle"" ></div><div id=""jspsych-space-daw-bottom-stim-right"" style=""background-image: url('./tasks/two-arm-new/img/yellow_stim_2_deact.png')""></div></div>","","","","",""
"html-keyboard-response","33","164010","0.0-4.0-4.0-2.2","null","","null","","","","","","","","<div style=""background-image: url('./tasks/two-arm-new/img/yellow_planet.png')""><div id=""jspsych-space-daw-top-stim-left"" style=""background-image: url('./tasks/two-arm-new/img/noreward.png')""></div><div id=""jspsych-space-daw-top-stim-middle"" ></div><div id=""jspsych-space-daw-top-stim-right"" ></div><div style=""clear:both""></div><div id=""jspsych-space-daw-bottom-stim-left"" class=""jspsych-space-daw-bottom-stim-border"" style=""background-image: url('./tasks/two-arm-new/img/yellow_stim_1_sad.png')""></div><div id=""jspsych-space-daw-bottom-stim-middle"" ></div><div id=""jspsych-space-daw-bottom-stim-right"" style=""background-image: url('./tasks/two-arm-new/img/yellow_stim_2_deact.png')""></div></div>","","","","",""
"html-keyboard-response","34","164730","0.0-4.0-4.0-0.3","719","","f","","","","","","","","<div style=""background-image: url('./tasks/two-arm-new/img/yellow_planet.png')""><div id=""jspsych-space-daw-top-stim-left"" ></div><div id=""jspsych-space-daw-top-stim-middle"" ></div><div id=""jspsych-space-daw-top-stim-right"" ></div><div style=""clear:both""></div><div id=""jspsych-space-daw-bottom-stim-left"" style=""background-image: url('./tasks/two-arm-new/img/yellow_stim_1.png')""></div><div id=""jspsych-space-daw-bottom-stim-middle"" ></div><div id=""jspsych-space-daw-bottom-stim-right"" style=""background-image: url('./tasks/two-arm-new/img/yellow_stim_2_deact.png')""></div></div>","bad_alien_practice","3","yellow","1","0"
"html-keyboard-response","35","165235","0.0-4.0-4.0-1.3","null","","null","","","","","","","","<div style=""background-image: url('./tasks/two-arm-new/img/yellow_planet.png')""><div id=""jspsych-space-daw-top-stim-left"" ></div><div id=""jspsych-space-daw-top-stim-middle"" ></div><div id=""jspsych-space-daw-top-stim-right"" ></div><div style=""clear:both""></div><div id=""jspsych-space-daw-bottom-stim-left"" class=""jspsych-space-daw-bottom-stim-border"" style=""background-image: url('./tasks/two-arm-new/img/yellow_stim_1.png')""></div><div id=""jspsych-space-daw-bottom-stim-middle"" ></div><div id=""jspsych-space-daw-bottom-stim-right"" style=""background-image: url('./tasks/two-arm-new/img/yellow_stim_2_deact.png')""></div></div>","","","","",""
"html-keyboard-response","36","166247","0.0-4.0-4.0-2.3","null","","null","","","","","","","","<div style=""background-image: url('./tasks/two-arm-new/img/yellow_planet.png')""><div id=""jspsych-space-daw-top-stim-left"" style=""background-image: url('./tasks/two-arm-new/img/noreward.png')""></div><div id=""jspsych-space-daw-top-stim-middle"" ></div><div id=""jspsych-space-daw-top-stim-right"" ></div><div style=""clear:both""></div><div id=""jspsych-space-daw-bottom-stim-left"" class=""jspsych-space-daw-bottom-stim-border"" style=""background-image: url('./tasks/two-arm-new/img/yellow_stim_1_sad.png')""></div><div id=""jspsych-space-daw-bottom-stim-middle"" ></div><div id=""jspsych-space-daw-bottom-stim-right"" style=""background-image: url('./tasks/two-arm-new/img/yellow_stim_2_deact.png')""></div></div>","","","","",""
"html-keyboard-response","37","167002","0.0-4.0-4.0-0.4","754","","f","","","","","","","","<div style=""background-image: url('./tasks/two-arm-new/img/yellow_planet.png')""><div id=""jspsych-space-daw-top-stim-left"" ></div><div id=""jspsych-space-daw-top-stim-middle"" ></div><div id=""jspsych-space-daw-top-stim-right"" ></div><div style=""clear:both""></div><div id=""jspsych-space-daw-bottom-stim-left"" style=""background-image: url('./tasks/two-arm-new/img/yellow_stim_1.png')""></div><div id=""jspsych-space-daw-bottom-stim-middle"" ></div><div id=""jspsych-space-daw-bottom-stim-right"" style=""background-image: url('./tasks/two-arm-new/img/yellow_stim_2_deact.png')""></div></div>","bad_alien_practice","4","yellow","1","0"
"html-keyboard-response","38","167513","0.0-4.0-4.0-1.4","null","","null","","","","","","","","<div style=""background-image: url('./tasks/two-arm-new/img/yellow_planet.png')""><div id=""jspsych-space-daw-top-stim-left"" ></div><div id=""jspsych-space-daw-top-stim-middle"" ></div><div id=""jspsych-space-daw-top-stim-right"" ></div><div style=""clear:both""></div><div id=""jspsych-space-daw-bottom-stim-left"" class=""jspsych-space-daw-bottom-stim-border"" style=""background-image: url('./tasks/two-arm-new/img/yellow_stim_1.png')""></div><div id=""jspsych-space-daw-bottom-stim-middle"" ></div><div id=""jspsych-space-daw-bottom-stim-right"" style=""background-image: url('./tasks/two-arm-new/img/yellow_stim_2_deact.png')""></div></div>","","","","",""
"html-keyboard-response","39","168523","0.0-4.0-4.0-2.4","null","","null","","","","","","","","<div style=""background-image: url('./tasks/two-arm-new/img/yellow_planet.png')""><div id=""jspsych-space-daw-top-stim-left"" style=""background-image: url('./tasks/two-arm-new/img/noreward.png')""></div><div id=""jspsych-space-daw-top-stim-middle"" ></div><div id=""jspsych-space-daw-top-stim-right"" ></div><div style=""clear:both""></div><div id=""jspsych-space-daw-bottom-stim-left"" class=""jspsych-space-daw-bottom-stim-border"" style=""background-image: url('./tasks/two-arm-new/img/yellow_stim_1_sad.png')""></div><div id=""jspsych-space-daw-bottom-stim-middle"" ></div><div id=""jspsych-space-daw-bottom-stim-right"" style=""background-image: url('./tasks/two-arm-new/img/yellow_stim_2_deact.png')""></div></div>","","","","",""
"instructions","40","188762","0.0-4.0-5.0","20238","","","","[{""page_index"":0,""viewing_time"":20238}]","","","","","","","","","","",""
"html-keyboard-response","41","190791","0.0-4.0-6.0-0.0","2029","","j","","","","","","","","<div style=""background-image: url('./tasks/two-arm-new/img/green_planet.png')""><div id=""jspsych-space-daw-top-stim-left"" ></div><div id=""jspsych-space-daw-top-stim-middle"" ></div><div id=""jspsych-space-daw-top-stim-right"" ></div><div style=""clear:both""></div><div id=""jspsych-space-daw-bottom-stim-left"" style=""background-image: url('./tasks/two-arm-new/img/green_stim_2.png')""></div><div id=""jspsych-space-daw-bottom-stim-middle"" ></div><div id=""jspsych-space-daw-bottom-stim-right"" style=""background-image: url('./tasks/two-arm-new/img/green_stim_1.png')""></div></div>","aliens_practice","0","green","1","0"
"html-keyboard-response","42","191302","0.0-4.0-6.0-1.0","null","","null","","","","","","","","<div style=""background-image: url('./tasks/two-arm-new/img/green_planet.png')""><div id=""jspsych-space-daw-top-stim-left"" ></div><div id=""jspsych-space-daw-top-stim-middle"" ></div><div id=""jspsych-space-daw-top-stim-right"" ></div><div style=""clear:both""></div><div id=""jspsych-space-daw-bottom-stim-left"" style=""background-image: url('./tasks/two-arm-new/img/green_stim_2.png')""></div><div id=""jspsych-space-daw-bottom-stim-middle"" ></div><div id=""jspsych-space-daw-bottom-stim-right"" class=""jspsych-space-daw-bottom-stim-border"" style=""background-image: url('./tasks/two-arm-new/img/green_stim_1.png')""></div></div>","","","","",""
"html-keyboard-response","43","192315","0.0-4.0-6.0-2.0","null","","null","","","","","","","","<div style=""background-image: url('./tasks/two-arm-new/img/green_planet.png')""><div id=""jspsych-space-daw-top-stim-left"" ></div><div id=""jspsych-space-daw-top-stim-middle"" ></div><div id=""jspsych-space-daw-top-stim-right"" style=""background-image: url('./tasks/two-arm-new/img/noreward.png')""></div><div style=""clear:both""></div><div id=""jspsych-space-daw-bottom-stim-left"" style=""background-image: url('./tasks/two-arm-new/img/green_stim_2.png')""></div><div id=""jspsych-space-daw-bottom-stim-middle"" ></div><div id=""jspsych-space-daw-bottom-stim-right"" class=""jspsych-space-daw-bottom-stim-border"" style=""background-image: url('./tasks/two-arm-new/img/green_stim_1_sad.png')""></div></div>","","","","",""
"html-keyboard-response","44","193028","0.0-4.0-6.0-0.1","712","","j","","","","","","","","<div style=""background-image: url('./tasks/two-arm-new/img/green_planet.png')""><div id=""jspsych-space-daw-top-stim-left"" ></div><div id=""jspsych-space-daw-top-stim-middle"" ></div><div id=""jspsych-space-daw-top-stim-right"" ></div><div style=""clear:both""></div><div id=""jspsych-space-daw-bottom-stim-left"" style=""background-image: url('./tasks/two-arm-new/img/green_stim_2.png')""></div><div id=""jspsych-space-daw-bottom-stim-middle"" ></div><div id=""jspsych-space-daw-bottom-stim-right"" style=""background-image: url('./tasks/two-arm-new/img/green_stim_1.png')""></div></div>","aliens_practice","1","green","1","0"
"html-keyboard-response","45","193532","0.0-4.0-6.0-1.1","null","","null","","","","","","","","<div style=""background-image: url('./tasks/two-arm-new/img/green_planet.png')""><div id=""jspsych-space-daw-top-stim-left"" ></div><div id=""jspsych-space-daw-top-stim-middle"" ></div><div id=""jspsych-space-daw-top-stim-right"" ></div><div style=""clear:both""></div><div id=""jspsych-space-daw-bottom-stim-left"" style=""background-image: url('./tasks/two-arm-new/img/green_stim_2.png')""></div><div id=""jspsych-space-daw-bottom-stim-middle"" ></div><div id=""jspsych-space-daw-bottom-stim-right"" class=""jspsych-space-daw-bottom-stim-border"" style=""background-image: url('./tasks/two-arm-new/img/green_stim_1.png')""></div></div>","","","","",""
"html-keyboard-response","46","194548","0.0-4.0-6.0-2.1","null","","null","","","","","","","","<div style=""background-image: url('./tasks/two-arm-new/img/green_planet.png')""><div id=""jspsych-space-daw-top-stim-left"" ></div><div id=""jspsych-space-daw-top-stim-middle"" ></div><div id=""jspsych-space-daw-top-stim-right"" style=""background-image: url('./tasks/two-arm-new/img/noreward.png')""></div><div style=""clear:both""></div><div id=""jspsych-space-daw-bottom-stim-left"" style=""background-image: url('./tasks/two-arm-new/img/green_stim_2.png')""></div><div id=""jspsych-space-daw-bottom-stim-middle"" ></div><div id=""jspsych-space-daw-bottom-stim-right"" class=""jspsych-space-daw-bottom-stim-border"" style=""background-image: url('./tasks/two-arm-new/img/green_stim_1_sad.png')""></div></div>","","","","",""
"html-keyboard-response","47","195063","0.0-4.0-6.0-0.2","515","","f","","","","","","","","<div style=""background-image: url('./tasks/two-arm-new/img/green_planet.png')""><div id=""jspsych-space-daw-top-stim-left"" ></div><div id=""jspsych-space-daw-top-stim-middle"" ></div><div id=""jspsych-space-daw-top-stim-right"" ></div><div style=""clear:both""></div><div id=""jspsych-space-daw-bottom-stim-left"" style=""background-image: url('./tasks/two-arm-new/img/green_stim_2.png')""></div><div id=""jspsych-space-daw-bottom-stim-middle"" ></div><div id=""jspsych-space-daw-bottom-stim-right"" style=""background-image: url('./tasks/two-arm-new/img/green_stim_1.png')""></div></div>","aliens_practice","2","green","2","1"
"html-keyboard-response","48","195576","0.0-4.0-6.0-1.2","null","","null","","","","","","","","<div style=""background-image: url('./tasks/two-arm-new/img/green_planet.png')""><div id=""jspsych-space-daw-top-stim-left"" ></div><div id=""jspsych-space-daw-top-stim-middle"" ></div><div id=""jspsych-space-daw-top-stim-right"" ></div><div style=""clear:both""></div><div id=""jspsych-space-daw-bottom-stim-left"" class=""jspsych-space-daw-bottom-stim-border"" style=""background-image: url('./tasks/two-arm-new/img/green_stim_2.png')""></div><div id=""jspsych-space-daw-bottom-stim-middle"" ></div><div id=""jspsych-space-daw-bottom-stim-right"" style=""background-image: url('./tasks/two-arm-new/img/green_stim_1.png')""></div></div>","","","","",""
"html-keyboard-response","49","196588","0.0-4.0-6.0-2.2","null","","null","","","","","","","","<div style=""background-image: url('./tasks/two-arm-new/img/green_planet.png')""><div id=""jspsych-space-daw-top-stim-left"" style=""background-image: url('./tasks/two-arm-new/img/treasure.png')""></div><div id=""jspsych-space-daw-top-stim-middle"" ></div><div id=""jspsych-space-daw-top-stim-right"" ></div><div style=""clear:both""></div><div id=""jspsych-space-daw-bottom-stim-left"" class=""jspsych-space-daw-bottom-stim-border"" style=""background-image: url('./tasks/two-arm-new/img/green_stim_2.png')""></div><div id=""jspsych-space-daw-bottom-stim-middle"" ></div><div id=""jspsych-space-daw-bottom-stim-right"" style=""background-image: url('./tasks/two-arm-new/img/green_stim_1.png')""></div></div>","","","","",""
"html-keyboard-response","50","197214","0.0-4.0-6.0-0.3","625","","j","","","","","","","","<div style=""background-image: url('./tasks/two-arm-new/img/green_planet.png')""><div id=""jspsych-space-daw-top-stim-left"" ></div><div id=""jspsych-space-daw-top-stim-middle"" ></div><div id=""jspsych-space-daw-top-stim-right"" ></div><div style=""clear:both""></div><div id=""jspsych-space-daw-bottom-stim-left"" style=""background-image: url('./tasks/two-arm-new/img/green_stim_1.png')""></div><div id=""jspsych-space-daw-bottom-stim-middle"" ></div><div id=""jspsych-space-daw-bottom-stim-right"" style=""background-image: url('./tasks/two-arm-new/img/green_stim_2.png')""></div></div>","aliens_practice","3","green","2","1"
"html-keyboard-response","51","197724","0.0-4.0-6.0-1.3","null","","null","","","","","","","","<div style=""background-image: url('./tasks/two-arm-new/img/green_planet.png')""><div id=""jspsych-space-daw-top-stim-left"" ></div><div id=""jspsych-space-daw-top-stim-middle"" ></div><div id=""jspsych-space-daw-top-stim-right"" ></div><div style=""clear:both""></div><div id=""jspsych-space-daw-bottom-stim-left"" style=""background-image: url('./tasks/two-arm-new/img/green_stim_1.png')""></div><div id=""jspsych-space-daw-bottom-stim-middle"" ></div><div id=""jspsych-space-daw-bottom-stim-right"" class=""jspsych-space-daw-bottom-stim-border"" style=""background-image: url('./tasks/two-arm-new/img/green_stim_2.png')""></div></div>","","","","",""
"html-keyboard-response","52","198736","0.0-4.0-6.0-2.3","null","","null","","","","","","","","<div style=""background-image: url('./tasks/two-arm-new/img/green_planet.png')""><div id=""jspsych-space-daw-top-stim-left"" ></div><div id=""jspsych-space-daw-top-stim-middle"" ></div><div id=""jspsych-space-daw-top-stim-right"" style=""background-image: url('./tasks/two-arm-new/img/treasure.png')""></div><div style=""clear:both""></div><div id=""jspsych-space-daw-bottom-stim-left"" style=""background-image: url('./tasks/two-arm-new/img/green_stim_1.png')""></div><div id=""jspsych-space-daw-bottom-stim-middle"" ></div><div id=""jspsych-space-daw-bottom-stim-right"" class=""jspsych-space-daw-bottom-stim-border"" style=""background-image: url('./tasks/two-arm-new/img/green_stim_2.png')""></div></div>","","","","",""
"html-keyboard-response","53","199334","0.0-4.0-6.0-0.4","598","","j","","","","","","","","<div style=""background-image: url('./tasks/two-arm-new/img/green_planet.png')""><div id=""jspsych-space-daw-top-stim-left"" ></div><div id=""jspsych-space-daw-top-stim-middle"" ></div><div id=""jspsych-space-daw-top-stim-right"" ></div><div style=""clear:both""></div><div id=""jspsych-space-daw-bottom-stim-left"" style=""background-image: url('./tasks/two-arm-new/img/green_stim_1.png')""></div><div id=""jspsych-space-daw-bottom-stim-middle"" ></div><div id=""jspsych-space-daw-bottom-stim-right"" style=""background-image: url('./tasks/two-arm-new/img/green_stim_2.png')""></div></div>","aliens_practice","4","green","2","1"
"html-keyboard-response","54","199843","0.0-4.0-6.0-1.4","null","","null","","","","","","","","<div style=""background-image: url('./tasks/two-arm-new/img/green_planet.png')""><div id=""jspsych-space-daw-top-stim-left"" ></div><div id=""jspsych-space-daw-top-stim-middle"" ></div><div id=""jspsych-space-daw-top-stim-right"" ></div><div style=""clear:both""></div><div id=""jspsych-space-daw-bottom-stim-left"" style=""background-image: url('./tasks/two-arm-new/img/green_stim_1.png')""></div><div id=""jspsych-space-daw-bottom-stim-middle"" ></div><div id=""jspsych-space-daw-bottom-stim-right"" class=""jspsych-space-daw-bottom-stim-border"" style=""background-image: url('./tasks/two-arm-new/img/green_stim_2.png')""></div></div>","","","","",""
"html-keyboard-response","55","200856","0.0-4.0-6.0-2.4","null","","null","","","","","","","","<div style=""background-image: url('./tasks/two-arm-new/img/green_planet.png')""><div id=""jspsych-space-daw-top-stim-left"" ></div><div id=""jspsych-space-daw-top-stim-middle"" ></div><div id=""jspsych-space-daw-top-stim-right"" style=""background-image: url('./tasks/two-arm-new/img/treasure.png')""></div><div style=""clear:both""></div><div id=""jspsych-space-daw-bottom-stim-left"" style=""background-image: url('./tasks/two-arm-new/img/green_stim_1.png')""></div><div id=""jspsych-space-daw-bottom-stim-middle"" ></div><div id=""jspsych-space-daw-bottom-stim-right"" class=""jspsych-space-daw-bottom-stim-border"" style=""background-image: url('./tasks/two-arm-new/img/green_stim_2.png')""></div></div>","","","","",""
