"trial_type","trial_index","time_elapsed","internal_node_id","subject_id","study_id","session_id","rt","url","response","question_order","view_history","success","timeout","failed_images","failed_audio","failed_video","stimulus","block","trial_number","jar","bead","previous_bead","choice","correct","lowH_score","highH_score","state","rewarded","state1_action","state2_visited","state1_key","state2_key","state1_rt","state2_rt","block_num","seq_file","trial_seq_info","two_arm_score_block1","two_arm_score_block2","two_arm_score_total","total_bonus"
"pavlovia","0","1169","0.0-0.0","5d1765dbe784250019adf3ed","63690f60c96a0a9a64b48fbc","63691dbc32adbdaa10094e8d","","","","","","","","","","","","","","","","","","","","","","","","","","","","","","","","","","",""
"external-html","1","44906","0.0-1.0-0.0","5d1765dbe784250019adf3ed","63690f60c96a0a9a64b48fbc","63691dbc32adbdaa10094e8d","43611","new_consent.html","","","","","","","","","","","","","","","","","","","","","","","","","","","","","","","","",""
"survey-multi-choice","2","54482","0.0-1.0-1.0","5d1765dbe784250019adf3ed","63690f60c96a0a9a64b48fbc","63691dbc32adbdaa10094e8d","9575","","{""Q0"":""Male"",""Q1"":""White""}","[0,1]","","","","","","","","","","","","","","","","","","","","","","","","","","","","","","",""
"survey-text","3","57959","0.0-1.0-2.0","5d1765dbe784250019adf3ed","63690f60c96a0a9a64b48fbc","63691dbc32adbdaa10094e8d","3475","","{""Q0"":""28""}","","","","","","","","","","","","","","","","","","","","","","","","","","","","","","","",""
"instructions","4","95453","0.0-2.0","5d1765dbe784250019adf3ed","63690f60c96a0a9a64b48fbc","63691dbc32adbdaa10094e8d","37384","","","","[{""page_index"":0,""viewing_time"":30073},{""page_index"":1,""viewing_time"":7311}]","","","","","","","","","","","","","","","","","","","","","","","","","","","","","",""
"instructions","5","97337","0.0-3.0","5d1765dbe784250019adf3ed","63690f60c96a0a9a64b48fbc","63691dbc32adbdaa10094e8d","1883","","","","[{""page_index"":0,""viewing_time"":1883}]","","","","","","","","","","","","","","","","","","","","","","","","","","","","","",""
"preload","6","98434","0.0-4.0-0.0","5d1765dbe784250019adf3ed","63690f60c96a0a9a64b48fbc","63691dbc32adbdaa10094e8d","","","","","","true","false","[]","[]","[]","","","","","","","","","","","","","","","","","","","","","","","","",""
"instructions","7","248368","0.0-4.0-1.0","5d1765dbe784250019adf3ed","63690f60c96a0a9a64b48fbc","63691dbc32adbdaa10094e8d","149934","","","","[{""page_index"":0,""viewing_time"":23512},{""page_index"":1,""viewing_time"":12939},{""page_index"":2,""viewing_time"":6360},{""page_index"":3,""viewing_time"":4365},{""page_index"":4,""viewing_time"":12482},{""page_index"":5,""viewing_time"":30041},{""page_index"":6,""viewing_time"":10631},{""page_index"":7,""viewing_time"":8047},{""page_index"":8,""viewing_time"":9414},{""page_index"":9,""viewing_time"":13396},{""page_index"":10,""viewing_time"":13478},{""page_index"":11,""viewing_time"":5269}]","","","","","","","","","","","","","","","","","","","","","","","","","","","","","",""
"html-button-response","8","254700","0.0-4.0-2.0-0.0-0.0","5d1765dbe784250019adf3ed","63690f60c96a0a9a64b48fbc","63691dbc32adbdaa10094e8d","6332","","1","","","","","","","","<div align=center>Your goal is to predict…?<br><br></div>","","","","","","","","","","","","","","","","","","","","","","","",""
"html-button-response","9","263396","0.0-4.0-2.0-1.0-0.0","5d1765dbe784250019adf3ed","63690f60c96a0a9a64b48fbc","63691dbc32adbdaa10094e8d","7011","","2","","","","","","","","<div align=center>In the jar with mostly white beads, there are ___% white beads and ___% black beads?<br><br></div>","","","","","","","","","","","","","","","","","","","","","","","",""
"html-button-response","10","282895","0.0-4.0-2.0-2.0-0.0","5d1765dbe784250019adf3ed","63690f60c96a0a9a64b48fbc","63691dbc32adbdaa10094e8d","18226","","0","","","","","","","","<div align=center>When there is a 1% probability that the jars will switch, the next bead will most likely be drawn from the…<br><br></div>","","","","","","","","","","","","","","","","","","","","","","","",""
"html-button-response","11","289704","0.0-4.0-2.0-3.0-0.0","5d1765dbe784250019adf3ed","63690f60c96a0a9a64b48fbc","63691dbc32adbdaa10094e8d","5725","","1","","","","","","","","<div align=center>When there is a 99% probability that the jars will switch, the next bead will most likely be drawn from the…<br><br></div>","","","","","","","","","","","","","","","","","","","","","","","",""
"instructions","12","302310","0.0-4.0-3.0","5d1765dbe784250019adf3ed","63690f60c96a0a9a64b48fbc","63691dbc32adbdaa10094e8d","11694","","","","[{""page_index"":0,""viewing_time"":11694}]","","","","","","","","","","","","","","","","","","","","","","","","","","","","","",""
"html-keyboard-response","13","315274","0.0-4.0-4.0-0.0","5d1765dbe784250019adf3ed","63690f60c96a0a9a64b48fbc","63691dbc32adbdaa10094e8d","12964",""," ","","","","","","","","<div align=center>In this practice block, there will be a <b>10% chance</b> that the jar on the next trial will be different from the jar on the current trial.<br><br></div>","","","","","","","","","","","","","","","","","","","","","","","",""
"image-keyboard-response","14","319913","0.0-4.0-4.0-1.0-0.0","5d1765dbe784250019adf3ed","63690f60c96a0a9a64b48fbc","63691dbc32adbdaa10094e8d","4635","","f","","","","","","","","./tasks/HMM-beads/Images/NoChoice.png","practice","0","1","1","0","1","true","","","","","","","","","","","","","","","","",""
"image-keyboard-response","15","320231","0.0-4.0-4.0-1.0-1.0","5d1765dbe784250019adf3ed","63690f60c96a0a9a64b48fbc","63691dbc32adbdaa10094e8d","null","","null","","","","","","","","./tasks/HMM-beads/Images/BlackBeadChoice.png","","","","","","","","","","","","","","","","","","","","","","","",""
"image-keyboard-response","16","320751","0.0-4.0-4.0-1.0-2.0","5d1765dbe784250019adf3ed","63690f60c96a0a9a64b48fbc","63691dbc32adbdaa10094e8d","null","","null","","","","","","","","./tasks/HMM-beads/Images/BlackBeadChoiceCorrect.png","","","","","","","","","","","","","","","","","","","","","","","",""
"image-keyboard-response","17","324896","0.0-4.0-4.0-1.0-0.1","5d1765dbe784250019adf3ed","63690f60c96a0a9a64b48fbc","63691dbc32adbdaa10094e8d","4144","","f","","","","","","","","./tasks/HMM-beads/Images/NewTrialBC.png","practice","1","1","1","1","1","true","","","","","","","","","","","","","","","","",""
"image-keyboard-response","18","325204","0.0-4.0-4.0-1.0-1.1","5d1765dbe784250019adf3ed","63690f60c96a0a9a64b48fbc","63691dbc32adbdaa10094e8d","null","","null","","","","","","","","./tasks/HMM-beads/Images/BlackBeadChoice.png","","","","","","","","","","","","","","","","","","","","","","","",""
"image-keyboard-response","19","325725","0.0-4.0-4.0-1.0-2.1","5d1765dbe784250019adf3ed","63690f60c96a0a9a64b48fbc","63691dbc32adbdaa10094e8d","null","","null","","","","","","","","./tasks/HMM-beads/Images/BlackBeadChoiceCorrect.png","","","","","","","","","","","","","","","","","","","","","","","",""
"image-keyboard-response","20","328548","0.0-4.0-4.0-1.0-0.2","5d1765dbe784250019adf3ed","63690f60c96a0a9a64b48fbc","63691dbc32adbdaa10094e8d","2823","","f","","","","","","","","./tasks/HMM-beads/Images/NewTrialBC.png","practice","2","1","2","1","1","false","","","","","","","","","","","","","","","","",""
"image-keyboard-response","21","328859","0.0-4.0-4.0-1.0-1.2","5d1765dbe784250019adf3ed","63690f60c96a0a9a64b48fbc","63691dbc32adbdaa10094e8d","null","","null","","","","","","","","./tasks/HMM-beads/Images/BlackBeadChoice.png","","","","","","","","","","","","","","","","","","","","","","","",""
"image-keyboard-response","22","329367","0.0-4.0-4.0-1.0-2.2","5d1765dbe784250019adf3ed","63690f60c96a0a9a64b48fbc","63691dbc32adbdaa10094e8d","null","","null","","","","","","","","./tasks/HMM-beads/Images/BlackBeadChoiceWrong.png","","","","","","","","","","","","","","","","","","","","","","","",""
"image-keyboard-response","23","331541","0.0-4.0-4.0-1.0-0.3","5d1765dbe784250019adf3ed","63690f60c96a0a9a64b48fbc","63691dbc32adbdaa10094e8d","2173","","j","","","","","","","","./tasks/HMM-beads/Images/NewTrialWC.png","practice","3","1","1","2","2","false","","","","","","","","","","","","","","","","",""
"image-keyboard-response","24","331851","0.0-4.0-4.0-1.0-1.3","5d1765dbe784250019adf3ed","63690f60c96a0a9a64b48fbc","63691dbc32adbdaa10094e8d","null","","null","","","","","","","","./tasks/HMM-beads/Images/WhiteBeadChoice.png","","","","","","","","","","","","","","","","","","","","","","","",""
"image-keyboard-response","25","332355","0.0-4.0-4.0-1.0-2.3","5d1765dbe784250019adf3ed","63690f60c96a0a9a64b48fbc","63691dbc32adbdaa10094e8d","null","","null","","","","","","","","./tasks/HMM-beads/Images/WhiteBeadChoiceWrong.png","","","","","","","","","","","","","","","","","","","","","","","",""
"image-keyboard-response","26","335826","0.0-4.0-4.0-1.0-0.4","5d1765dbe784250019adf3ed","63690f60c96a0a9a64b48fbc","63691dbc32adbdaa10094e8d","3470","","f","","","","","","","","./tasks/HMM-beads/Images/NewTrialBC.png","practice","4","1","2","1","1","false","","","","","","","","","","","","","","","","",""
"image-keyboard-response","27","336142","0.0-4.0-4.0-1.0-1.4","5d1765dbe784250019adf3ed","63690f60c96a0a9a64b48fbc","63691dbc32adbdaa10094e8d","null","","null","","","","","","","","./tasks/HMM-beads/Images/BlackBeadChoice.png","","","","","","","","","","","","","","","","","","","","","","","",""
"image-keyboard-response","28","336659","0.0-4.0-4.0-1.0-2.4","5d1765dbe784250019adf3ed","63690f60c96a0a9a64b48fbc","63691dbc32adbdaa10094e8d","null","","null","","","","","","","","./tasks/HMM-beads/Images/BlackBeadChoiceWrong.png","","","","","","","","","","","","","","","","","","","","","","","",""
"image-keyboard-response","29","339535","0.0-4.0-4.0-1.0-0.5","5d1765dbe784250019adf3ed","63690f60c96a0a9a64b48fbc","63691dbc32adbdaa10094e8d","2875","","j","","","","","","","","./tasks/HMM-beads/Images/NewTrialWC.png","practice","5","1","1","2","2","false","","","","","","","","","","","","","","","","",""
"image-keyboard-response","30","339853","0.0-4.0-4.0-1.0-1.5","5d1765dbe784250019adf3ed","63690f60c96a0a9a64b48fbc","63691dbc32adbdaa10094e8d","null","","null","","","","","","","","./tasks/HMM-beads/Images/WhiteBeadChoice.png","","","","","","","","","","","","","","","","","","","","","","","",""
"image-keyboard-response","31","340371","0.0-4.0-4.0-1.0-2.5","5d1765dbe784250019adf3ed","63690f60c96a0a9a64b48fbc","63691dbc32adbdaa10094e8d","null","","null","","","","","","","","./tasks/HMM-beads/Images/WhiteBeadChoiceWrong.png","","","","","","","","","","","","","","","","","","","","","","","",""
"image-keyboard-response","32","342645","0.0-4.0-4.0-1.0-0.6","5d1765dbe784250019adf3ed","63690f60c96a0a9a64b48fbc","63691dbc32adbdaa10094e8d","2274","","j","","","","","","","","./tasks/HMM-beads/Images/NewTrialBC.png","practice","6","1","2","1","2","true","","","","","","","","","","","","","","","","",""
"image-keyboard-response","33","342965","0.0-4.0-4.0-1.0-1.6","5d1765dbe784250019adf3ed","63690f60c96a0a9a64b48fbc","63691dbc32adbdaa10094e8d","null","","null","","","","","","","","./tasks/HMM-beads/Images/WhiteBeadChoice.png","","","","","","","","","","","","","","","","","","","","","","","",""
"image-keyboard-response","34","343485","0.0-4.0-4.0-1.0-2.6","5d1765dbe784250019adf3ed","63690f60c96a0a9a64b48fbc","63691dbc32adbdaa10094e8d","null","","null","","","","","","","","./tasks/HMM-beads/Images/WhiteBeadChoiceCorrect.png","","","","","","","","","","","","","","","","","","","","","","","",""
"image-keyboard-response","35","346203","0.0-4.0-4.0-1.0-0.7","5d1765dbe784250019adf3ed","63690f60c96a0a9a64b48fbc","63691dbc32adbdaa10094e8d","2717","","j","","","","","","","","./tasks/HMM-beads/Images/NewTrialWC.png","practice","7","1","1","2","2","false","","","","","","","","","","","","","","","","",""
"image-keyboard-response","36","346511","0.0-4.0-4.0-1.0-1.7","5d1765dbe784250019adf3ed","63690f60c96a0a9a64b48fbc","63691dbc32adbdaa10094e8d","null","","null","","","","","","","","./tasks/HMM-beads/Images/WhiteBeadChoice.png","","","","","","","","","","","","","","","","","","","","","","","",""
"image-keyboard-response","37","347017","0.0-4.0-4.0-1.0-2.7","5d1765dbe784250019adf3ed","63690f60c96a0a9a64b48fbc","63691dbc32adbdaa10094e8d","null","","null","","","","","","","","./tasks/HMM-beads/Images/WhiteBeadChoiceWrong.png","","","","","","","","","","","","","","","","","","","","","","","",""
"image-keyboard-response","38","349049","0.0-4.0-4.0-1.0-0.8","5d1765dbe784250019adf3ed","63690f60c96a0a9a64b48fbc","63691dbc32adbdaa10094e8d","2031","","j","","","","","","","","./tasks/HMM-beads/Images/NewTrialBC.png","practice","8","1","1","1","2","false","","","","","","","","","","","","","","","","",""
"image-keyboard-response","39","349354","0.0-4.0-4.0-1.0-1.8","5d1765dbe784250019adf3ed","63690f60c96a0a9a64b48fbc","63691dbc32adbdaa10094e8d","null","","null","","","","","","","","./tasks/HMM-beads/Images/WhiteBeadChoice.png","","","","","","","","","","","","","","","","","","","","","","","",""
"image-keyboard-response","40","349860","0.0-4.0-4.0-1.0-2.8","5d1765dbe784250019adf3ed","63690f60c96a0a9a64b48fbc","63691dbc32adbdaa10094e8d","null","","null","","","","","","","","./tasks/HMM-beads/Images/WhiteBeadChoiceWrong.png","","","","","","","","","","","","","","","","","","","","","","","",""
"image-keyboard-response","41","350301","0.0-4.0-4.0-1.0-0.9","5d1765dbe784250019adf3ed","63690f60c96a0a9a64b48fbc","63691dbc32adbdaa10094e8d","440","","f","","","","","","","","./tasks/HMM-beads/Images/NewTrialBC.png","practice","9","2","2","1","1","false","","","","","","","","","","","","","","","","",""
"image-keyboard-response","42","350620","0.0-4.0-4.0-1.0-1.9","5d1765dbe784250019adf3ed","63690f60c96a0a9a64b48fbc","63691dbc32adbdaa10094e8d","null","","null","","","","","","","","./tasks/HMM-beads/Images/BlackBeadChoice.png","","","","","","","","","","","","","","","","","","","","","","","",""
"image-keyboard-response","43","351124","0.0-4.0-4.0-1.0-2.9","5d1765dbe784250019adf3ed","63690f60c96a0a9a64b48fbc","63691dbc32adbdaa10094e8d","null","","null","","","","","","","","./tasks/HMM-beads/Images/BlackBeadChoiceWrong.png","","","","","","","","","","","","","","","","","","","","","","","",""
"image-keyboard-response","44","354602","0.0-4.0-4.0-1.0-0.10","5d1765dbe784250019adf3ed","63690f60c96a0a9a64b48fbc","63691dbc32adbdaa10094e8d","3477","","f","","","","","","","","./tasks/HMM-beads/Images/NewTrialWC.png","practice","10","2","1","2","1","true","","","","","","","","","","","","","","","","",""
"image-keyboard-response","45","354906","0.0-4.0-4.0-1.0-1.10","5d1765dbe784250019adf3ed","63690f60c96a0a9a64b48fbc","63691dbc32adbdaa10094e8d","null","","null","","","","","","","","./tasks/HMM-beads/Images/BlackBeadChoice.png","","","","","","","","","","","","","","","","","","","","","","","",""
"image-keyboard-response","46","355409","0.0-4.0-4.0-1.0-2.10","5d1765dbe784250019adf3ed","63690f60c96a0a9a64b48fbc","63691dbc32adbdaa10094e8d","null","","null","","","","","","","","./tasks/HMM-beads/Images/BlackBeadChoiceCorrect.png","","","","","","","","","","","","","","","","","","","","","","","",""
"image-keyboard-response","47","356294","0.0-4.0-4.0-1.0-0.11","5d1765dbe784250019adf3ed","63690f60c96a0a9a64b48fbc","63691dbc32adbdaa10094e8d","885","","f","","","","","","","","./tasks/HMM-beads/Images/NewTrialBC.png","practice","11","2","2","1","1","false","","","","","","","","","","","","","","","","",""
"image-keyboard-response","48","356602","0.0-4.0-4.0-1.0-1.11","5d1765dbe784250019adf3ed","63690f60c96a0a9a64b48fbc","63691dbc32adbdaa10094e8d","null","","null","","","","","","","","./tasks/HMM-beads/Images/BlackBeadChoice.png","","","","","","","","","","","","","","","","","","","","","","","",""
"image-keyboard-response","49","357107","0.0-4.0-4.0-1.0-2.11","5d1765dbe784250019adf3ed","63690f60c96a0a9a64b48fbc","63691dbc32adbdaa10094e8d","null","","null","","","","","","","","./tasks/HMM-beads/Images/BlackBeadChoiceWrong.png","","","","","","","","","","","","","","","","","","","","","","","",""
"image-keyboard-response","50","360409","0.0-4.0-4.0-1.0-0.12","5d1765dbe784250019adf3ed","63690f60c96a0a9a64b48fbc","63691dbc32adbdaa10094e8d","3302","","j","","","","","","","","./tasks/HMM-beads/Images/NewTrialWC.png","practice","12","2","2","2","2","true","","","","","","","","","","","","","","","","",""
"image-keyboard-response","51","360728","0.0-4.0-4.0-1.0-1.12","5d1765dbe784250019adf3ed","63690f60c96a0a9a64b48fbc","63691dbc32adbdaa10094e8d","null","","null","","","","","","","","./tasks/HMM-beads/Images/WhiteBeadChoice.png","","","","","","","","","","","","","","","","","","","","","","","",""
"image-keyboard-response","52","361248","0.0-4.0-4.0-1.0-2.12","5d1765dbe784250019adf3ed","63690f60c96a0a9a64b48fbc","63691dbc32adbdaa10094e8d","null","","null","","","","","","","","./tasks/HMM-beads/Images/WhiteBeadChoiceCorrect.png","","","","","","","","","","","","","","","","","","","","","","","",""
"image-keyboard-response","53","362599","0.0-4.0-4.0-1.0-0.13","5d1765dbe784250019adf3ed","63690f60c96a0a9a64b48fbc","63691dbc32adbdaa10094e8d","1351","","j","","","","","","","","./tasks/HMM-beads/Images/NewTrialWC.png","practice","13","2","2","2","2","true","","","","","","","","","","","","","","","","",""
"image-keyboard-response","54","362913","0.0-4.0-4.0-1.0-1.13","5d1765dbe784250019adf3ed","63690f60c96a0a9a64b48fbc","63691dbc32adbdaa10094e8d","null","","null","","","","","","","","./tasks/HMM-beads/Images/WhiteBeadChoice.png","","","","","","","","","","","","","","","","","","","","","","","",""
"image-keyboard-response","55","363430","0.0-4.0-4.0-1.0-2.13","5d1765dbe784250019adf3ed","63690f60c96a0a9a64b48fbc","63691dbc32adbdaa10094e8d","null","","null","","","","","","","","./tasks/HMM-beads/Images/WhiteBeadChoiceCorrect.png","","","","","","","","","","","","","","","","","","","","","","","",""
"image-keyboard-response","56","364890","0.0-4.0-4.0-1.0-0.14","5d1765dbe784250019adf3ed","63690f60c96a0a9a64b48fbc","63691dbc32adbdaa10094e8d","1459","","f","","","","","","","","./tasks/HMM-beads/Images/NewTrialWC.png","practice","14","2","2","2","1","false","","","","","","","","","","","","","","","","",""
"image-keyboard-response","57","365208","0.0-4.0-4.0-1.0-1.14","5d1765dbe784250019adf3ed","63690f60c96a0a9a64b48fbc","63691dbc32adbdaa10094e8d","null","","null","","","","","","","","./tasks/HMM-beads/Images/BlackBeadChoice.png","","","","","","","","","","","","","","","","","","","","","","","",""
"image-keyboard-response","58","365728","0.0-4.0-4.0-1.0-2.14","5d1765dbe784250019adf3ed","63690f60c96a0a9a64b48fbc","63691dbc32adbdaa10094e8d","null","","null","","","","","","","","./tasks/HMM-beads/Images/BlackBeadChoiceWrong.png","","","","","","","","","","","","","","","","","","","","","","","",""
"image-keyboard-response","59","366850","0.0-4.0-4.0-1.0-0.15","5d1765dbe784250019adf3ed","63690f60c96a0a9a64b48fbc","63691dbc32adbdaa10094e8d","1122","","j","","","","","","","","./tasks/HMM-beads/Images/NewTrialWC.png","practice","15","1","1","2","2","false","","","","","","","","","","","","","","","","",""
"image-keyboard-response","60","367160","0.0-4.0-4.0-1.0-1.15","5d1765dbe784250019adf3ed","63690f60c96a0a9a64b48fbc","63691dbc32adbdaa10094e8d","null","","null","","","","","","","","./tasks/HMM-beads/Images/WhiteBeadChoice.png","","","","","","","","","","","","","","","","","","","","","","","",""
"image-keyboard-response","61","367673","0.0-4.0-4.0-1.0-2.15","5d1765dbe784250019adf3ed","63690f60c96a0a9a64b48fbc","63691dbc32adbdaa10094e8d","null","","null","","","","","","","","./tasks/HMM-beads/Images/WhiteBeadChoiceWrong.png","","","","","","","","","","","","","","","","","","","","","","","",""
"image-keyboard-response","62","369717","0.0-4.0-4.0-1.0-0.16","5d1765dbe784250019adf3ed","63690f60c96a0a9a64b48fbc","63691dbc32adbdaa10094e8d","2043","","j","","","","","","","","./tasks/HMM-beads/Images/NewTrialBC.png","practice","16","1","2","1","2","true","","","","","","","","","","","","","","","","",""
"image-keyboard-response","63","370028","0.0-4.0-4.0-1.0-1.16","5d1765dbe784250019adf3ed","63690f60c96a0a9a64b48fbc","63691dbc32adbdaa10094e8d","null","","null","","","","","","","","./tasks/HMM-beads/Images/WhiteBeadChoice.png","","","","","","","","","","","","","","","","","","","","","","","",""
"image-keyboard-response","64","370551","0.0-4.0-4.0-1.0-2.16","5d1765dbe784250019adf3ed","63690f60c96a0a9a64b48fbc","63691dbc32adbdaa10094e8d","null","","null","","","","","","","","./tasks/HMM-beads/Images/WhiteBeadChoiceCorrect.png","","","","","","","","","","","","","","","","","","","","","","","",""
"image-keyboard-response","65","372086","0.0-4.0-4.0-1.0-0.17","5d1765dbe784250019adf3ed","63690f60c96a0a9a64b48fbc","63691dbc32adbdaa10094e8d","1535","","j","","","","","","","","./tasks/HMM-beads/Images/NewTrialWC.png","practice","17","1","1","2","2","false","","","","","","","","","","","","","","","","",""
"image-keyboard-response","66","372397","0.0-4.0-4.0-1.0-1.17","5d1765dbe784250019adf3ed","63690f60c96a0a9a64b48fbc","63691dbc32adbdaa10094e8d","null","","null","","","","","","","","./tasks/HMM-beads/Images/WhiteBeadChoice.png","","","","","","","","","","","","","","","","","","","","","","","",""
"image-keyboard-response","67","372918","0.0-4.0-4.0-1.0-2.17","5d1765dbe784250019adf3ed","63690f60c96a0a9a64b48fbc","63691dbc32adbdaa10094e8d","null","","null","","","","","","","","./tasks/HMM-beads/Images/WhiteBeadChoiceWrong.png","","","","","","","","","","","","","","","","","","","","","","","",""
"image-keyboard-response","68","373555","0.0-4.0-4.0-1.0-0.18","5d1765dbe784250019adf3ed","63690f60c96a0a9a64b48fbc","63691dbc32adbdaa10094e8d","637","","f","","","","","","","","./tasks/HMM-beads/Images/NewTrialBC.png","practice","18","1","1","1","1","true","","","","","","","","","","","","","","","","",""
"image-keyboard-response","69","373873","0.0-4.0-4.0-1.0-1.18","5d1765dbe784250019adf3ed","63690f60c96a0a9a64b48fbc","63691dbc32adbdaa10094e8d","null","","null","","","","","","","","./tasks/HMM-beads/Images/BlackBeadChoice.png","","","","","","","","","","","","","","","","","","","","","","","",""
"image-keyboard-response","70","374381","0.0-4.0-4.0-1.0-2.18","5d1765dbe784250019adf3ed","63690f60c96a0a9a64b48fbc","63691dbc32adbdaa10094e8d","null","","null","","","","","","","","./tasks/HMM-beads/Images/BlackBeadChoiceCorrect.png","","","","","","","","","","","","","","","","","","","","","","","",""
"image-keyboard-response","71","375736","0.0-4.0-4.0-1.0-0.19","5d1765dbe784250019adf3ed","63690f60c96a0a9a64b48fbc","63691dbc32adbdaa10094e8d","1354","","f","","","","","","","","./tasks/HMM-beads/Images/NewTrialBC.png","practice","19","1","1","1","1","true","","","","","","","","","","","","","","","","",""
"image-keyboard-response","72","376053","0.0-4.0-4.0-1.0-1.19","5d1765dbe784250019adf3ed","63690f60c96a0a9a64b48fbc","63691dbc32adbdaa10094e8d","null","","null","","","","","","","","./tasks/HMM-beads/Images/BlackBeadChoice.png","","","","","","","","","","","","","","","","","","","","","","","",""
"image-keyboard-response","73","376573","0.0-4.0-4.0-1.0-2.19","5d1765dbe784250019adf3ed","63690f60c96a0a9a64b48fbc","63691dbc32adbdaa10094e8d","null","","null","","","","","","","","./tasks/HMM-beads/Images/BlackBeadChoiceCorrect.png","","","","","","","","","","","","","","","","","","","","","","","",""
"html-keyboard-response","74","380822","0.0-4.0-4.0-2.0","5d1765dbe784250019adf3ed","63690f60c96a0a9a64b48fbc","63691dbc32adbdaa10094e8d","4248",""," ","","","","","","","","","","","","","","","","","","","","","","","","","","","","","","","",""
"instructions","75","413496","0.0-4.0-5.0","5d1765dbe784250019adf3ed","63690f60c96a0a9a64b48fbc","63691dbc32adbdaa10094e8d","32674","","","","[{""page_index"":0,""viewing_time"":27627},{""page_index"":1,""viewing_time"":5047}]","","","","","","","","","","","","","","","","","","","","","","","","","","","","","",""
"html-keyboard-response","76","425410","0.0-4.0-6.0-0.0","5d1765dbe784250019adf3ed","63690f60c96a0a9a64b48fbc","63691dbc32adbdaa10094e8d","11914",""," ","","","","","","","","<div align=center>In this block, there will be a <b>1% chance</b> that the jar on the next trial will be different from the jar on the current trial.<br><br></div>","","","","","","","","","","","","","","","","","","","","","","","",""
"image-keyboard-response","77","426995","0.0-4.0-6.0-1.0-0.0","5d1765dbe784250019adf3ed","63690f60c96a0a9a64b48fbc","63691dbc32adbdaa10094e8d","1584","","f","","","","","","","","./tasks/HMM-beads/Images/NoChoice.png","lowH","0","2","2","0","1","false","","","","","","","","","","","","","","","","",""
"image-keyboard-response","78","427312","0.0-4.0-6.0-1.0-1.0","5d1765dbe784250019adf3ed","63690f60c96a0a9a64b48fbc","63691dbc32adbdaa10094e8d","null","","null","","","","","","","","./tasks/HMM-beads/Images/BlackBeadChoice.png","","","","","","","","","","","","","","","","","","","","","","","",""
"image-keyboard-response","79","427831","0.0-4.0-6.0-1.0-2.0","5d1765dbe784250019adf3ed","63690f60c96a0a9a64b48fbc","63691dbc32adbdaa10094e8d","null","","null","","","","","","","","./tasks/HMM-beads/Images/BlackBeadChoiceWrong.png","","","","","","","","","","","","","","","","","","","","","","","",""
"image-keyboard-response","80","428078","0.0-4.0-6.0-1.0-0.1","5d1765dbe784250019adf3ed","63690f60c96a0a9a64b48fbc","63691dbc32adbdaa10094e8d","247","","j","","","","","","","","./tasks/HMM-beads/Images/NewTrialWC.png","lowH","1","2","2","2","2","true","","","","","","","","","","","","","","","","",""
"image-keyboard-response","81","428398","0.0-4.0-6.0-1.0-1.1","5d1765dbe784250019adf3ed","63690f60c96a0a9a64b48fbc","63691dbc32adbdaa10094e8d","null","","null","","","","","","","","./tasks/HMM-beads/Images/WhiteBeadChoice.png","","","","","","","","","","","","","","","","","","","","","","","",""
"image-keyboard-response","82","428916","0.0-4.0-6.0-1.0-2.1","5d1765dbe784250019adf3ed","63690f60c96a0a9a64b48fbc","63691dbc32adbdaa10094e8d","null","","null","","","","","","","","./tasks/HMM-beads/Images/WhiteBeadChoiceCorrect.png","","","","","","","","","","","","","","","","","","","","","","","",""
"image-keyboard-response","83","429456","0.0-4.0-6.0-1.0-0.2","5d1765dbe784250019adf3ed","63690f60c96a0a9a64b48fbc","63691dbc32adbdaa10094e8d","539","","j","","","","","","","","./tasks/HMM-beads/Images/NewTrialWC.png","lowH","2","2","2","2","2","true","","","","","","","","","","","","","","","","",""
"image-keyboard-response","84","429775","0.0-4.0-6.0-1.0-1.2","5d1765dbe784250019adf3ed","63690f60c96a0a9a64b48fbc","63691dbc32adbdaa10094e8d","null","","null","","","","","","","","./tasks/HMM-beads/Images/WhiteBeadChoice.png","","","","","","","","","","","","","","","","","","","","","","","",""
"image-keyboard-response","85","430282","0.0-4.0-6.0-1.0-2.2","5d1765dbe784250019adf3ed","63690f60c96a0a9a64b48fbc","63691dbc32adbdaa10094e8d","null","","null","","","","","","","","./tasks/HMM-beads/Images/WhiteBeadChoiceCorrect.png","","","","","","","","","","","","","","","","","","","","","","","",""
"image-keyboard-response","86","430693","0.0-4.0-6.0-1.0-0.3","5d1765dbe784250019adf3ed","63690f60c96a0a9a64b48fbc","63691dbc32adbdaa10094e8d","411","","j","","","","","","","","./tasks/HMM-beads/Images/NewTrialWC.png","lowH","3","2","2","2","2","true","","","","","","","","","","","","","","","","",""
"image-keyboard-response","87","431007","0.0-4.0-6.0-1.0-1.3","5d1765dbe784250019adf3ed","63690f60c96a0a9a64b48fbc","63691dbc32adbdaa10094e8d","null","","null","","","","","","","","./tasks/HMM-beads/Images/WhiteBeadChoice.png","","","","","","","","","","","","","","","","","","","","","","","",""
"image-keyboard-response","88","431527","0.0-4.0-6.0-1.0-2.3","5d1765dbe784250019adf3ed","63690f60c96a0a9a64b48fbc","63691dbc32adbdaa10094e8d","null","","null","","","","","","","","./tasks/HMM-beads/Images/WhiteBeadChoiceCorrect.png","","","","","","","","","","","","","","","","","","","","","","","",""
"image-keyboard-response","89","431917","0.0-4.0-6.0-1.0-0.4","5d1765dbe784250019adf3ed","63690f60c96a0a9a64b48fbc","63691dbc32adbdaa10094e8d","388","","j","","","","","","","","./tasks/HMM-beads/Images/NewTrialWC.png","lowH","4","2","1","2","2","false","","","","","","","","","","","","","","","","",""
"image-keyboard-response","90","432236","0.0-4.0-6.0-1.0-1.4","5d1765dbe784250019adf3ed","63690f60c96a0a9a64b48fbc","63691dbc32adbdaa10094e8d","null","","null","","","","","","","","./tasks/HMM-beads/Images/WhiteBeadChoice.png","","","","","","","","","","","","","","","","","","","","","","","",""
"image-keyboard-response","91","432738","0.0-4.0-6.0-1.0-2.4","5d1765dbe784250019adf3ed","63690f60c96a0a9a64b48fbc","63691dbc32adbdaa10094e8d","null","","null","","","","","","","","./tasks/HMM-beads/Images/WhiteBeadChoiceWrong.png","","","","","","","","","","","","","","","","","","","","","","","",""
"image-keyboard-response","92","433313","0.0-4.0-6.0-1.0-0.5","5d1765dbe784250019adf3ed","63690f60c96a0a9a64b48fbc","63691dbc32adbdaa10094e8d","575","","f","","","","","","","","./tasks/HMM-beads/Images/NewTrialBC.png","lowH","5","2","2","1","1","false","","","","","","","","","","","","","","","","",""
"image-keyboard-response","93","433624","0.0-4.0-6.0-1.0-1.5","5d1765dbe784250019adf3ed","63690f60c96a0a9a64b48fbc","63691dbc32adbdaa10094e8d","null","","null","","","","","","","","./tasks/HMM-beads/Images/BlackBeadChoice.png","","","","","","","","","","","","","","","","","","","","","","","",""
"image-keyboard-response","94","434131","0.0-4.0-6.0-1.0-2.5","5d1765dbe784250019adf3ed","63690f60c96a0a9a64b48fbc","63691dbc32adbdaa10094e8d","null","","null","","","","","","","","./tasks/HMM-beads/Images/BlackBeadChoiceWrong.png","","","","","","","","","","","","","","","","","","","","","","","",""
"image-keyboard-response","95","435025","0.0-4.0-6.0-1.0-0.6","5d1765dbe784250019adf3ed","63690f60c96a0a9a64b48fbc","63691dbc32adbdaa10094e8d","893","","j","","","","","","","","./tasks/HMM-beads/Images/NewTrialWC.png","lowH","6","2","2","2","2","true","","","","","","","","","","","","","","","","",""
"image-keyboard-response","96","435341","0.0-4.0-6.0-1.0-1.6","5d1765dbe784250019adf3ed","63690f60c96a0a9a64b48fbc","63691dbc32adbdaa10094e8d","null","","null","","","","","","","","./tasks/HMM-beads/Images/WhiteBeadChoice.png","","","","","","","","","","","","","","","","","","","","","","","",""
"image-keyboard-response","97","435862","0.0-4.0-6.0-1.0-2.6","5d1765dbe784250019adf3ed","63690f60c96a0a9a64b48fbc","63691dbc32adbdaa10094e8d","null","","null","","","","","","","","./tasks/HMM-beads/Images/WhiteBeadChoiceCorrect.png","","","","","","","","","","","","","","","","","","","","","","","",""
"image-keyboard-response","98","436107","0.0-4.0-6.0-1.0-0.7","5d1765dbe784250019adf3ed","63690f60c96a0a9a64b48fbc","63691dbc32adbdaa10094e8d","245","","j","","","","","","","","./tasks/HMM-beads/Images/NewTrialWC.png","lowH","7","2","2","2","2","true","","","","","","","","","","","","","","","","",""
"image-keyboard-response","99","436412","0.0-4.0-6.0-1.0-1.7","5d1765dbe784250019adf3ed","63690f60c96a0a9a64b48fbc","63691dbc32adbdaa10094e8d","null","","null","","","","","","","","./tasks/HMM-beads/Images/WhiteBeadChoice.png","","","","","","","","","","","","","","","","","","","","","","","",""
"image-keyboard-response","100","436915","0.0-4.0-6.0-1.0-2.7","5d1765dbe784250019adf3ed","63690f60c96a0a9a64b48fbc","63691dbc32adbdaa10094e8d","null","","null","","","","","","","","./tasks/HMM-beads/Images/WhiteBeadChoiceCorrect.png","","","","","","","","","","","","","","","","","","","","","","","",""
"image-keyboard-response","101","437223","0.0-4.0-6.0-1.0-0.8","5d1765dbe784250019adf3ed","63690f60c96a0a9a64b48fbc","63691dbc32adbdaa10094e8d","307","","j","","","","","","","","./tasks/HMM-beads/Images/NewTrialWC.png","lowH","8","2","2","2","2","true","","","","","","","","","","","","","","","","",""
"image-keyboard-response","102","437544","0.0-4.0-6.0-1.0-1.8","5d1765dbe784250019adf3ed","63690f60c96a0a9a64b48fbc","63691dbc32adbdaa10094e8d","null","","null","","","","","","","","./tasks/HMM-beads/Images/WhiteBeadChoice.png","","","","","","","","","","","","","","","","","","","","","","","",""
"image-keyboard-response","103","438049","0.0-4.0-6.0-1.0-2.8","5d1765dbe784250019adf3ed","63690f60c96a0a9a64b48fbc","63691dbc32adbdaa10094e8d","null","","null","","","","","","","","./tasks/HMM-beads/Images/WhiteBeadChoiceCorrect.png","","","","","","","","","","","","","","","","","","","","","","","",""
"image-keyboard-response","104","438420","0.0-4.0-6.0-1.0-0.9","5d1765dbe784250019adf3ed","63690f60c96a0a9a64b48fbc","63691dbc32adbdaa10094e8d","370","","j","","","","","","","","./tasks/HMM-beads/Images/NewTrialWC.png","lowH","9","2","2","2","2","true","","","","","","","","","","","","","","","","",""
"image-keyboard-response","105","438737","0.0-4.0-6.0-1.0-1.9","5d1765dbe784250019adf3ed","63690f60c96a0a9a64b48fbc","63691dbc32adbdaa10094e8d","null","","null","","","","","","","","./tasks/HMM-beads/Images/WhiteBeadChoice.png","","","","","","","","","","","","","","","","","","","","","","","",""
"image-keyboard-response","106","439244","0.0-4.0-6.0-1.0-2.9","5d1765dbe784250019adf3ed","63690f60c96a0a9a64b48fbc","63691dbc32adbdaa10094e8d","null","","null","","","","","","","","./tasks/HMM-beads/Images/WhiteBeadChoiceCorrect.png","","","","","","","","","","","","","","","","","","","","","","","",""
"image-keyboard-response","107","439784","0.0-4.0-6.0-1.0-0.10","5d1765dbe784250019adf3ed","63690f60c96a0a9a64b48fbc","63691dbc32adbdaa10094e8d","540","","j","","","","","","","","./tasks/HMM-beads/Images/NewTrialWC.png","lowH","10","2","2","2","2","true","","","","","","","","","","","","","","","","",""
"image-keyboard-response","108","440092","0.0-4.0-6.0-1.0-1.10","5d1765dbe784250019adf3ed","63690f60c96a0a9a64b48fbc","63691dbc32adbdaa10094e8d","null","","null","","","","","","","","./tasks/HMM-beads/Images/WhiteBeadChoice.png","","","","","","","","","","","","","","","","","","","","","","","",""
"image-keyboard-response","109","440613","0.0-4.0-6.0-1.0-2.10","5d1765dbe784250019adf3ed","63690f60c96a0a9a64b48fbc","63691dbc32adbdaa10094e8d","null","","null","","","","","","","","./tasks/HMM-beads/Images/WhiteBeadChoiceCorrect.png","","","","","","","","","","","","","","","","","","","","","","","",""
"image-keyboard-response","110","441534","0.0-4.0-6.0-1.0-0.11","5d1765dbe784250019adf3ed","63690f60c96a0a9a64b48fbc","63691dbc32adbdaa10094e8d","921","","j","","","","","","","","./tasks/HMM-beads/Images/NewTrialWC.png","lowH","11","2","2","2","2","true","","","","","","","","","","","","","","","","",""
"image-keyboard-response","111","441852","0.0-4.0-6.0-1.0-1.11","5d1765dbe784250019adf3ed","63690f60c96a0a9a64b48fbc","63691dbc32adbdaa10094e8d","null","","null","","","","","","","","./tasks/HMM-beads/Images/WhiteBeadChoice.png","","","","","","","","","","","","","","","","","","","","","","","",""
"image-keyboard-response","112","442356","0.0-4.0-6.0-1.0-2.11","5d1765dbe784250019adf3ed","63690f60c96a0a9a64b48fbc","63691dbc32adbdaa10094e8d","null","","null","","","","","","","","./tasks/HMM-beads/Images/WhiteBeadChoiceCorrect.png","","","","","","","","","","","","","","","","","","","","","","","",""
"image-keyboard-response","113","442737","0.0-4.0-6.0-1.0-0.12","5d1765dbe784250019adf3ed","63690f60c96a0a9a64b48fbc","63691dbc32adbdaa10094e8d","380","","j","","","","","","","","./tasks/HMM-beads/Images/NewTrialWC.png","lowH","12","2","2","2","2","true","","","","","","","","","","","","","","","","",""
"image-keyboard-response","114","443051","0.0-4.0-6.0-1.0-1.12","5d1765dbe784250019adf3ed","63690f60c96a0a9a64b48fbc","63691dbc32adbdaa10094e8d","null","","null","","","","","","","","./tasks/HMM-beads/Images/WhiteBeadChoice.png","","","","","","","","","","","","","","","","","","","","","","","",""
"image-keyboard-response","115","443558","0.0-4.0-6.0-1.0-2.12","5d1765dbe784250019adf3ed","63690f60c96a0a9a64b48fbc","63691dbc32adbdaa10094e8d","null","","null","","","","","","","","./tasks/HMM-beads/Images/WhiteBeadChoiceCorrect.png","","","","","","","","","","","","","","","","","","","","","","","",""
"image-keyboard-response","116","443903","0.0-4.0-6.0-1.0-0.13","5d1765dbe784250019adf3ed","63690f60c96a0a9a64b48fbc","63691dbc32adbdaa10094e8d","345","","j","","","","","","","","./tasks/HMM-beads/Images/NewTrialWC.png","lowH","13","2","2","2","2","true","","","","","","","","","","","","","","","","",""
"image-keyboard-response","117","444218","0.0-4.0-6.0-1.0-1.13","5d1765dbe784250019adf3ed","63690f60c96a0a9a64b48fbc","63691dbc32adbdaa10094e8d","null","","null","","","","","","","","./tasks/HMM-beads/Images/WhiteBeadChoice.png","","","","","","","","","","","","","","","","","","","","","","","",""
"image-keyboard-response","118","444722","0.0-4.0-6.0-1.0-2.13","5d1765dbe784250019adf3ed","63690f60c96a0a9a64b48fbc","63691dbc32adbdaa10094e8d","null","","null","","","","","","","","./tasks/HMM-beads/Images/WhiteBeadChoiceCorrect.png","","","","","","","","","","","","","","","","","","","","","","","",""
"image-keyboard-response","119","444997","0.0-4.0-6.0-1.0-0.14","5d1765dbe784250019adf3ed","63690f60c96a0a9a64b48fbc","63691dbc32adbdaa10094e8d","275","","j","","","","","","","","./tasks/HMM-beads/Images/NewTrialWC.png","lowH","14","2","2","2","2","true","","","","","","","","","","","","","","","","",""
"image-keyboard-response","120","445319","0.0-4.0-6.0-1.0-1.14","5d1765dbe784250019adf3ed","63690f60c96a0a9a64b48fbc","63691dbc32adbdaa10094e8d","null","","null","","","","","","","","./tasks/HMM-beads/Images/WhiteBeadChoice.png","","","","","","","","","","","","","","","","","","","","","","","",""
"image-keyboard-response","121","445840","0.0-4.0-6.0-1.0-2.14","5d1765dbe784250019adf3ed","63690f60c96a0a9a64b48fbc","63691dbc32adbdaa10094e8d","null","","null","","","","","","","","./tasks/HMM-beads/Images/WhiteBeadChoiceCorrect.png","","","","","","","","","","","","","","","","","","","","","","","",""
"image-keyboard-response","122","446113","0.0-4.0-6.0-1.0-0.15","5d1765dbe784250019adf3ed","63690f60c96a0a9a64b48fbc","63691dbc32adbdaa10094e8d","273","","j","","","","","","","","./tasks/HMM-beads/Images/NewTrialWC.png","lowH","15","2","1","2","2","false","","","","","","","","","","","","","","","","",""
"image-keyboard-response","123","446432","0.0-4.0-6.0-1.0-1.15","5d1765dbe784250019adf3ed","63690f60c96a0a9a64b48fbc","63691dbc32adbdaa10094e8d","null","","null","","","","","","","","./tasks/HMM-beads/Images/WhiteBeadChoice.png","","","","","","","","","","","","","","","","","","","","","","","",""
"image-keyboard-response","124","446939","0.0-4.0-6.0-1.0-2.15","5d1765dbe784250019adf3ed","63690f60c96a0a9a64b48fbc","63691dbc32adbdaa10094e8d","null","","null","","","","","","","","./tasks/HMM-beads/Images/WhiteBeadChoiceWrong.png","","","","","","","","","","","","","","","","","","","","","","","",""
"image-keyboard-response","125","447284","0.0-4.0-6.0-1.0-0.16","5d1765dbe784250019adf3ed","63690f60c96a0a9a64b48fbc","63691dbc32adbdaa10094e8d","344","","f","","","","","","","","./tasks/HMM-beads/Images/NewTrialBC.png","lowH","16","2","1","1","1","true","","","","","","","","","","","","","","","","",""
"image-keyboard-response","126","447596","0.0-4.0-6.0-1.0-1.16","5d1765dbe784250019adf3ed","63690f60c96a0a9a64b48fbc","63691dbc32adbdaa10094e8d","null","","null","","","","","","","","./tasks/HMM-beads/Images/BlackBeadChoice.png","","","","","","","","","","","","","","","","","","","","","","","",""
"image-keyboard-response","127","448099","0.0-4.0-6.0-1.0-2.16","5d1765dbe784250019adf3ed","63690f60c96a0a9a64b48fbc","63691dbc32adbdaa10094e8d","null","","null","","","","","","","","./tasks/HMM-beads/Images/BlackBeadChoiceCorrect.png","","","","","","","","","","","","","","","","","","","","","","","",""
"image-keyboard-response","128","448246","0.0-4.0-6.0-1.0-0.17","5d1765dbe784250019adf3ed","63690f60c96a0a9a64b48fbc","63691dbc32adbdaa10094e8d","146","","f","","","","","","","","./tasks/HMM-beads/Images/NewTrialBC.png","lowH","17","2","2","1","1","false","","","","","","","","","","","","","","","","",""
"image-keyboard-response","129","448555","0.0-4.0-6.0-1.0-1.17","5d1765dbe784250019adf3ed","63690f60c96a0a9a64b48fbc","63691dbc32adbdaa10094e8d","null","","null","","","","","","","","./tasks/HMM-beads/Images/BlackBeadChoice.png","","","","","","","","","","","","","","","","","","","","","","","",""
"image-keyboard-response","130","449062","0.0-4.0-6.0-1.0-2.17","5d1765dbe784250019adf3ed","63690f60c96a0a9a64b48fbc","63691dbc32adbdaa10094e8d","null","","null","","","","","","","","./tasks/HMM-beads/Images/BlackBeadChoiceWrong.png","","","","","","","","","","","","","","","","","","","","","","","",""
"image-keyboard-response","131","449495","0.0-4.0-6.0-1.0-0.18","5d1765dbe784250019adf3ed","63690f60c96a0a9a64b48fbc","63691dbc32adbdaa10094e8d","433","","j","","","","","","","","./tasks/HMM-beads/Images/NewTrialWC.png","lowH","18","2","2","2","2","true","","","","","","","","","","","","","","","","",""
"image-keyboard-response","132","449813","0.0-4.0-6.0-1.0-1.18","5d1765dbe784250019adf3ed","63690f60c96a0a9a64b48fbc","63691dbc32adbdaa10094e8d","null","","null","","","","","","","","./tasks/HMM-beads/Images/WhiteBeadChoice.png","","","","","","","","","","","","","","","","","","","","","","","",""
"image-keyboard-response","133","450329","0.0-4.0-6.0-1.0-2.18","5d1765dbe784250019adf3ed","63690f60c96a0a9a64b48fbc","63691dbc32adbdaa10094e8d","null","","null","","","","","","","","./tasks/HMM-beads/Images/WhiteBeadChoiceCorrect.png","","","","","","","","","","","","","","","","","","","","","","","",""
"image-keyboard-response","134","450591","0.0-4.0-6.0-1.0-0.19","5d1765dbe784250019adf3ed","63690f60c96a0a9a64b48fbc","63691dbc32adbdaa10094e8d","262","","j","","","","","","","","./tasks/HMM-beads/Images/NewTrialWC.png","lowH","19","2","2","2","2","true","","","","","","","","","","","","","","","","",""
"image-keyboard-response","135","450910","0.0-4.0-6.0-1.0-1.19","5d1765dbe784250019adf3ed","63690f60c96a0a9a64b48fbc","63691dbc32adbdaa10094e8d","null","","null","","","","","","","","./tasks/HMM-beads/Images/WhiteBeadChoice.png","","","","","","","","","","","","","","","","","","","","","","","",""
"image-keyboard-response","136","451427","0.0-4.0-6.0-1.0-2.19","5d1765dbe784250019adf3ed","63690f60c96a0a9a64b48fbc","63691dbc32adbdaa10094e8d","null","","null","","","","","","","","./tasks/HMM-beads/Images/WhiteBeadChoiceCorrect.png","","","","","","","","","","","","","","","","","","","","","","","",""
"image-keyboard-response","137","451639","0.0-4.0-6.0-1.0-0.20","5d1765dbe784250019adf3ed","63690f60c96a0a9a64b48fbc","63691dbc32adbdaa10094e8d","212","","j","","","","","","","","./tasks/HMM-beads/Images/NewTrialWC.png","lowH","20","2","2","2","2","true","","","","","","","","","","","","","","","","",""
"image-keyboard-response","138","451960","0.0-4.0-6.0-1.0-1.20","5d1765dbe784250019adf3ed","63690f60c96a0a9a64b48fbc","63691dbc32adbdaa10094e8d","null","","null","","","","","","","","./tasks/HMM-beads/Images/WhiteBeadChoice.png","","","","","","","","","","","","","","","","","","","","","","","",""
"image-keyboard-response","139","452475","0.0-4.0-6.0-1.0-2.20","5d1765dbe784250019adf3ed","63690f60c96a0a9a64b48fbc","63691dbc32adbdaa10094e8d","null","","null","","","","","","","","./tasks/HMM-beads/Images/WhiteBeadChoiceCorrect.png","","","","","","","","","","","","","","","","","","","","","","","",""
"image-keyboard-response","140","452701","0.0-4.0-6.0-1.0-0.21","5d1765dbe784250019adf3ed","63690f60c96a0a9a64b48fbc","63691dbc32adbdaa10094e8d","226","","j","","","","","","","","./tasks/HMM-beads/Images/NewTrialWC.png","lowH","21","2","2","2","2","true","","","","","","","","","","","","","","","","",""
"image-keyboard-response","141","453011","0.0-4.0-6.0-1.0-1.21","5d1765dbe784250019adf3ed","63690f60c96a0a9a64b48fbc","63691dbc32adbdaa10094e8d","null","","null","","","","","","","","./tasks/HMM-beads/Images/WhiteBeadChoice.png","","","","","","","","","","","","","","","","","","","","","","","",""
"image-keyboard-response","142","453514","0.0-4.0-6.0-1.0-2.21","5d1765dbe784250019adf3ed","63690f60c96a0a9a64b48fbc","63691dbc32adbdaa10094e8d","null","","null","","","","","","","","./tasks/HMM-beads/Images/WhiteBeadChoiceCorrect.png","","","","","","","","","","","","","","","","","","","","","","","",""
"image-keyboard-response","143","453750","0.0-4.0-6.0-1.0-0.22","5d1765dbe784250019adf3ed","63690f60c96a0a9a64b48fbc","63691dbc32adbdaa10094e8d","236","","j","","","","","","","","./tasks/HMM-beads/Images/NewTrialWC.png","lowH","22","2","2","2","2","true","","","","","","","","","","","","","","","","",""
"image-keyboard-response","144","454062","0.0-4.0-6.0-1.0-1.22","5d1765dbe784250019adf3ed","63690f60c96a0a9a64b48fbc","63691dbc32adbdaa10094e8d","null","","null","","","","","","","","./tasks/HMM-beads/Images/WhiteBeadChoice.png","","","","","","","","","","","","","","","","","","","","","","","",""
"image-keyboard-response","145","454579","0.0-4.0-6.0-1.0-2.22","5d1765dbe784250019adf3ed","63690f60c96a0a9a64b48fbc","63691dbc32adbdaa10094e8d","null","","null","","","","","","","","./tasks/HMM-beads/Images/WhiteBeadChoiceCorrect.png","","","","","","","","","","","","","","","","","","","","","","","",""
"image-keyboard-response","146","454836","0.0-4.0-6.0-1.0-0.23","5d1765dbe784250019adf3ed","63690f60c96a0a9a64b48fbc","63691dbc32adbdaa10094e8d","257","","j","","","","","","","","./tasks/HMM-beads/Images/NewTrialWC.png","lowH","23","2","2","2","2","true","","","","","","","","","","","","","","","","",""
"image-keyboard-response","147","455147","0.0-4.0-6.0-1.0-1.23","5d1765dbe784250019adf3ed","63690f60c96a0a9a64b48fbc","63691dbc32adbdaa10094e8d","null","","null","","","","","","","","./tasks/HMM-beads/Images/WhiteBeadChoice.png","","","","","","","","","","","","","","","","","","","","","","","",""
"image-keyboard-response","148","455664","0.0-4.0-6.0-1.0-2.23","5d1765dbe784250019adf3ed","63690f60c96a0a9a64b48fbc","63691dbc32adbdaa10094e8d","null","","null","","","","","","","","./tasks/HMM-beads/Images/WhiteBeadChoiceCorrect.png","","","","","","","","","","","","","","","","","","","","","","","",""
"image-keyboard-response","149","455903","0.0-4.0-6.0-1.0-0.24","5d1765dbe784250019adf3ed","63690f60c96a0a9a64b48fbc","63691dbc32adbdaa10094e8d","238","","j","","","","","","","","./tasks/HMM-beads/Images/NewTrialWC.png","lowH","24","2","2","2","2","true","","","","","","","","","","","","","","","","",""
"image-keyboard-response","150","456215","0.0-4.0-6.0-1.0-1.24","5d1765dbe784250019adf3ed","63690f60c96a0a9a64b48fbc","63691dbc32adbdaa10094e8d","null","","null","","","","","","","","./tasks/HMM-beads/Images/WhiteBeadChoice.png","","","","","","","","","","","","","","","","","","","","","","","",""
"image-keyboard-response","151","456732","0.0-4.0-6.0-1.0-2.24","5d1765dbe784250019adf3ed","63690f60c96a0a9a64b48fbc","63691dbc32adbdaa10094e8d","null","","null","","","","","","","","./tasks/HMM-beads/Images/WhiteBeadChoiceCorrect.png","","","","","","","","","","","","","","","","","","","","","","","",""
"image-keyboard-response","152","456962","0.0-4.0-6.0-1.0-0.25","5d1765dbe784250019adf3ed","63690f60c96a0a9a64b48fbc","63691dbc32adbdaa10094e8d","229","","j","","","","","","","","./tasks/HMM-beads/Images/NewTrialWC.png","lowH","25","2","2","2","2","true","","","","","","","","","","","","","","","","",""
"image-keyboard-response","153","457281","0.0-4.0-6.0-1.0-1.25","5d1765dbe784250019adf3ed","63690f60c96a0a9a64b48fbc","63691dbc32adbdaa10094e8d","null","","null","","","","","","","","./tasks/HMM-beads/Images/WhiteBeadChoice.png","","","","","","","","","","","","","","","","","","","","","","","",""
"image-keyboard-response","154","457799","0.0-4.0-6.0-1.0-2.25","5d1765dbe784250019adf3ed","63690f60c96a0a9a64b48fbc","63691dbc32adbdaa10094e8d","null","","null","","","","","","","","./tasks/HMM-beads/Images/WhiteBeadChoiceCorrect.png","","","","","","","","","","","","","","","","","","","","","","","",""
"image-keyboard-response","155","458045","0.0-4.0-6.0-1.0-0.26","5d1765dbe784250019adf3ed","63690f60c96a0a9a64b48fbc","63691dbc32adbdaa10094e8d","246","","j","","","","","","","","./tasks/HMM-beads/Images/NewTrialWC.png","lowH","26","2","2","2","2","true","","","","","","","","","","","","","","","","",""
"image-keyboard-response","156","458349","0.0-4.0-6.0-1.0-1.26","5d1765dbe784250019adf3ed","63690f60c96a0a9a64b48fbc","63691dbc32adbdaa10094e8d","null","","null","","","","","","","","./tasks/HMM-beads/Images/WhiteBeadChoice.png","","","","","","","","","","","","","","","","","","","","","","","",""
"image-keyboard-response","157","458868","0.0-4.0-6.0-1.0-2.26","5d1765dbe784250019adf3ed","63690f60c96a0a9a64b48fbc","63691dbc32adbdaa10094e8d","null","","null","","","","","","","","./tasks/HMM-beads/Images/WhiteBeadChoiceCorrect.png","","","","","","","","","","","","","","","","","","","","","","","",""
"image-keyboard-response","158","459137","0.0-4.0-6.0-1.0-0.27","5d1765dbe784250019adf3ed","63690f60c96a0a9a64b48fbc","63691dbc32adbdaa10094e8d","268","","j","","","","","","","","./tasks/HMM-beads/Images/NewTrialWC.png","lowH","27","2","2","2","2","true","","","","","","","","","","","","","","","","",""
"image-keyboard-response","159","459451","0.0-4.0-6.0-1.0-1.27","5d1765dbe784250019adf3ed","63690f60c96a0a9a64b48fbc","63691dbc32adbdaa10094e8d","null","","null","","","","","","","","./tasks/HMM-beads/Images/WhiteBeadChoice.png","","","","","","","","","","","","","","","","","","","","","","","",""
"image-keyboard-response","160","459955","0.0-4.0-6.0-1.0-2.27","5d1765dbe784250019adf3ed","63690f60c96a0a9a64b48fbc","63691dbc32adbdaa10094e8d","null","","null","","","","","","","","./tasks/HMM-beads/Images/WhiteBeadChoiceCorrect.png","","","","","","","","","","","","","","","","","","","","","","","",""
"image-keyboard-response","161","460215","0.0-4.0-6.0-1.0-0.28","5d1765dbe784250019adf3ed","63690f60c96a0a9a64b48fbc","63691dbc32adbdaa10094e8d","260","","j","","","","","","","","./tasks/HMM-beads/Images/NewTrialWC.png","lowH","28","2","2","2","2","true","","","","","","","","","","","","","","","","",""
"image-keyboard-response","162","460535","0.0-4.0-6.0-1.0-1.28","5d1765dbe784250019adf3ed","63690f60c96a0a9a64b48fbc","63691dbc32adbdaa10094e8d","null","","null","","","","","","","","./tasks/HMM-beads/Images/WhiteBeadChoice.png","","","","","","","","","","","","","","","","","","","","","","","",""
"image-keyboard-response","163","461055","0.0-4.0-6.0-1.0-2.28","5d1765dbe784250019adf3ed","63690f60c96a0a9a64b48fbc","63691dbc32adbdaa10094e8d","null","","null","","","","","","","","./tasks/HMM-beads/Images/WhiteBeadChoiceCorrect.png","","","","","","","","","","","","","","","","","","","","","","","",""
"image-keyboard-response","164","461193","0.0-4.0-6.0-1.0-0.29","5d1765dbe784250019adf3ed","63690f60c96a0a9a64b48fbc","63691dbc32adbdaa10094e8d","138","","j","","","","","","","","./tasks/HMM-beads/Images/NewTrialWC.png","lowH","29","2","1","2","2","false","","","","","","","","","","","","","","","","",""
"image-keyboard-response","165","461512","0.0-4.0-6.0-1.0-1.29","5d1765dbe784250019adf3ed","63690f60c96a0a9a64b48fbc","63691dbc32adbdaa10094e8d","null","","null","","","","","","","","./tasks/HMM-beads/Images/WhiteBeadChoice.png","","","","","","","","","","","","","","","","","","","","","","","",""
"image-keyboard-response","166","462031","0.0-4.0-6.0-1.0-2.29","5d1765dbe784250019adf3ed","63690f60c96a0a9a64b48fbc","63691dbc32adbdaa10094e8d","null","","null","","","","","","","","./tasks/HMM-beads/Images/WhiteBeadChoiceWrong.png","","","","","","","","","","","","","","","","","","","","","","","",""
"image-keyboard-response","167","462125","0.0-4.0-6.0-1.0-0.30","5d1765dbe784250019adf3ed","63690f60c96a0a9a64b48fbc","63691dbc32adbdaa10094e8d","93","","f","","","","","","","","./tasks/HMM-beads/Images/NewTrialBC.png","lowH","30","2","2","1","1","false","","","","","","","","","","","","","","","","",""
"image-keyboard-response","168","462440","0.0-4.0-6.0-1.0-1.30","5d1765dbe784250019adf3ed","63690f60c96a0a9a64b48fbc","63691dbc32adbdaa10094e8d","null","","null","","","","","","","","./tasks/HMM-beads/Images/BlackBeadChoice.png","","","","","","","","","","","","","","","","","","","","","","","",""
"image-keyboard-response","169","462956","0.0-4.0-6.0-1.0-2.30","5d1765dbe784250019adf3ed","63690f60c96a0a9a64b48fbc","63691dbc32adbdaa10094e8d","null","","null","","","","","","","","./tasks/HMM-beads/Images/BlackBeadChoiceWrong.png","","","","","","","","","","","","","","","","","","","","","","","",""
"image-keyboard-response","170","463310","0.0-4.0-6.0-1.0-0.31","5d1765dbe784250019adf3ed","63690f60c96a0a9a64b48fbc","63691dbc32adbdaa10094e8d","354","","j","","","","","","","","./tasks/HMM-beads/Images/NewTrialWC.png","lowH","31","2","1","2","2","false","","","","","","","","","","","","","","","","",""
"image-keyboard-response","171","463626","0.0-4.0-6.0-1.0-1.31","5d1765dbe784250019adf3ed","63690f60c96a0a9a64b48fbc","63691dbc32adbdaa10094e8d","null","","null","","","","","","","","./tasks/HMM-beads/Images/WhiteBeadChoice.png","","","","","","","","","","","","","","","","","","","","","","","",""
"image-keyboard-response","172","464134","0.0-4.0-6.0-1.0-2.31","5d1765dbe784250019adf3ed","63690f60c96a0a9a64b48fbc","63691dbc32adbdaa10094e8d","null","","null","","","","","","","","./tasks/HMM-beads/Images/WhiteBeadChoiceWrong.png","","","","","","","","","","","","","","","","","","","","","","","",""
"image-keyboard-response","173","464955","0.0-4.0-6.0-1.0-0.32","5d1765dbe784250019adf3ed","63690f60c96a0a9a64b48fbc","63691dbc32adbdaa10094e8d","821","","f","","","","","","","","./tasks/HMM-beads/Images/NewTrialBC.png","lowH","32","2","2","1","1","false","","","","","","","","","","","","","","","","",""
"image-keyboard-response","174","465267","0.0-4.0-6.0-1.0-1.32","5d1765dbe784250019adf3ed","63690f60c96a0a9a64b48fbc","63691dbc32adbdaa10094e8d","null","","null","","","","","","","","./tasks/HMM-beads/Images/BlackBeadChoice.png","","","","","","","","","","","","","","","","","","","","","","","",""
"image-keyboard-response","175","465772","0.0-4.0-6.0-1.0-2.32","5d1765dbe784250019adf3ed","63690f60c96a0a9a64b48fbc","63691dbc32adbdaa10094e8d","null","","null","","","","","","","","./tasks/HMM-beads/Images/BlackBeadChoiceWrong.png","","","","","","","","","","","","","","","","","","","","","","","",""
"image-keyboard-response","176","466740","0.0-4.0-6.0-1.0-0.33","5d1765dbe784250019adf3ed","63690f60c96a0a9a64b48fbc","63691dbc32adbdaa10094e8d","967","","j","","","","","","","","./tasks/HMM-beads/Images/NewTrialWC.png","lowH","33","2","2","2","2","true","","","","","","","","","","","","","","","","",""
"image-keyboard-response","177","467044","0.0-4.0-6.0-1.0-1.33","5d1765dbe784250019adf3ed","63690f60c96a0a9a64b48fbc","63691dbc32adbdaa10094e8d","null","","null","","","","","","","","./tasks/HMM-beads/Images/WhiteBeadChoice.png","","","","","","","","","","","","","","","","","","","","","","","",""
"image-keyboard-response","178","467548","0.0-4.0-6.0-1.0-2.33","5d1765dbe784250019adf3ed","63690f60c96a0a9a64b48fbc","63691dbc32adbdaa10094e8d","null","","null","","","","","","","","./tasks/HMM-beads/Images/WhiteBeadChoiceCorrect.png","","","","","","","","","","","","","","","","","","","","","","","",""
"image-keyboard-response","179","468658","0.0-4.0-6.0-1.0-0.34","5d1765dbe784250019adf3ed","63690f60c96a0a9a64b48fbc","63691dbc32adbdaa10094e8d","1109","","j","","","","","","","","./tasks/HMM-beads/Images/NewTrialWC.png","lowH","34","2","2","2","2","true","","","","","","","","","","","","","","","","",""
"image-keyboard-response","180","468977","0.0-4.0-6.0-1.0-1.34","5d1765dbe784250019adf3ed","63690f60c96a0a9a64b48fbc","63691dbc32adbdaa10094e8d","null","","null","","","","","","","","./tasks/HMM-beads/Images/WhiteBeadChoice.png","","","","","","","","","","","","","","","","","","","","","","","",""
"image-keyboard-response","181","469482","0.0-4.0-6.0-1.0-2.34","5d1765dbe784250019adf3ed","63690f60c96a0a9a64b48fbc","63691dbc32adbdaa10094e8d","null","","null","","","","","","","","./tasks/HMM-beads/Images/WhiteBeadChoiceCorrect.png","","","","","","","","","","","","","","","","","","","","","","","",""
"image-keyboard-response","182","469683","0.0-4.0-6.0-1.0-0.35","5d1765dbe784250019adf3ed","63690f60c96a0a9a64b48fbc","63691dbc32adbdaa10094e8d","201","","j","","","","","","","","./tasks/HMM-beads/Images/NewTrialWC.png","lowH","35","2","2","2","2","true","","","","","","","","","","","","","","","","",""
"image-keyboard-response","183","469999","0.0-4.0-6.0-1.0-1.35","5d1765dbe784250019adf3ed","63690f60c96a0a9a64b48fbc","63691dbc32adbdaa10094e8d","null","","null","","","","","","","","./tasks/HMM-beads/Images/WhiteBeadChoice.png","","","","","","","","","","","","","","","","","","","","","","","",""
"image-keyboard-response","184","470519","0.0-4.0-6.0-1.0-2.35","5d1765dbe784250019adf3ed","63690f60c96a0a9a64b48fbc","63691dbc32adbdaa10094e8d","null","","null","","","","","","","","./tasks/HMM-beads/Images/WhiteBeadChoiceCorrect.png","","","","","","","","","","","","","","","","","","","","","","","",""
"image-keyboard-response","185","470779","0.0-4.0-6.0-1.0-0.36","5d1765dbe784250019adf3ed","63690f60c96a0a9a64b48fbc","63691dbc32adbdaa10094e8d","259","","j","","","","","","","","./tasks/HMM-beads/Images/NewTrialWC.png","lowH","36","2","2","2","2","true","","","","","","","","","","","","","","","","",""
"image-keyboard-response","186","471086","0.0-4.0-6.0-1.0-1.36","5d1765dbe784250019adf3ed","63690f60c96a0a9a64b48fbc","63691dbc32adbdaa10094e8d","null","","null","","","","","","","","./tasks/HMM-beads/Images/WhiteBeadChoice.png","","","","","","","","","","","","","","","","","","","","","","","",""
"image-keyboard-response","187","471608","0.0-4.0-6.0-1.0-2.36","5d1765dbe784250019adf3ed","63690f60c96a0a9a64b48fbc","63691dbc32adbdaa10094e8d","null","","null","","","","","","","","./tasks/HMM-beads/Images/WhiteBeadChoiceCorrect.png","","","","","","","","","","","","","","","","","","","","","","","",""
"image-keyboard-response","188","471849","0.0-4.0-6.0-1.0-0.37","5d1765dbe784250019adf3ed","63690f60c96a0a9a64b48fbc","63691dbc32adbdaa10094e8d","240","","j","","","","","","","","./tasks/HMM-beads/Images/NewTrialWC.png","lowH","37","2","2","2","2","true","","","","","","","","","","","","","","","","",""
"image-keyboard-response","189","472158","0.0-4.0-6.0-1.0-1.37","5d1765dbe784250019adf3ed","63690f60c96a0a9a64b48fbc","63691dbc32adbdaa10094e8d","null","","null","","","","","","","","./tasks/HMM-beads/Images/WhiteBeadChoice.png","","","","","","","","","","","","","","","","","","","","","","","",""
"image-keyboard-response","190","472673","0.0-4.0-6.0-1.0-2.37","5d1765dbe784250019adf3ed","63690f60c96a0a9a64b48fbc","63691dbc32adbdaa10094e8d","null","","null","","","","","","","","./tasks/HMM-beads/Images/WhiteBeadChoiceCorrect.png","","","","","","","","","","","","","","","","","","","","","","","",""
"image-keyboard-response","191","472923","0.0-4.0-6.0-1.0-0.38","5d1765dbe784250019adf3ed","63690f60c96a0a9a64b48fbc","63691dbc32adbdaa10094e8d","249","","j","","","","","","","","./tasks/HMM-beads/Images/NewTrialWC.png","lowH","38","2","2","2","2","true","","","","","","","","","","","","","","","","",""
"image-keyboard-response","192","473239","0.0-4.0-6.0-1.0-1.38","5d1765dbe784250019adf3ed","63690f60c96a0a9a64b48fbc","63691dbc32adbdaa10094e8d","null","","null","","","","","","","","./tasks/HMM-beads/Images/WhiteBeadChoice.png","","","","","","","","","","","","","","","","","","","","","","","",""
"image-keyboard-response","193","473761","0.0-4.0-6.0-1.0-2.38","5d1765dbe784250019adf3ed","63690f60c96a0a9a64b48fbc","63691dbc32adbdaa10094e8d","null","","null","","","","","","","","./tasks/HMM-beads/Images/WhiteBeadChoiceCorrect.png","","","","","","","","","","","","","","","","","","","","","","","",""
"image-keyboard-response","194","473933","0.0-4.0-6.0-1.0-0.39","5d1765dbe784250019adf3ed","63690f60c96a0a9a64b48fbc","63691dbc32adbdaa10094e8d","172","","j","","","","","","","","./tasks/HMM-beads/Images/NewTrialWC.png","lowH","39","2","1","2","2","false","","","","","","","","","","","","","","","","",""
"image-keyboard-response","195","474252","0.0-4.0-6.0-1.0-1.39","5d1765dbe784250019adf3ed","63690f60c96a0a9a64b48fbc","63691dbc32adbdaa10094e8d","null","","null","","","","","","","","./tasks/HMM-beads/Images/WhiteBeadChoice.png","","","","","","","","","","","","","","","","","","","","","","","",""
"image-keyboard-response","196","474759","0.0-4.0-6.0-1.0-2.39","5d1765dbe784250019adf3ed","63690f60c96a0a9a64b48fbc","63691dbc32adbdaa10094e8d","null","","null","","","","","","","","./tasks/HMM-beads/Images/WhiteBeadChoiceWrong.png","","","","","","","","","","","","","","","","","","","","","","","",""
"image-keyboard-response","197","474795","0.0-4.0-6.0-1.0-0.40","5d1765dbe784250019adf3ed","63690f60c96a0a9a64b48fbc","63691dbc32adbdaa10094e8d","36","","f","","","","","","","","./tasks/HMM-beads/Images/NewTrialBC.png","lowH","40","2","2","1","1","false","","","","","","","","","","","","","","","","",""
"image-keyboard-response","198","475106","0.0-4.0-6.0-1.0-1.40","5d1765dbe784250019adf3ed","63690f60c96a0a9a64b48fbc","63691dbc32adbdaa10094e8d","null","","null","","","","","","","","./tasks/HMM-beads/Images/BlackBeadChoice.png","","","","","","","","","","","","","","","","","","","","","","","",""
"image-keyboard-response","199","475610","0.0-4.0-6.0-1.0-2.40","5d1765dbe784250019adf3ed","63690f60c96a0a9a64b48fbc","63691dbc32adbdaa10094e8d","null","","null","","","","","","","","./tasks/HMM-beads/Images/BlackBeadChoiceWrong.png","","","","","","","","","","","","","","","","","","","","","","","",""
"image-keyboard-response","200","476121","0.0-4.0-6.0-1.0-0.41","5d1765dbe784250019adf3ed","63690f60c96a0a9a64b48fbc","63691dbc32adbdaa10094e8d","511","","j","","","","","","","","./tasks/HMM-beads/Images/NewTrialWC.png","lowH","41","2","1","2","2","false","","","","","","","","","","","","","","","","",""
"image-keyboard-response","201","476430","0.0-4.0-6.0-1.0-1.41","5d1765dbe784250019adf3ed","63690f60c96a0a9a64b48fbc","63691dbc32adbdaa10094e8d","null","","null","","","","","","","","./tasks/HMM-beads/Images/WhiteBeadChoice.png","","","","","","","","","","","","","","","","","","","","","","","",""
"image-keyboard-response","202","476950","0.0-4.0-6.0-1.0-2.41","5d1765dbe784250019adf3ed","63690f60c96a0a9a64b48fbc","63691dbc32adbdaa10094e8d","null","","null","","","","","","","","./tasks/HMM-beads/Images/WhiteBeadChoiceWrong.png","","","","","","","","","","","","","","","","","","","","","","","",""
"image-keyboard-response","203","477292","0.0-4.0-6.0-1.0-0.42","5d1765dbe784250019adf3ed","63690f60c96a0a9a64b48fbc","63691dbc32adbdaa10094e8d","341","","f","","","","","","","","./tasks/HMM-beads/Images/NewTrialBC.png","lowH","42","2","1","1","1","true","","","","","","","","","","","","","","","","",""
"image-keyboard-response","204","477599","0.0-4.0-6.0-1.0-1.42","5d1765dbe784250019adf3ed","63690f60c96a0a9a64b48fbc","63691dbc32adbdaa10094e8d","null","","null","","","","","","","","./tasks/HMM-beads/Images/BlackBeadChoice.png","","","","","","","","","","","","","","","","","","","","","","","",""
"image-keyboard-response","205","478116","0.0-4.0-6.0-1.0-2.42","5d1765dbe784250019adf3ed","63690f60c96a0a9a64b48fbc","63691dbc32adbdaa10094e8d","null","","null","","","","","","","","./tasks/HMM-beads/Images/BlackBeadChoiceCorrect.png","","","","","","","","","","","","","","","","","","","","","","","",""
"image-keyboard-response","206","478386","0.0-4.0-6.0-1.0-0.43","5d1765dbe784250019adf3ed","63690f60c96a0a9a64b48fbc","63691dbc32adbdaa10094e8d","270","","f","","","","","","","","./tasks/HMM-beads/Images/NewTrialBC.png","lowH","43","2","2","1","1","false","","","","","","","","","","","","","","","","",""
"image-keyboard-response","207","478698","0.0-4.0-6.0-1.0-1.43","5d1765dbe784250019adf3ed","63690f60c96a0a9a64b48fbc","63691dbc32adbdaa10094e8d","null","","null","","","","","","","","./tasks/HMM-beads/Images/BlackBeadChoice.png","","","","","","","","","","","","","","","","","","","","","","","",""
"image-keyboard-response","208","479214","0.0-4.0-6.0-1.0-2.43","5d1765dbe784250019adf3ed","63690f60c96a0a9a64b48fbc","63691dbc32adbdaa10094e8d","null","","null","","","","","","","","./tasks/HMM-beads/Images/BlackBeadChoiceWrong.png","","","","","","","","","","","","","","","","","","","","","","","",""
"image-keyboard-response","209","479472","0.0-4.0-6.0-1.0-0.44","5d1765dbe784250019adf3ed","63690f60c96a0a9a64b48fbc","63691dbc32adbdaa10094e8d","258","","j","","","","","","","","./tasks/HMM-beads/Images/NewTrialWC.png","lowH","44","2","2","2","2","true","","","","","","","","","","","","","","","","",""
"image-keyboard-response","210","479782","0.0-4.0-6.0-1.0-1.44","5d1765dbe784250019adf3ed","63690f60c96a0a9a64b48fbc","63691dbc32adbdaa10094e8d","null","","null","","","","","","","","./tasks/HMM-beads/Images/WhiteBeadChoice.png","","","","","","","","","","","","","","","","","","","","","","","",""
"image-keyboard-response","211","480303","0.0-4.0-6.0-1.0-2.44","5d1765dbe784250019adf3ed","63690f60c96a0a9a64b48fbc","63691dbc32adbdaa10094e8d","null","","null","","","","","","","","./tasks/HMM-beads/Images/WhiteBeadChoiceCorrect.png","","","","","","","","","","","","","","","","","","","","","","","",""
"image-keyboard-response","212","480561","0.0-4.0-6.0-1.0-0.45","5d1765dbe784250019adf3ed","63690f60c96a0a9a64b48fbc","63691dbc32adbdaa10094e8d","256","","j","","","","","","","","./tasks/HMM-beads/Images/NewTrialWC.png","lowH","45","2","1","2","2","false","","","","","","","","","","","","","","","","",""
"image-keyboard-response","213","480866","0.0-4.0-6.0-1.0-1.45","5d1765dbe784250019adf3ed","63690f60c96a0a9a64b48fbc","63691dbc32adbdaa10094e8d","null","","null","","","","","","","","./tasks/HMM-beads/Images/WhiteBeadChoice.png","","","","","","","","","","","","","","","","","","","","","","","",""
"image-keyboard-response","214","481370","0.0-4.0-6.0-1.0-2.45","5d1765dbe784250019adf3ed","63690f60c96a0a9a64b48fbc","63691dbc32adbdaa10094e8d","null","","null","","","","","","","","./tasks/HMM-beads/Images/WhiteBeadChoiceWrong.png","","","","","","","","","","","","","","","","","","","","","","","",""
"image-keyboard-response","215","481777","0.0-4.0-6.0-1.0-0.46","5d1765dbe784250019adf3ed","63690f60c96a0a9a64b48fbc","63691dbc32adbdaa10094e8d","406","","f","","","","","","","","./tasks/HMM-beads/Images/NewTrialBC.png","lowH","46","2","2","1","1","false","","","","","","","","","","","","","","","","",""
"image-keyboard-response","216","482097","0.0-4.0-6.0-1.0-1.46","5d1765dbe784250019adf3ed","63690f60c96a0a9a64b48fbc","63691dbc32adbdaa10094e8d","null","","null","","","","","","","","./tasks/HMM-beads/Images/BlackBeadChoice.png","","","","","","","","","","","","","","","","","","","","","","","",""
"image-keyboard-response","217","482603","0.0-4.0-6.0-1.0-2.46","5d1765dbe784250019adf3ed","63690f60c96a0a9a64b48fbc","63691dbc32adbdaa10094e8d","null","","null","","","","","","","","./tasks/HMM-beads/Images/BlackBeadChoiceWrong.png","","","","","","","","","","","","","","","","","","","","","","","",""
"image-keyboard-response","218","483712","0.0-4.0-6.0-1.0-0.47","5d1765dbe784250019adf3ed","63690f60c96a0a9a64b48fbc","63691dbc32adbdaa10094e8d","1108","","j","","","","","","","","./tasks/HMM-beads/Images/NewTrialWC.png","lowH","47","2","2","2","2","true","","","","","","","","","","","","","","","","",""
"image-keyboard-response","219","484020","0.0-4.0-6.0-1.0-1.47","5d1765dbe784250019adf3ed","63690f60c96a0a9a64b48fbc","63691dbc32adbdaa10094e8d","null","","null","","","","","","","","./tasks/HMM-beads/Images/WhiteBeadChoice.png","","","","","","","","","","","","","","","","","","","","","","","",""
"image-keyboard-response","220","484523","0.0-4.0-6.0-1.0-2.47","5d1765dbe784250019adf3ed","63690f60c96a0a9a64b48fbc","63691dbc32adbdaa10094e8d","null","","null","","","","","","","","./tasks/HMM-beads/Images/WhiteBeadChoiceCorrect.png","","","","","","","","","","","","","","","","","","","","","","","",""
"image-keyboard-response","221","484637","0.0-4.0-6.0-1.0-0.48","5d1765dbe784250019adf3ed","63690f60c96a0a9a64b48fbc","63691dbc32adbdaa10094e8d","114","","j","","","","","","","","./tasks/HMM-beads/Images/NewTrialWC.png","lowH","48","2","2","2","2","true","","","","","","","","","","","","","","","","",""
"image-keyboard-response","222","484948","0.0-4.0-6.0-1.0-1.48","5d1765dbe784250019adf3ed","63690f60c96a0a9a64b48fbc","63691dbc32adbdaa10094e8d","null","","null","","","","","","","","./tasks/HMM-beads/Images/WhiteBeadChoice.png","","","","","","","","","","","","","","","","","","","","","","","",""
"image-keyboard-response","223","485451","0.0-4.0-6.0-1.0-2.48","5d1765dbe784250019adf3ed","63690f60c96a0a9a64b48fbc","63691dbc32adbdaa10094e8d","null","","null","","","","","","","","./tasks/HMM-beads/Images/WhiteBeadChoiceCorrect.png","","","","","","","","","","","","","","","","","","","","","","","",""
"image-keyboard-response","224","485664","0.0-4.0-6.0-1.0-0.49","5d1765dbe784250019adf3ed","63690f60c96a0a9a64b48fbc","63691dbc32adbdaa10094e8d","213","","j","","","","","","","","./tasks/HMM-beads/Images/NewTrialWC.png","lowH","49","2","2","2","2","true","","","","","","","","","","","","","","","","",""
"image-keyboard-response","225","485985","0.0-4.0-6.0-1.0-1.49","5d1765dbe784250019adf3ed","63690f60c96a0a9a64b48fbc","63691dbc32adbdaa10094e8d","null","","null","","","","","","","","./tasks/HMM-beads/Images/WhiteBeadChoice.png","","","","","","","","","","","","","","","","","","","","","","","",""
"image-keyboard-response","226","486502","0.0-4.0-6.0-1.0-2.49","5d1765dbe784250019adf3ed","63690f60c96a0a9a64b48fbc","63691dbc32adbdaa10094e8d","null","","null","","","","","","","","./tasks/HMM-beads/Images/WhiteBeadChoiceCorrect.png","","","","","","","","","","","","","","","","","","","","","","","",""
"image-keyboard-response","227","486621","0.0-4.0-6.0-1.0-0.50","5d1765dbe784250019adf3ed","63690f60c96a0a9a64b48fbc","63691dbc32adbdaa10094e8d","118","","j","","","","","","","","./tasks/HMM-beads/Images/NewTrialWC.png","lowH","50","2","1","2","2","false","","","","","","","","","","","","","","","","",""
"image-keyboard-response","228","486927","0.0-4.0-6.0-1.0-1.50","5d1765dbe784250019adf3ed","63690f60c96a0a9a64b48fbc","63691dbc32adbdaa10094e8d","null","","null","","","","","","","","./tasks/HMM-beads/Images/WhiteBeadChoice.png","","","","","","","","","","","","","","","","","","","","","","","",""
"image-keyboard-response","229","487449","0.0-4.0-6.0-1.0-2.50","5d1765dbe784250019adf3ed","63690f60c96a0a9a64b48fbc","63691dbc32adbdaa10094e8d","null","","null","","","","","","","","./tasks/HMM-beads/Images/WhiteBeadChoiceWrong.png","","","","","","","","","","","","","","","","","","","","","","","",""
"image-keyboard-response","230","488356","0.0-4.0-6.0-1.0-0.51","5d1765dbe784250019adf3ed","63690f60c96a0a9a64b48fbc","63691dbc32adbdaa10094e8d","906","","j","","","","","","","","./tasks/HMM-beads/Images/NewTrialBC.png","lowH","51","2","1","1","2","false","","","","","","","","","","","","","","","","",""
"image-keyboard-response","231","488676","0.0-4.0-6.0-1.0-1.51","5d1765dbe784250019adf3ed","63690f60c96a0a9a64b48fbc","63691dbc32adbdaa10094e8d","null","","null","","","","","","","","./tasks/HMM-beads/Images/WhiteBeadChoice.png","","","","","","","","","","","","","","","","","","","","","","","",""
"image-keyboard-response","232","489181","0.0-4.0-6.0-1.0-2.51","5d1765dbe784250019adf3ed","63690f60c96a0a9a64b48fbc","63691dbc32adbdaa10094e8d","null","","null","","","","","","","","./tasks/HMM-beads/Images/WhiteBeadChoiceWrong.png","","","","","","","","","","","","","","","","","","","","","","","",""
"image-keyboard-response","233","489293","0.0-4.0-6.0-1.0-0.52","5d1765dbe784250019adf3ed","63690f60c96a0a9a64b48fbc","63691dbc32adbdaa10094e8d","112","","f","","","","","","","","./tasks/HMM-beads/Images/NewTrialBC.png","lowH","52","2","2","1","1","false","","","","","","","","","","","","","","","","",""
"image-keyboard-response","234","489606","0.0-4.0-6.0-1.0-1.52","5d1765dbe784250019adf3ed","63690f60c96a0a9a64b48fbc","63691dbc32adbdaa10094e8d","null","","null","","","","","","","","./tasks/HMM-beads/Images/BlackBeadChoice.png","","","","","","","","","","","","","","","","","","","","","","","",""
"image-keyboard-response","235","490130","0.0-4.0-6.0-1.0-2.52","5d1765dbe784250019adf3ed","63690f60c96a0a9a64b48fbc","63691dbc32adbdaa10094e8d","null","","null","","","","","","","","./tasks/HMM-beads/Images/BlackBeadChoiceWrong.png","","","","","","","","","","","","","","","","","","","","","","","",""
"image-keyboard-response","236","490362","0.0-4.0-6.0-1.0-0.53","5d1765dbe784250019adf3ed","63690f60c96a0a9a64b48fbc","63691dbc32adbdaa10094e8d","232","","j","","","","","","","","./tasks/HMM-beads/Images/NewTrialWC.png","lowH","53","2","2","2","2","true","","","","","","","","","","","","","","","","",""
"image-keyboard-response","237","490666","0.0-4.0-6.0-1.0-1.53","5d1765dbe784250019adf3ed","63690f60c96a0a9a64b48fbc","63691dbc32adbdaa10094e8d","null","","null","","","","","","","","./tasks/HMM-beads/Images/WhiteBeadChoice.png","","","","","","","","","","","","","","","","","","","","","","","",""
"image-keyboard-response","238","491174","0.0-4.0-6.0-1.0-2.53","5d1765dbe784250019adf3ed","63690f60c96a0a9a64b48fbc","63691dbc32adbdaa10094e8d","null","","null","","","","","","","","./tasks/HMM-beads/Images/WhiteBeadChoiceCorrect.png","","","","","","","","","","","","","","","","","","","","","","","",""
"image-keyboard-response","239","491360","0.0-4.0-6.0-1.0-0.54","5d1765dbe784250019adf3ed","63690f60c96a0a9a64b48fbc","63691dbc32adbdaa10094e8d","186","","j","","","","","","","","./tasks/HMM-beads/Images/NewTrialWC.png","lowH","54","2","2","2","2","true","","","","","","","","","","","","","","","","",""
"image-keyboard-response","240","491677","0.0-4.0-6.0-1.0-1.54","5d1765dbe784250019adf3ed","63690f60c96a0a9a64b48fbc","63691dbc32adbdaa10094e8d","null","","null","","","","","","","","./tasks/HMM-beads/Images/WhiteBeadChoice.png","","","","","","","","","","","","","","","","","","","","","","","",""
"image-keyboard-response","241","492200","0.0-4.0-6.0-1.0-2.54","5d1765dbe784250019adf3ed","63690f60c96a0a9a64b48fbc","63691dbc32adbdaa10094e8d","null","","null","","","","","","","","./tasks/HMM-beads/Images/WhiteBeadChoiceCorrect.png","","","","","","","","","","","","","","","","","","","","","","","",""
"image-keyboard-response","242","492488","0.0-4.0-6.0-1.0-0.55","5d1765dbe784250019adf3ed","63690f60c96a0a9a64b48fbc","63691dbc32adbdaa10094e8d","288","","j","","","","","","","","./tasks/HMM-beads/Images/NewTrialWC.png","lowH","55","2","2","2","2","true","","","","","","","","","","","","","","","","",""
"image-keyboard-response","243","492798","0.0-4.0-6.0-1.0-1.55","5d1765dbe784250019adf3ed","63690f60c96a0a9a64b48fbc","63691dbc32adbdaa10094e8d","null","","null","","","","","","","","./tasks/HMM-beads/Images/WhiteBeadChoice.png","","","","","","","","","","","","","","","","","","","","","","","",""
"image-keyboard-response","244","493318","0.0-4.0-6.0-1.0-2.55","5d1765dbe784250019adf3ed","63690f60c96a0a9a64b48fbc","63691dbc32adbdaa10094e8d","null","","null","","","","","","","","./tasks/HMM-beads/Images/WhiteBeadChoiceCorrect.png","","","","","","","","","","","","","","","","","","","","","","","",""
"image-keyboard-response","245","493444","0.0-4.0-6.0-1.0-0.56","5d1765dbe784250019adf3ed","63690f60c96a0a9a64b48fbc","63691dbc32adbdaa10094e8d","126","","j","","","","","","","","./tasks/HMM-beads/Images/NewTrialWC.png","lowH","56","2","1","2","2","false","","","","","","","","","","","","","","","","",""
"image-keyboard-response","246","493754","0.0-4.0-6.0-1.0-1.56","5d1765dbe784250019adf3ed","63690f60c96a0a9a64b48fbc","63691dbc32adbdaa10094e8d","null","","null","","","","","","","","./tasks/HMM-beads/Images/WhiteBeadChoice.png","","","","","","","","","","","","","","","","","","","","","","","",""
"image-keyboard-response","247","494260","0.0-4.0-6.0-1.0-2.56","5d1765dbe784250019adf3ed","63690f60c96a0a9a64b48fbc","63691dbc32adbdaa10094e8d","null","","null","","","","","","","","./tasks/HMM-beads/Images/WhiteBeadChoiceWrong.png","","","","","","","","","","","","","","","","","","","","","","","",""
"image-keyboard-response","248","495023","0.0-4.0-6.0-1.0-0.57","5d1765dbe784250019adf3ed","63690f60c96a0a9a64b48fbc","63691dbc32adbdaa10094e8d","763","","f","","","","","","","","./tasks/HMM-beads/Images/NewTrialBC.png","lowH","57","2","2","1","1","false","","","","","","","","","","","","","","","","",""
"image-keyboard-response","249","495332","0.0-4.0-6.0-1.0-1.57","5d1765dbe784250019adf3ed","63690f60c96a0a9a64b48fbc","63691dbc32adbdaa10094e8d","null","","null","","","","","","","","./tasks/HMM-beads/Images/BlackBeadChoice.png","","","","","","","","","","","","","","","","","","","","","","","",""
"image-keyboard-response","250","495845","0.0-4.0-6.0-1.0-2.57","5d1765dbe784250019adf3ed","63690f60c96a0a9a64b48fbc","63691dbc32adbdaa10094e8d","null","","null","","","","","","","","./tasks/HMM-beads/Images/BlackBeadChoiceWrong.png","","","","","","","","","","","","","","","","","","","","","","","",""
"image-keyboard-response","251","496001","0.0-4.0-6.0-1.0-0.58","5d1765dbe784250019adf3ed","63690f60c96a0a9a64b48fbc","63691dbc32adbdaa10094e8d","155","","j","","","","","","","","./tasks/HMM-beads/Images/NewTrialWC.png","lowH","58","2","1","2","2","false","","","","","","","","","","","","","","","","",""
"image-keyboard-response","252","496319","0.0-4.0-6.0-1.0-1.58","5d1765dbe784250019adf3ed","63690f60c96a0a9a64b48fbc","63691dbc32adbdaa10094e8d","null","","null","","","","","","","","./tasks/HMM-beads/Images/WhiteBeadChoice.png","","","","","","","","","","","","","","","","","","","","","","","",""
"image-keyboard-response","253","496839","0.0-4.0-6.0-1.0-2.58","5d1765dbe784250019adf3ed","63690f60c96a0a9a64b48fbc","63691dbc32adbdaa10094e8d","null","","null","","","","","","","","./tasks/HMM-beads/Images/WhiteBeadChoiceWrong.png","","","","","","","","","","","","","","","","","","","","","","","",""
"image-keyboard-response","254","497238","0.0-4.0-6.0-1.0-0.59","5d1765dbe784250019adf3ed","63690f60c96a0a9a64b48fbc","63691dbc32adbdaa10094e8d","398","","j","","","","","","","","./tasks/HMM-beads/Images/NewTrialBC.png","lowH","59","2","1","1","2","false","","","","","","","","","","","","","","","","",""
"image-keyboard-response","255","497546","0.0-4.0-6.0-1.0-1.59","5d1765dbe784250019adf3ed","63690f60c96a0a9a64b48fbc","63691dbc32adbdaa10094e8d","null","","null","","","","","","","","./tasks/HMM-beads/Images/WhiteBeadChoice.png","","","","","","","","","","","","","","","","","","","","","","","",""
"image-keyboard-response","256","498053","0.0-4.0-6.0-1.0-2.59","5d1765dbe784250019adf3ed","63690f60c96a0a9a64b48fbc","63691dbc32adbdaa10094e8d","null","","null","","","","","","","","./tasks/HMM-beads/Images/WhiteBeadChoiceWrong.png","","","","","","","","","","","","","","","","","","","","","","","",""
"image-keyboard-response","257","499241","0.0-4.0-6.0-1.0-0.60","5d1765dbe784250019adf3ed","63690f60c96a0a9a64b48fbc","63691dbc32adbdaa10094e8d","1188","","f","","","","","","","","./tasks/HMM-beads/Images/NewTrialBC.png","lowH","60","2","2","1","1","false","","","","","","","","","","","","","","","","",""
"image-keyboard-response","258","499547","0.0-4.0-6.0-1.0-1.60","5d1765dbe784250019adf3ed","63690f60c96a0a9a64b48fbc","63691dbc32adbdaa10094e8d","null","","null","","","","","","","","./tasks/HMM-beads/Images/BlackBeadChoice.png","","","","","","","","","","","","","","","","","","","","","","","",""
"image-keyboard-response","259","500065","0.0-4.0-6.0-1.0-2.60","5d1765dbe784250019adf3ed","63690f60c96a0a9a64b48fbc","63691dbc32adbdaa10094e8d","null","","null","","","","","","","","./tasks/HMM-beads/Images/BlackBeadChoiceWrong.png","","","","","","","","","","","","","","","","","","","","","","","",""
"image-keyboard-response","260","500083","0.0-4.0-6.0-1.0-0.61","5d1765dbe784250019adf3ed","63690f60c96a0a9a64b48fbc","63691dbc32adbdaa10094e8d","18","","j","","","","","","","","./tasks/HMM-beads/Images/NewTrialWC.png","lowH","61","2","2","2","2","true","","","","","","","","","","","","","","","","",""
"image-keyboard-response","261","500392","0.0-4.0-6.0-1.0-1.61","5d1765dbe784250019adf3ed","63690f60c96a0a9a64b48fbc","63691dbc32adbdaa10094e8d","null","","null","","","","","","","","./tasks/HMM-beads/Images/WhiteBeadChoice.png","","","","","","","","","","","","","","","","","","","","","","","",""
"image-keyboard-response","262","500909","0.0-4.0-6.0-1.0-2.61","5d1765dbe784250019adf3ed","63690f60c96a0a9a64b48fbc","63691dbc32adbdaa10094e8d","null","","null","","","","","","","","./tasks/HMM-beads/Images/WhiteBeadChoiceCorrect.png","","","","","","","","","","","","","","","","","","","","","","","",""
"image-keyboard-response","263","501247","0.0-4.0-6.0-1.0-0.62","5d1765dbe784250019adf3ed","63690f60c96a0a9a64b48fbc","63691dbc32adbdaa10094e8d","338","","j","","","","","","","","./tasks/HMM-beads/Images/NewTrialWC.png","lowH","62","2","2","2","2","true","","","","","","","","","","","","","","","","",""
"image-keyboard-response","264","501557","0.0-4.0-6.0-1.0-1.62","5d1765dbe784250019adf3ed","63690f60c96a0a9a64b48fbc","63691dbc32adbdaa10094e8d","null","","null","","","","","","","","./tasks/HMM-beads/Images/WhiteBeadChoice.png","","","","","","","","","","","","","","","","","","","","","","","",""
"image-keyboard-response","265","502074","0.0-4.0-6.0-1.0-2.62","5d1765dbe784250019adf3ed","63690f60c96a0a9a64b48fbc","63691dbc32adbdaa10094e8d","null","","null","","","","","","","","./tasks/HMM-beads/Images/WhiteBeadChoiceCorrect.png","","","","","","","","","","","","","","","","","","","","","","","",""
"image-keyboard-response","266","502284","0.0-4.0-6.0-1.0-0.63","5d1765dbe784250019adf3ed","63690f60c96a0a9a64b48fbc","63691dbc32adbdaa10094e8d","210","","j","","","","","","","","./tasks/HMM-beads/Images/NewTrialWC.png","lowH","63","2","1","2","2","false","","","","","","","","","","","","","","","","",""
"image-keyboard-response","267","502594","0.0-4.0-6.0-1.0-1.63","5d1765dbe784250019adf3ed","63690f60c96a0a9a64b48fbc","63691dbc32adbdaa10094e8d","null","","null","","","","","","","","./tasks/HMM-beads/Images/WhiteBeadChoice.png","","","","","","","","","","","","","","","","","","","","","","","",""
"image-keyboard-response","268","503101","0.0-4.0-6.0-1.0-2.63","5d1765dbe784250019adf3ed","63690f60c96a0a9a64b48fbc","63691dbc32adbdaa10094e8d","null","","null","","","","","","","","./tasks/HMM-beads/Images/WhiteBeadChoiceWrong.png","","","","","","","","","","","","","","","","","","","","","","","",""
"image-keyboard-response","269","503285","0.0-4.0-6.0-1.0-0.64","5d1765dbe784250019adf3ed","63690f60c96a0a9a64b48fbc","63691dbc32adbdaa10094e8d","183","","f","","","","","","","","./tasks/HMM-beads/Images/NewTrialBC.png","lowH","64","2","2","1","1","false","","","","","","","","","","","","","","","","",""
"image-keyboard-response","270","503592","0.0-4.0-6.0-1.0-1.64","5d1765dbe784250019adf3ed","63690f60c96a0a9a64b48fbc","63691dbc32adbdaa10094e8d","null","","null","","","","","","","","./tasks/HMM-beads/Images/BlackBeadChoice.png","","","","","","","","","","","","","","","","","","","","","","","",""
"image-keyboard-response","271","504111","0.0-4.0-6.0-1.0-2.64","5d1765dbe784250019adf3ed","63690f60c96a0a9a64b48fbc","63691dbc32adbdaa10094e8d","null","","null","","","","","","","","./tasks/HMM-beads/Images/BlackBeadChoiceWrong.png","","","","","","","","","","","","","","","","","","","","","","","",""
"image-keyboard-response","272","504202","0.0-4.0-6.0-1.0-0.65","5d1765dbe784250019adf3ed","63690f60c96a0a9a64b48fbc","63691dbc32adbdaa10094e8d","89","","j","","","","","","","","./tasks/HMM-beads/Images/NewTrialWC.png","lowH","65","2","2","2","2","true","","","","","","","","","","","","","","","","",""
"image-keyboard-response","273","504510","0.0-4.0-6.0-1.0-1.65","5d1765dbe784250019adf3ed","63690f60c96a0a9a64b48fbc","63691dbc32adbdaa10094e8d","null","","null","","","","","","","","./tasks/HMM-beads/Images/WhiteBeadChoice.png","","","","","","","","","","","","","","","","","","","","","","","",""
"image-keyboard-response","274","505031","0.0-4.0-6.0-1.0-2.65","5d1765dbe784250019adf3ed","63690f60c96a0a9a64b48fbc","63691dbc32adbdaa10094e8d","null","","null","","","","","","","","./tasks/HMM-beads/Images/WhiteBeadChoiceCorrect.png","","","","","","","","","","","","","","","","","","","","","","","",""
"image-keyboard-response","275","505252","0.0-4.0-6.0-1.0-0.66","5d1765dbe784250019adf3ed","63690f60c96a0a9a64b48fbc","63691dbc32adbdaa10094e8d","220","","j","","","","","","","","./tasks/HMM-beads/Images/NewTrialWC.png","lowH","66","2","1","2","2","false","","","","","","","","","","","","","","","","",""
"image-keyboard-response","276","505555","0.0-4.0-6.0-1.0-1.66","5d1765dbe784250019adf3ed","63690f60c96a0a9a64b48fbc","63691dbc32adbdaa10094e8d","null","","null","","","","","","","","./tasks/HMM-beads/Images/WhiteBeadChoice.png","","","","","","","","","","","","","","","","","","","","","","","",""
"image-keyboard-response","277","506062","0.0-4.0-6.0-1.0-2.66","5d1765dbe784250019adf3ed","63690f60c96a0a9a64b48fbc","63691dbc32adbdaa10094e8d","null","","null","","","","","","","","./tasks/HMM-beads/Images/WhiteBeadChoiceWrong.png","","","","","","","","","","","","","","","","","","","","","","","",""
"image-keyboard-response","278","507275","0.0-4.0-6.0-1.0-0.67","5d1765dbe784250019adf3ed","63690f60c96a0a9a64b48fbc","63691dbc32adbdaa10094e8d","1213","","j","","","","","","","","./tasks/HMM-beads/Images/NewTrialBC.png","lowH","67","2","2","1","2","true","","","","","","","","","","","","","","","","",""
"image-keyboard-response","279","507585","0.0-4.0-6.0-1.0-1.67","5d1765dbe784250019adf3ed","63690f60c96a0a9a64b48fbc","63691dbc32adbdaa10094e8d","null","","null","","","","","","","","./tasks/HMM-beads/Images/WhiteBeadChoice.png","","","","","","","","","","","","","","","","","","","","","","","",""
"image-keyboard-response","280","508106","0.0-4.0-6.0-1.0-2.67","5d1765dbe784250019adf3ed","63690f60c96a0a9a64b48fbc","63691dbc32adbdaa10094e8d","null","","null","","","","","","","","./tasks/HMM-beads/Images/WhiteBeadChoiceCorrect.png","","","","","","","","","","","","","","","","","","","","","","","",""
"image-keyboard-response","281","508366","0.0-4.0-6.0-1.0-0.68","5d1765dbe784250019adf3ed","63690f60c96a0a9a64b48fbc","63691dbc32adbdaa10094e8d","260","","j","","","","","","","","./tasks/HMM-beads/Images/NewTrialWC.png","lowH","68","2","2","2","2","true","","","","","","","","","","","","","","","","",""
"image-keyboard-response","282","508689","0.0-4.0-6.0-1.0-1.68","5d1765dbe784250019adf3ed","63690f60c96a0a9a64b48fbc","63691dbc32adbdaa10094e8d","null","","null","","","","","","","","./tasks/HMM-beads/Images/WhiteBeadChoice.png","","","","","","","","","","","","","","","","","","","","","","","",""
"image-keyboard-response","283","509207","0.0-4.0-6.0-1.0-2.68","5d1765dbe784250019adf3ed","63690f60c96a0a9a64b48fbc","63691dbc32adbdaa10094e8d","null","","null","","","","","","","","./tasks/HMM-beads/Images/WhiteBeadChoiceCorrect.png","","","","","","","","","","","","","","","","","","","","","","","",""
"image-keyboard-response","284","509377","0.0-4.0-6.0-1.0-0.69","5d1765dbe784250019adf3ed","63690f60c96a0a9a64b48fbc","63691dbc32adbdaa10094e8d","170","","j","","","","","","","","./tasks/HMM-beads/Images/NewTrialWC.png","lowH","69","2","2","2","2","true","","","","","","","","","","","","","","","","",""
"image-keyboard-response","285","509695","0.0-4.0-6.0-1.0-1.69","5d1765dbe784250019adf3ed","63690f60c96a0a9a64b48fbc","63691dbc32adbdaa10094e8d","null","","null","","","","","","","","./tasks/HMM-beads/Images/WhiteBeadChoice.png","","","","","","","","","","","","","","","","","","","","","","","",""
"image-keyboard-response","286","510216","0.0-4.0-6.0-1.0-2.69","5d1765dbe784250019adf3ed","63690f60c96a0a9a64b48fbc","63691dbc32adbdaa10094e8d","null","","null","","","","","","","","./tasks/HMM-beads/Images/WhiteBeadChoiceCorrect.png","","","","","","","","","","","","","","","","","","","","","","","",""
"image-keyboard-response","287","510419","0.0-4.0-6.0-1.0-0.70","5d1765dbe784250019adf3ed","63690f60c96a0a9a64b48fbc","63691dbc32adbdaa10094e8d","202","","j","","","","","","","","./tasks/HMM-beads/Images/NewTrialWC.png","lowH","70","2","2","2","2","true","","","","","","","","","","","","","","","","",""
"image-keyboard-response","288","510735","0.0-4.0-6.0-1.0-1.70","5d1765dbe784250019adf3ed","63690f60c96a0a9a64b48fbc","63691dbc32adbdaa10094e8d","null","","null","","","","","","","","./tasks/HMM-beads/Images/WhiteBeadChoice.png","","","","","","","","","","","","","","","","","","","","","","","",""
"image-keyboard-response","289","511249","0.0-4.0-6.0-1.0-2.70","5d1765dbe784250019adf3ed","63690f60c96a0a9a64b48fbc","63691dbc32adbdaa10094e8d","null","","null","","","","","","","","./tasks/HMM-beads/Images/WhiteBeadChoiceCorrect.png","","","","","","","","","","","","","","","","","","","","","","","",""
"image-keyboard-response","290","511475","0.0-4.0-6.0-1.0-0.71","5d1765dbe784250019adf3ed","63690f60c96a0a9a64b48fbc","63691dbc32adbdaa10094e8d","225","","j","","","","","","","","./tasks/HMM-beads/Images/NewTrialWC.png","lowH","71","2","2","2","2","true","","","","","","","","","","","","","","","","",""
"image-keyboard-response","291","511782","0.0-4.0-6.0-1.0-1.71","5d1765dbe784250019adf3ed","63690f60c96a0a9a64b48fbc","63691dbc32adbdaa10094e8d","null","","null","","","","","","","","./tasks/HMM-beads/Images/WhiteBeadChoice.png","","","","","","","","","","","","","","","","","","","","","","","",""
"image-keyboard-response","292","512298","0.0-4.0-6.0-1.0-2.71","5d1765dbe784250019adf3ed","63690f60c96a0a9a64b48fbc","63691dbc32adbdaa10094e8d","null","","null","","","","","","","","./tasks/HMM-beads/Images/WhiteBeadChoiceCorrect.png","","","","","","","","","","","","","","","","","","","","","","","",""
"image-keyboard-response","293","512528","0.0-4.0-6.0-1.0-0.72","5d1765dbe784250019adf3ed","63690f60c96a0a9a64b48fbc","63691dbc32adbdaa10094e8d","230","","j","","","","","","","","./tasks/HMM-beads/Images/NewTrialWC.png","lowH","72","2","1","2","2","false","","","","","","","","","","","","","","","","",""
"image-keyboard-response","294","512845","0.0-4.0-6.0-1.0-1.72","5d1765dbe784250019adf3ed","63690f60c96a0a9a64b48fbc","63691dbc32adbdaa10094e8d","null","","null","","","","","","","","./tasks/HMM-beads/Images/WhiteBeadChoice.png","","","","","","","","","","","","","","","","","","","","","","","",""
"image-keyboard-response","295","513364","0.0-4.0-6.0-1.0-2.72","5d1765dbe784250019adf3ed","63690f60c96a0a9a64b48fbc","63691dbc32adbdaa10094e8d","null","","null","","","","","","","","./tasks/HMM-beads/Images/WhiteBeadChoiceWrong.png","","","","","","","","","","","","","","","","","","","","","","","",""
"image-keyboard-response","296","513581","0.0-4.0-6.0-1.0-0.73","5d1765dbe784250019adf3ed","63690f60c96a0a9a64b48fbc","63691dbc32adbdaa10094e8d","217","","f","","","","","","","","./tasks/HMM-beads/Images/NewTrialBC.png","lowH","73","2","2","1","1","false","","","","","","","","","","","","","","","","",""
"image-keyboard-response","297","513902","0.0-4.0-6.0-1.0-1.73","5d1765dbe784250019adf3ed","63690f60c96a0a9a64b48fbc","63691dbc32adbdaa10094e8d","null","","null","","","","","","","","./tasks/HMM-beads/Images/BlackBeadChoice.png","","","","","","","","","","","","","","","","","","","","","","","",""
"image-keyboard-response","298","514419","0.0-4.0-6.0-1.0-2.73","5d1765dbe784250019adf3ed","63690f60c96a0a9a64b48fbc","63691dbc32adbdaa10094e8d","null","","null","","","","","","","","./tasks/HMM-beads/Images/BlackBeadChoiceWrong.png","","","","","","","","","","","","","","","","","","","","","","","",""
"image-keyboard-response","299","514474","0.0-4.0-6.0-1.0-0.74","5d1765dbe784250019adf3ed","63690f60c96a0a9a64b48fbc","63691dbc32adbdaa10094e8d","55","","j","","","","","","","","./tasks/HMM-beads/Images/NewTrialWC.png","lowH","74","2","1","2","2","false","","","","","","","","","","","","","","","","",""
"image-keyboard-response","300","514780","0.0-4.0-6.0-1.0-1.74","5d1765dbe784250019adf3ed","63690f60c96a0a9a64b48fbc","63691dbc32adbdaa10094e8d","null","","null","","","","","","","","./tasks/HMM-beads/Images/WhiteBeadChoice.png","","","","","","","","","","","","","","","","","","","","","","","",""
"image-keyboard-response","301","515284","0.0-4.0-6.0-1.0-2.74","5d1765dbe784250019adf3ed","63690f60c96a0a9a64b48fbc","63691dbc32adbdaa10094e8d","null","","null","","","","","","","","./tasks/HMM-beads/Images/WhiteBeadChoiceWrong.png","","","","","","","","","","","","","","","","","","","","","","","",""
"image-keyboard-response","302","515833","0.0-4.0-6.0-1.0-0.75","5d1765dbe784250019adf3ed","63690f60c96a0a9a64b48fbc","63691dbc32adbdaa10094e8d","549","","f","","","","","","","","./tasks/HMM-beads/Images/NewTrialBC.png","lowH","75","2","2","1","1","false","","","","","","","","","","","","","","","","",""
"image-keyboard-response","303","516147","0.0-4.0-6.0-1.0-1.75","5d1765dbe784250019adf3ed","63690f60c96a0a9a64b48fbc","63691dbc32adbdaa10094e8d","null","","null","","","","","","","","./tasks/HMM-beads/Images/BlackBeadChoice.png","","","","","","","","","","","","","","","","","","","","","","","",""
"image-keyboard-response","304","516651","0.0-4.0-6.0-1.0-2.75","5d1765dbe784250019adf3ed","63690f60c96a0a9a64b48fbc","63691dbc32adbdaa10094e8d","null","","null","","","","","","","","./tasks/HMM-beads/Images/BlackBeadChoiceWrong.png","","","","","","","","","","","","","","","","","","","","","","","",""
"image-keyboard-response","305","517595","0.0-4.0-6.0-1.0-0.76","5d1765dbe784250019adf3ed","63690f60c96a0a9a64b48fbc","63691dbc32adbdaa10094e8d","944","","j","","","","","","","","./tasks/HMM-beads/Images/NewTrialWC.png","lowH","76","2","1","2","2","false","","","","","","","","","","","","","","","","",""
"image-keyboard-response","306","517902","0.0-4.0-6.0-1.0-1.76","5d1765dbe784250019adf3ed","63690f60c96a0a9a64b48fbc","63691dbc32adbdaa10094e8d","null","","null","","","","","","","","./tasks/HMM-beads/Images/WhiteBeadChoice.png","","","","","","","","","","","","","","","","","","","","","","","",""
"image-keyboard-response","307","518417","0.0-4.0-6.0-1.0-2.76","5d1765dbe784250019adf3ed","63690f60c96a0a9a64b48fbc","63691dbc32adbdaa10094e8d","null","","null","","","","","","","","./tasks/HMM-beads/Images/WhiteBeadChoiceWrong.png","","","","","","","","","","","","","","","","","","","","","","","",""
"image-keyboard-response","308","518945","0.0-4.0-6.0-1.0-0.77","5d1765dbe784250019adf3ed","63690f60c96a0a9a64b48fbc","63691dbc32adbdaa10094e8d","528","","j","","","","","","","","./tasks/HMM-beads/Images/NewTrialBC.png","lowH","77","2","2","1","2","true","","","","","","","","","","","","","","","","",""
"image-keyboard-response","309","519261","0.0-4.0-6.0-1.0-1.77","5d1765dbe784250019adf3ed","63690f60c96a0a9a64b48fbc","63691dbc32adbdaa10094e8d","null","","null","","","","","","","","./tasks/HMM-beads/Images/WhiteBeadChoice.png","","","","","","","","","","","","","","","","","","","","","","","",""
"image-keyboard-response","310","519783","0.0-4.0-6.0-1.0-2.77","5d1765dbe784250019adf3ed","63690f60c96a0a9a64b48fbc","63691dbc32adbdaa10094e8d","null","","null","","","","","","","","./tasks/HMM-beads/Images/WhiteBeadChoiceCorrect.png","","","","","","","","","","","","","","","","","","","","","","","",""
"image-keyboard-response","311","519834","0.0-4.0-6.0-1.0-0.78","5d1765dbe784250019adf3ed","63690f60c96a0a9a64b48fbc","63691dbc32adbdaa10094e8d","50","","j","","","","","","","","./tasks/HMM-beads/Images/NewTrialWC.png","lowH","78","2","2","2","2","true","","","","","","","","","","","","","","","","",""
"image-keyboard-response","312","520141","0.0-4.0-6.0-1.0-1.78","5d1765dbe784250019adf3ed","63690f60c96a0a9a64b48fbc","63691dbc32adbdaa10094e8d","null","","null","","","","","","","","./tasks/HMM-beads/Images/WhiteBeadChoice.png","","","","","","","","","","","","","","","","","","","","","","","",""
"image-keyboard-response","313","520658","0.0-4.0-6.0-1.0-2.78","5d1765dbe784250019adf3ed","63690f60c96a0a9a64b48fbc","63691dbc32adbdaa10094e8d","null","","null","","","","","","","","./tasks/HMM-beads/Images/WhiteBeadChoiceCorrect.png","","","","","","","","","","","","","","","","","","","","","","","",""
"image-keyboard-response","314","520902","0.0-4.0-6.0-1.0-0.79","5d1765dbe784250019adf3ed","63690f60c96a0a9a64b48fbc","63691dbc32adbdaa10094e8d","242","","j","","","","","","","","./tasks/HMM-beads/Images/NewTrialWC.png","lowH","79","2","2","2","2","true","","","","","","","","","","","","","","","","",""
"image-keyboard-response","315","521214","0.0-4.0-6.0-1.0-1.79","5d1765dbe784250019adf3ed","63690f60c96a0a9a64b48fbc","63691dbc32adbdaa10094e8d","null","","null","","","","","","","","./tasks/HMM-beads/Images/WhiteBeadChoice.png","","","","","","","","","","","","","","","","","","","","","","","",""
"image-keyboard-response","316","521730","0.0-4.0-6.0-1.0-2.79","5d1765dbe784250019adf3ed","63690f60c96a0a9a64b48fbc","63691dbc32adbdaa10094e8d","null","","null","","","","","","","","./tasks/HMM-beads/Images/WhiteBeadChoiceCorrect.png","","","","","","","","","","","","","","","","","","","","","","","",""
"image-keyboard-response","317","521976","0.0-4.0-6.0-1.0-0.80","5d1765dbe784250019adf3ed","63690f60c96a0a9a64b48fbc","63691dbc32adbdaa10094e8d","246","","j","","","","","","","","./tasks/HMM-beads/Images/NewTrialWC.png","lowH","80","2","2","2","2","true","","","","","","","","","","","","","","","","",""
"image-keyboard-response","318","522295","0.0-4.0-6.0-1.0-1.80","5d1765dbe784250019adf3ed","63690f60c96a0a9a64b48fbc","63691dbc32adbdaa10094e8d","null","","null","","","","","","","","./tasks/HMM-beads/Images/WhiteBeadChoice.png","","","","","","","","","","","","","","","","","","","","","","","",""
"image-keyboard-response","319","522803","0.0-4.0-6.0-1.0-2.80","5d1765dbe784250019adf3ed","63690f60c96a0a9a64b48fbc","63691dbc32adbdaa10094e8d","null","","null","","","","","","","","./tasks/HMM-beads/Images/WhiteBeadChoiceCorrect.png","","","","","","","","","","","","","","","","","","","","","","","",""
"image-keyboard-response","320","523072","0.0-4.0-6.0-1.0-0.81","5d1765dbe784250019adf3ed","63690f60c96a0a9a64b48fbc","63691dbc32adbdaa10094e8d","268","","j","","","","","","","","./tasks/HMM-beads/Images/NewTrialWC.png","lowH","81","2","2","2","2","true","","","","","","","","","","","","","","","","",""
"image-keyboard-response","321","523382","0.0-4.0-6.0-1.0-1.81","5d1765dbe784250019adf3ed","63690f60c96a0a9a64b48fbc","63691dbc32adbdaa10094e8d","null","","null","","","","","","","","./tasks/HMM-beads/Images/WhiteBeadChoice.png","","","","","","","","","","","","","","","","","","","","","","","",""
