"trial_type","trial_index","time_elapsed","internal_node_id","subject_id","study_id","session_id","rt","url","response","question_order","view_history","success","timeout","failed_images","failed_audio","failed_video","stimulus","block","trial_number","jar","bead","previous_bead","choice","correct","lowH_score","highH_score","state","rewarded","state1_action","state2_visited","state1_key","state2_key","state1_rt","state2_rt","block_num","seq_file","trial_seq_info","two_arm_score_block1","two_arm_score_block2","two_arm_score_total","total_bonus"
"pavlovia","0","1090","0.0-0.0","6156498c17bdcd7cb70c420c","63690f60c96a0a9a64b48fbd","6369198e4c6491b45651c5dc","","","","","","","","","","","","","","","","","","","","","","","","","","","","","","","","","","",""
"external-html","1","15708","0.0-1.0-0.0","6156498c17bdcd7cb70c420c","63690f60c96a0a9a64b48fbd","6369198e4c6491b45651c5dc","14506","new_consent.html","","","","","","","","","","","","","","","","","","","","","","","","","","","","","","","","",""
"survey-multi-choice","2","23423","0.0-1.0-1.0","6156498c17bdcd7cb70c420c","63690f60c96a0a9a64b48fbd","6369198e4c6491b45651c5dc","7714","","{""Q0"":""Female"",""Q1"":""White""}","[0,1]","","","","","","","","","","","","","","","","","","","","","","","","","","","","","","",""
"survey-text","3","27037","0.0-1.0-2.0","6156498c17bdcd7cb70c420c","63690f60c96a0a9a64b48fbd","6369198e4c6491b45651c5dc","3611","","{""Q0"":""38""}","","","","","","","","","","","","","","","","","","","","","","","","","","","","","","","",""
"instructions","4","44002","0.0-2.0","6156498c17bdcd7cb70c420c","63690f60c96a0a9a64b48fbd","6369198e4c6491b45651c5dc","16846","","","","[{""page_index"":0,""viewing_time"":14802},{""page_index"":1,""viewing_time"":2044}]","","","","","","","","","","","","","","","","","","","","","","","","","","","","","",""
"instructions","5","45414","0.0-3.0","6156498c17bdcd7cb70c420c","63690f60c96a0a9a64b48fbd","6369198e4c6491b45651c5dc","1411","","","","[{""page_index"":0,""viewing_time"":1411}]","","","","","","","","","","","","","","","","","","","","","","","","","","","","","",""
"preload","6","46302","0.0-4.0-0.0","6156498c17bdcd7cb70c420c","63690f60c96a0a9a64b48fbd","6369198e4c6491b45651c5dc","","","","","","true","false","[]","[]","[]","","","","","","","","","","","","","","","","","","","","","","","","",""
"instructions","7","134556","0.0-4.0-1.0","6156498c17bdcd7cb70c420c","63690f60c96a0a9a64b48fbd","6369198e4c6491b45651c5dc","88247","","","","[{""page_index"":0,""viewing_time"":12531},{""page_index"":1,""viewing_time"":7796},{""page_index"":2,""viewing_time"":5040},{""page_index"":3,""viewing_time"":2966},{""page_index"":4,""viewing_time"":11905},{""page_index"":5,""viewing_time"":12057},{""page_index"":6,""viewing_time"":5660},{""page_index"":7,""viewing_time"":7243},{""page_index"":6,""viewing_time"":3049},{""page_index"":7,""viewing_time"":1780},{""page_index"":8,""viewing_time"":4992},{""page_index"":9,""viewing_time"":3620},{""page_index"":10,""viewing_time"":6644},{""page_index"":11,""viewing_time"":2964}]","","","","","","","","","","","","","","","","","","","","","","","","","","","","","",""
"html-button-response","8","138028","0.0-4.0-2.0-0.0-0.0","6156498c17bdcd7cb70c420c","63690f60c96a0a9a64b48fbd","6369198e4c6491b45651c5dc","3468","","1","","","","","","","","<div align=center>Your goal is to predict…?<br><br></div>","","","","","","","","","","","","","","","","","","","","","","","",""
"html-button-response","9","144732","0.0-4.0-2.0-1.0-0.0","6156498c17bdcd7cb70c420c","63690f60c96a0a9a64b48fbd","6369198e4c6491b45651c5dc","5177","","2","","","","","","","","<div align=center>In the jar with mostly white beads, there are ___% white beads and ___% black beads?<br><br></div>","","","","","","","","","","","","","","","","","","","","","","","",""
"html-button-response","10","153033","0.0-4.0-2.0-2.0-0.0","6156498c17bdcd7cb70c420c","63690f60c96a0a9a64b48fbd","6369198e4c6491b45651c5dc","7263","","0","","","","","","","","<div align=center>When there is a 1% probability that the jars will switch, the next bead will most likely be drawn from the…<br><br></div>","","","","","","","","","","","","","","","","","","","","","","","",""
"html-button-response","11","156913","0.0-4.0-2.0-3.0-0.0","6156498c17bdcd7cb70c420c","63690f60c96a0a9a64b48fbd","6369198e4c6491b45651c5dc","2685","","1","","","","","","","","<div align=center>When there is a 99% probability that the jars will switch, the next bead will most likely be drawn from the…<br><br></div>","","","","","","","","","","","","","","","","","","","","","","","",""
"instructions","12","170652","0.0-4.0-3.0","6156498c17bdcd7cb70c420c","63690f60c96a0a9a64b48fbd","6369198e4c6491b45651c5dc","12480","","","","[{""page_index"":0,""viewing_time"":12480}]","","","","","","","","","","","","","","","","","","","","","","","","","","","","","",""
"html-keyboard-response","13","173979","0.0-4.0-4.0-0.0","6156498c17bdcd7cb70c420c","63690f60c96a0a9a64b48fbd","6369198e4c6491b45651c5dc","3326",""," ","","","","","","","","<div align=center>In this practice block, there will be a <b>10% chance</b> that the jar on the next trial will be different from the jar on the current trial.<br><br></div>","","","","","","","","","","","","","","","","","","","","","","","",""
"image-keyboard-response","14","180147","0.0-4.0-4.0-1.0-0.0","6156498c17bdcd7cb70c420c","63690f60c96a0a9a64b48fbd","6369198e4c6491b45651c5dc","6161","","f","","","","","","","","./tasks/HMM-beads/Images/NoChoice.png","practice","0","1","1","0","1","true","","","","","","","","","","","","","","","","",""
"image-keyboard-response","15","180469","0.0-4.0-4.0-1.0-1.0","6156498c17bdcd7cb70c420c","63690f60c96a0a9a64b48fbd","6369198e4c6491b45651c5dc","null","","null","","","","","","","","./tasks/HMM-beads/Images/BlackBeadChoice.png","","","","","","","","","","","","","","","","","","","","","","","",""
"image-keyboard-response","16","180980","0.0-4.0-4.0-1.0-2.0","6156498c17bdcd7cb70c420c","63690f60c96a0a9a64b48fbd","6369198e4c6491b45651c5dc","null","","null","","","","","","","","./tasks/HMM-beads/Images/BlackBeadChoiceCorrect.png","","","","","","","","","","","","","","","","","","","","","","","",""
"image-keyboard-response","17","183187","0.0-4.0-4.0-1.0-0.1","6156498c17bdcd7cb70c420c","63690f60c96a0a9a64b48fbd","6369198e4c6491b45651c5dc","2199","","f","","","","","","","","./tasks/HMM-beads/Images/NewTrialBC.png","practice","1","1","1","1","1","true","","","","","","","","","","","","","","","","",""
"image-keyboard-response","18","183489","0.0-4.0-4.0-1.0-1.1","6156498c17bdcd7cb70c420c","63690f60c96a0a9a64b48fbd","6369198e4c6491b45651c5dc","null","","null","","","","","","","","./tasks/HMM-beads/Images/BlackBeadChoice.png","","","","","","","","","","","","","","","","","","","","","","","",""
"image-keyboard-response","19","183999","0.0-4.0-4.0-1.0-2.1","6156498c17bdcd7cb70c420c","63690f60c96a0a9a64b48fbd","6369198e4c6491b45651c5dc","null","","null","","","","","","","","./tasks/HMM-beads/Images/BlackBeadChoiceCorrect.png","","","","","","","","","","","","","","","","","","","","","","","",""
"image-keyboard-response","20","185652","0.0-4.0-4.0-1.0-0.2","6156498c17bdcd7cb70c420c","63690f60c96a0a9a64b48fbd","6369198e4c6491b45651c5dc","1653","","f","","","","","","","","./tasks/HMM-beads/Images/NewTrialBC.png","practice","2","1","2","1","1","false","","","","","","","","","","","","","","","","",""
"image-keyboard-response","21","185964","0.0-4.0-4.0-1.0-1.2","6156498c17bdcd7cb70c420c","63690f60c96a0a9a64b48fbd","6369198e4c6491b45651c5dc","null","","null","","","","","","","","./tasks/HMM-beads/Images/BlackBeadChoice.png","","","","","","","","","","","","","","","","","","","","","","","",""
"image-keyboard-response","22","186474","0.0-4.0-4.0-1.0-2.2","6156498c17bdcd7cb70c420c","63690f60c96a0a9a64b48fbd","6369198e4c6491b45651c5dc","null","","null","","","","","","","","./tasks/HMM-beads/Images/BlackBeadChoiceWrong.png","","","","","","","","","","","","","","","","","","","","","","","",""
"image-keyboard-response","23","190196","0.0-4.0-4.0-1.0-0.3","6156498c17bdcd7cb70c420c","63690f60c96a0a9a64b48fbd","6369198e4c6491b45651c5dc","3711","","f","","","","","","","","./tasks/HMM-beads/Images/NewTrialWC.png","practice","3","1","1","2","1","true","","","","","","","","","","","","","","","","",""
"image-keyboard-response","24","190500","0.0-4.0-4.0-1.0-1.3","6156498c17bdcd7cb70c420c","63690f60c96a0a9a64b48fbd","6369198e4c6491b45651c5dc","null","","null","","","","","","","","./tasks/HMM-beads/Images/BlackBeadChoice.png","","","","","","","","","","","","","","","","","","","","","","","",""
"image-keyboard-response","25","191011","0.0-4.0-4.0-1.0-2.3","6156498c17bdcd7cb70c420c","63690f60c96a0a9a64b48fbd","6369198e4c6491b45651c5dc","null","","null","","","","","","","","./tasks/HMM-beads/Images/BlackBeadChoiceCorrect.png","","","","","","","","","","","","","","","","","","","","","","","",""
"image-keyboard-response","26","192187","0.0-4.0-4.0-1.0-0.4","6156498c17bdcd7cb70c420c","63690f60c96a0a9a64b48fbd","6369198e4c6491b45651c5dc","1175","","j","","","","","","","","./tasks/HMM-beads/Images/NewTrialBC.png","practice","4","1","2","1","2","true","","","","","","","","","","","","","","","","",""
"image-keyboard-response","27","192503","0.0-4.0-4.0-1.0-1.4","6156498c17bdcd7cb70c420c","63690f60c96a0a9a64b48fbd","6369198e4c6491b45651c5dc","null","","null","","","","","","","","./tasks/HMM-beads/Images/WhiteBeadChoice.png","","","","","","","","","","","","","","","","","","","","","","","",""
"image-keyboard-response","28","193012","0.0-4.0-4.0-1.0-2.4","6156498c17bdcd7cb70c420c","63690f60c96a0a9a64b48fbd","6369198e4c6491b45651c5dc","null","","null","","","","","","","","./tasks/HMM-beads/Images/WhiteBeadChoiceCorrect.png","","","","","","","","","","","","","","","","","","","","","","","",""
"image-keyboard-response","29","194259","0.0-4.0-4.0-1.0-0.5","6156498c17bdcd7cb70c420c","63690f60c96a0a9a64b48fbd","6369198e4c6491b45651c5dc","1247","","f","","","","","","","","./tasks/HMM-beads/Images/NewTrialWC.png","practice","5","1","1","2","1","true","","","","","","","","","","","","","","","","",""
"image-keyboard-response","30","194573","0.0-4.0-4.0-1.0-1.5","6156498c17bdcd7cb70c420c","63690f60c96a0a9a64b48fbd","6369198e4c6491b45651c5dc","null","","null","","","","","","","","./tasks/HMM-beads/Images/BlackBeadChoice.png","","","","","","","","","","","","","","","","","","","","","","","",""
"image-keyboard-response","31","195081","0.0-4.0-4.0-1.0-2.5","6156498c17bdcd7cb70c420c","63690f60c96a0a9a64b48fbd","6369198e4c6491b45651c5dc","null","","null","","","","","","","","./tasks/HMM-beads/Images/BlackBeadChoiceCorrect.png","","","","","","","","","","","","","","","","","","","","","","","",""
"image-keyboard-response","32","195932","0.0-4.0-4.0-1.0-0.6","6156498c17bdcd7cb70c420c","63690f60c96a0a9a64b48fbd","6369198e4c6491b45651c5dc","850","","f","","","","","","","","./tasks/HMM-beads/Images/NewTrialBC.png","practice","6","1","2","1","1","false","","","","","","","","","","","","","","","","",""
"image-keyboard-response","33","196240","0.0-4.0-4.0-1.0-1.6","6156498c17bdcd7cb70c420c","63690f60c96a0a9a64b48fbd","6369198e4c6491b45651c5dc","null","","null","","","","","","","","./tasks/HMM-beads/Images/BlackBeadChoice.png","","","","","","","","","","","","","","","","","","","","","","","",""
"image-keyboard-response","34","196751","0.0-4.0-4.0-1.0-2.6","6156498c17bdcd7cb70c420c","63690f60c96a0a9a64b48fbd","6369198e4c6491b45651c5dc","null","","null","","","","","","","","./tasks/HMM-beads/Images/BlackBeadChoiceWrong.png","","","","","","","","","","","","","","","","","","","","","","","",""
"image-keyboard-response","35","197235","0.0-4.0-4.0-1.0-0.7","6156498c17bdcd7cb70c420c","63690f60c96a0a9a64b48fbd","6369198e4c6491b45651c5dc","484","","j","","","","","","","","./tasks/HMM-beads/Images/NewTrialWC.png","practice","7","1","1","2","2","false","","","","","","","","","","","","","","","","",""
"image-keyboard-response","36","197540","0.0-4.0-4.0-1.0-1.7","6156498c17bdcd7cb70c420c","63690f60c96a0a9a64b48fbd","6369198e4c6491b45651c5dc","null","","null","","","","","","","","./tasks/HMM-beads/Images/WhiteBeadChoice.png","","","","","","","","","","","","","","","","","","","","","","","",""
"image-keyboard-response","37","198049","0.0-4.0-4.0-1.0-2.7","6156498c17bdcd7cb70c420c","63690f60c96a0a9a64b48fbd","6369198e4c6491b45651c5dc","null","","null","","","","","","","","./tasks/HMM-beads/Images/WhiteBeadChoiceWrong.png","","","","","","","","","","","","","","","","","","","","","","","",""
"image-keyboard-response","38","200779","0.0-4.0-4.0-1.0-0.8","6156498c17bdcd7cb70c420c","63690f60c96a0a9a64b48fbd","6369198e4c6491b45651c5dc","2730","","f","","","","","","","","./tasks/HMM-beads/Images/NewTrialBC.png","practice","8","1","1","1","1","true","","","","","","","","","","","","","","","","",""
"image-keyboard-response","39","201085","0.0-4.0-4.0-1.0-1.8","6156498c17bdcd7cb70c420c","63690f60c96a0a9a64b48fbd","6369198e4c6491b45651c5dc","null","","null","","","","","","","","./tasks/HMM-beads/Images/BlackBeadChoice.png","","","","","","","","","","","","","","","","","","","","","","","",""
"image-keyboard-response","40","201596","0.0-4.0-4.0-1.0-2.8","6156498c17bdcd7cb70c420c","63690f60c96a0a9a64b48fbd","6369198e4c6491b45651c5dc","null","","null","","","","","","","","./tasks/HMM-beads/Images/BlackBeadChoiceCorrect.png","","","","","","","","","","","","","","","","","","","","","","","",""
"image-keyboard-response","41","202371","0.0-4.0-4.0-1.0-0.9","6156498c17bdcd7cb70c420c","63690f60c96a0a9a64b48fbd","6369198e4c6491b45651c5dc","775","","f","","","","","","","","./tasks/HMM-beads/Images/NewTrialBC.png","practice","9","2","2","1","1","false","","","","","","","","","","","","","","","","",""
"image-keyboard-response","42","202677","0.0-4.0-4.0-1.0-1.9","6156498c17bdcd7cb70c420c","63690f60c96a0a9a64b48fbd","6369198e4c6491b45651c5dc","null","","null","","","","","","","","./tasks/HMM-beads/Images/BlackBeadChoice.png","","","","","","","","","","","","","","","","","","","","","","","",""
"image-keyboard-response","43","203187","0.0-4.0-4.0-1.0-2.9","6156498c17bdcd7cb70c420c","63690f60c96a0a9a64b48fbd","6369198e4c6491b45651c5dc","null","","null","","","","","","","","./tasks/HMM-beads/Images/BlackBeadChoiceWrong.png","","","","","","","","","","","","","","","","","","","","","","","",""
"image-keyboard-response","44","203540","0.0-4.0-4.0-1.0-0.10","6156498c17bdcd7cb70c420c","63690f60c96a0a9a64b48fbd","6369198e4c6491b45651c5dc","351","","j","","","","","","","","./tasks/HMM-beads/Images/NewTrialWC.png","practice","10","2","1","2","2","false","","","","","","","","","","","","","","","","",""
"image-keyboard-response","45","203854","0.0-4.0-4.0-1.0-1.10","6156498c17bdcd7cb70c420c","63690f60c96a0a9a64b48fbd","6369198e4c6491b45651c5dc","null","","null","","","","","","","","./tasks/HMM-beads/Images/WhiteBeadChoice.png","","","","","","","","","","","","","","","","","","","","","","","",""
"image-keyboard-response","46","204366","0.0-4.0-4.0-1.0-2.10","6156498c17bdcd7cb70c420c","63690f60c96a0a9a64b48fbd","6369198e4c6491b45651c5dc","null","","null","","","","","","","","./tasks/HMM-beads/Images/WhiteBeadChoiceWrong.png","","","","","","","","","","","","","","","","","","","","","","","",""
"image-keyboard-response","47","204763","0.0-4.0-4.0-1.0-0.11","6156498c17bdcd7cb70c420c","63690f60c96a0a9a64b48fbd","6369198e4c6491b45651c5dc","396","","f","","","","","","","","./tasks/HMM-beads/Images/NewTrialBC.png","practice","11","2","2","1","1","false","","","","","","","","","","","","","","","","",""
"image-keyboard-response","48","205074","0.0-4.0-4.0-1.0-1.11","6156498c17bdcd7cb70c420c","63690f60c96a0a9a64b48fbd","6369198e4c6491b45651c5dc","null","","null","","","","","","","","./tasks/HMM-beads/Images/BlackBeadChoice.png","","","","","","","","","","","","","","","","","","","","","","","",""
"image-keyboard-response","49","205586","0.0-4.0-4.0-1.0-2.11","6156498c17bdcd7cb70c420c","63690f60c96a0a9a64b48fbd","6369198e4c6491b45651c5dc","null","","null","","","","","","","","./tasks/HMM-beads/Images/BlackBeadChoiceWrong.png","","","","","","","","","","","","","","","","","","","","","","","",""
"image-keyboard-response","50","206332","0.0-4.0-4.0-1.0-0.12","6156498c17bdcd7cb70c420c","63690f60c96a0a9a64b48fbd","6369198e4c6491b45651c5dc","744","","f","","","","","","","","./tasks/HMM-beads/Images/NewTrialWC.png","practice","12","2","2","2","1","false","","","","","","","","","","","","","","","","",""
"image-keyboard-response","51","206635","0.0-4.0-4.0-1.0-1.12","6156498c17bdcd7cb70c420c","63690f60c96a0a9a64b48fbd","6369198e4c6491b45651c5dc","null","","null","","","","","","","","./tasks/HMM-beads/Images/BlackBeadChoice.png","","","","","","","","","","","","","","","","","","","","","","","",""
"image-keyboard-response","52","207145","0.0-4.0-4.0-1.0-2.12","6156498c17bdcd7cb70c420c","63690f60c96a0a9a64b48fbd","6369198e4c6491b45651c5dc","null","","null","","","","","","","","./tasks/HMM-beads/Images/BlackBeadChoiceWrong.png","","","","","","","","","","","","","","","","","","","","","","","",""
"image-keyboard-response","53","208428","0.0-4.0-4.0-1.0-0.13","6156498c17bdcd7cb70c420c","63690f60c96a0a9a64b48fbd","6369198e4c6491b45651c5dc","1281","","f","","","","","","","","./tasks/HMM-beads/Images/NewTrialWC.png","practice","13","2","2","2","1","false","","","","","","","","","","","","","","","","",""
"image-keyboard-response","54","208733","0.0-4.0-4.0-1.0-1.13","6156498c17bdcd7cb70c420c","63690f60c96a0a9a64b48fbd","6369198e4c6491b45651c5dc","null","","null","","","","","","","","./tasks/HMM-beads/Images/BlackBeadChoice.png","","","","","","","","","","","","","","","","","","","","","","","",""
"image-keyboard-response","55","209244","0.0-4.0-4.0-1.0-2.13","6156498c17bdcd7cb70c420c","63690f60c96a0a9a64b48fbd","6369198e4c6491b45651c5dc","null","","null","","","","","","","","./tasks/HMM-beads/Images/BlackBeadChoiceWrong.png","","","","","","","","","","","","","","","","","","","","","","","",""
"image-keyboard-response","56","209652","0.0-4.0-4.0-1.0-0.14","6156498c17bdcd7cb70c420c","63690f60c96a0a9a64b48fbd","6369198e4c6491b45651c5dc","407","","j","","","","","","","","./tasks/HMM-beads/Images/NewTrialWC.png","practice","14","2","2","2","2","true","","","","","","","","","","","","","","","","",""
"image-keyboard-response","57","209969","0.0-4.0-4.0-1.0-1.14","6156498c17bdcd7cb70c420c","63690f60c96a0a9a64b48fbd","6369198e4c6491b45651c5dc","null","","null","","","","","","","","./tasks/HMM-beads/Images/WhiteBeadChoice.png","","","","","","","","","","","","","","","","","","","","","","","",""
"image-keyboard-response","58","210480","0.0-4.0-4.0-1.0-2.14","6156498c17bdcd7cb70c420c","63690f60c96a0a9a64b48fbd","6369198e4c6491b45651c5dc","null","","null","","","","","","","","./tasks/HMM-beads/Images/WhiteBeadChoiceCorrect.png","","","","","","","","","","","","","","","","","","","","","","","",""
"image-keyboard-response","59","210883","0.0-4.0-4.0-1.0-0.15","6156498c17bdcd7cb70c420c","63690f60c96a0a9a64b48fbd","6369198e4c6491b45651c5dc","403","","j","","","","","","","","./tasks/HMM-beads/Images/NewTrialWC.png","practice","15","1","1","2","2","false","","","","","","","","","","","","","","","","",""
"image-keyboard-response","60","211189","0.0-4.0-4.0-1.0-1.15","6156498c17bdcd7cb70c420c","63690f60c96a0a9a64b48fbd","6369198e4c6491b45651c5dc","null","","null","","","","","","","","./tasks/HMM-beads/Images/WhiteBeadChoice.png","","","","","","","","","","","","","","","","","","","","","","","",""
"image-keyboard-response","61","211702","0.0-4.0-4.0-1.0-2.15","6156498c17bdcd7cb70c420c","63690f60c96a0a9a64b48fbd","6369198e4c6491b45651c5dc","null","","null","","","","","","","","./tasks/HMM-beads/Images/WhiteBeadChoiceWrong.png","","","","","","","","","","","","","","","","","","","","","","","",""
"image-keyboard-response","62","212028","0.0-4.0-4.0-1.0-0.16","6156498c17bdcd7cb70c420c","63690f60c96a0a9a64b48fbd","6369198e4c6491b45651c5dc","324","","f","","","","","","","","./tasks/HMM-beads/Images/NewTrialBC.png","practice","16","1","2","1","1","false","","","","","","","","","","","","","","","","",""
"image-keyboard-response","63","212336","0.0-4.0-4.0-1.0-1.16","6156498c17bdcd7cb70c420c","63690f60c96a0a9a64b48fbd","6369198e4c6491b45651c5dc","null","","null","","","","","","","","./tasks/HMM-beads/Images/BlackBeadChoice.png","","","","","","","","","","","","","","","","","","","","","","","",""
"image-keyboard-response","64","212844","0.0-4.0-4.0-1.0-2.16","6156498c17bdcd7cb70c420c","63690f60c96a0a9a64b48fbd","6369198e4c6491b45651c5dc","null","","null","","","","","","","","./tasks/HMM-beads/Images/BlackBeadChoiceWrong.png","","","","","","","","","","","","","","","","","","","","","","","",""
"image-keyboard-response","65","213267","0.0-4.0-4.0-1.0-0.17","6156498c17bdcd7cb70c420c","63690f60c96a0a9a64b48fbd","6369198e4c6491b45651c5dc","421","","f","","","","","","","","./tasks/HMM-beads/Images/NewTrialWC.png","practice","17","1","1","2","1","true","","","","","","","","","","","","","","","","",""
"image-keyboard-response","66","213585","0.0-4.0-4.0-1.0-1.17","6156498c17bdcd7cb70c420c","63690f60c96a0a9a64b48fbd","6369198e4c6491b45651c5dc","null","","null","","","","","","","","./tasks/HMM-beads/Images/BlackBeadChoice.png","","","","","","","","","","","","","","","","","","","","","","","",""
"image-keyboard-response","67","214092","0.0-4.0-4.0-1.0-2.17","6156498c17bdcd7cb70c420c","63690f60c96a0a9a64b48fbd","6369198e4c6491b45651c5dc","null","","null","","","","","","","","./tasks/HMM-beads/Images/BlackBeadChoiceCorrect.png","","","","","","","","","","","","","","","","","","","","","","","",""
"image-keyboard-response","68","215404","0.0-4.0-4.0-1.0-0.18","6156498c17bdcd7cb70c420c","63690f60c96a0a9a64b48fbd","6369198e4c6491b45651c5dc","1311","","f","","","","","","","","./tasks/HMM-beads/Images/NewTrialBC.png","practice","18","1","1","1","1","true","","","","","","","","","","","","","","","","",""
"image-keyboard-response","69","215719","0.0-4.0-4.0-1.0-1.18","6156498c17bdcd7cb70c420c","63690f60c96a0a9a64b48fbd","6369198e4c6491b45651c5dc","null","","null","","","","","","","","./tasks/HMM-beads/Images/BlackBeadChoice.png","","","","","","","","","","","","","","","","","","","","","","","",""
"image-keyboard-response","70","216230","0.0-4.0-4.0-1.0-2.18","6156498c17bdcd7cb70c420c","63690f60c96a0a9a64b48fbd","6369198e4c6491b45651c5dc","null","","null","","","","","","","","./tasks/HMM-beads/Images/BlackBeadChoiceCorrect.png","","","","","","","","","","","","","","","","","","","","","","","",""
"image-keyboard-response","71","216763","0.0-4.0-4.0-1.0-0.19","6156498c17bdcd7cb70c420c","63690f60c96a0a9a64b48fbd","6369198e4c6491b45651c5dc","532","","f","","","","","","","","./tasks/HMM-beads/Images/NewTrialBC.png","practice","19","1","1","1","1","true","","","","","","","","","","","","","","","","",""
"image-keyboard-response","72","217065","0.0-4.0-4.0-1.0-1.19","6156498c17bdcd7cb70c420c","63690f60c96a0a9a64b48fbd","6369198e4c6491b45651c5dc","null","","null","","","","","","","","./tasks/HMM-beads/Images/BlackBeadChoice.png","","","","","","","","","","","","","","","","","","","","","","","",""
"image-keyboard-response","73","217576","0.0-4.0-4.0-1.0-2.19","6156498c17bdcd7cb70c420c","63690f60c96a0a9a64b48fbd","6369198e4c6491b45651c5dc","null","","null","","","","","","","","./tasks/HMM-beads/Images/BlackBeadChoiceCorrect.png","","","","","","","","","","","","","","","","","","","","","","","",""
"html-keyboard-response","74","220860","0.0-4.0-4.0-2.0","6156498c17bdcd7cb70c420c","63690f60c96a0a9a64b48fbd","6369198e4c6491b45651c5dc","3281",""," ","","","","","","","","","","","","","","","","","","","","","","","","","","","","","","","",""
"instructions","75","229017","0.0-4.0-5.0","6156498c17bdcd7cb70c420c","63690f60c96a0a9a64b48fbd","6369198e4c6491b45651c5dc","8156","","","","[{""page_index"":0,""viewing_time"":5480},{""page_index"":1,""viewing_time"":2676}]","","","","","","","","","","","","","","","","","","","","","","","","","","","","","",""
"html-keyboard-response","76","231923","0.0-4.0-6.0-0.0","6156498c17bdcd7cb70c420c","63690f60c96a0a9a64b48fbd","6369198e4c6491b45651c5dc","2905",""," ","","","","","","","","<div align=center>In this block, there will be a <b>1% chance</b> that the jar on the next trial will be different from the jar on the current trial.<br><br></div>","","","","","","","","","","","","","","","","","","","","","","","",""
"image-keyboard-response","77","233867","0.0-4.0-6.0-1.0-0.0","6156498c17bdcd7cb70c420c","63690f60c96a0a9a64b48fbd","6369198e4c6491b45651c5dc","1942","","f","","","","","","","","./tasks/HMM-beads/Images/NoChoice.png","lowH","0","2","2","0","1","false","","","","","","","","","","","","","","","","",""
"image-keyboard-response","78","234178","0.0-4.0-6.0-1.0-1.0","6156498c17bdcd7cb70c420c","63690f60c96a0a9a64b48fbd","6369198e4c6491b45651c5dc","null","","null","","","","","","","","./tasks/HMM-beads/Images/BlackBeadChoice.png","","","","","","","","","","","","","","","","","","","","","","","",""
"image-keyboard-response","79","234689","0.0-4.0-6.0-1.0-2.0","6156498c17bdcd7cb70c420c","63690f60c96a0a9a64b48fbd","6369198e4c6491b45651c5dc","null","","null","","","","","","","","./tasks/HMM-beads/Images/BlackBeadChoiceWrong.png","","","","","","","","","","","","","","","","","","","","","","","",""
"image-keyboard-response","80","235676","0.0-4.0-6.0-1.0-0.1","6156498c17bdcd7cb70c420c","63690f60c96a0a9a64b48fbd","6369198e4c6491b45651c5dc","985","","f","","","","","","","","./tasks/HMM-beads/Images/NewTrialWC.png","lowH","1","2","2","2","1","false","","","","","","","","","","","","","","","","",""
"image-keyboard-response","81","235988","0.0-4.0-6.0-1.0-1.1","6156498c17bdcd7cb70c420c","63690f60c96a0a9a64b48fbd","6369198e4c6491b45651c5dc","null","","null","","","","","","","","./tasks/HMM-beads/Images/BlackBeadChoice.png","","","","","","","","","","","","","","","","","","","","","","","",""
"image-keyboard-response","82","236498","0.0-4.0-6.0-1.0-2.1","6156498c17bdcd7cb70c420c","63690f60c96a0a9a64b48fbd","6369198e4c6491b45651c5dc","null","","null","","","","","","","","./tasks/HMM-beads/Images/BlackBeadChoiceWrong.png","","","","","","","","","","","","","","","","","","","","","","","",""
"image-keyboard-response","83","237860","0.0-4.0-6.0-1.0-0.2","6156498c17bdcd7cb70c420c","63690f60c96a0a9a64b48fbd","6369198e4c6491b45651c5dc","1361","","f","","","","","","","","./tasks/HMM-beads/Images/NewTrialWC.png","lowH","2","2","2","2","1","false","","","","","","","","","","","","","","","","",""
"image-keyboard-response","84","238168","0.0-4.0-6.0-1.0-1.2","6156498c17bdcd7cb70c420c","63690f60c96a0a9a64b48fbd","6369198e4c6491b45651c5dc","null","","null","","","","","","","","./tasks/HMM-beads/Images/BlackBeadChoice.png","","","","","","","","","","","","","","","","","","","","","","","",""
"image-keyboard-response","85","238679","0.0-4.0-6.0-1.0-2.2","6156498c17bdcd7cb70c420c","63690f60c96a0a9a64b48fbd","6369198e4c6491b45651c5dc","null","","null","","","","","","","","./tasks/HMM-beads/Images/BlackBeadChoiceWrong.png","","","","","","","","","","","","","","","","","","","","","","","",""
"image-keyboard-response","86","239060","0.0-4.0-6.0-1.0-0.3","6156498c17bdcd7cb70c420c","63690f60c96a0a9a64b48fbd","6369198e4c6491b45651c5dc","379","","j","","","","","","","","./tasks/HMM-beads/Images/NewTrialWC.png","lowH","3","2","2","2","2","true","","","","","","","","","","","","","","","","",""
"image-keyboard-response","87","239372","0.0-4.0-6.0-1.0-1.3","6156498c17bdcd7cb70c420c","63690f60c96a0a9a64b48fbd","6369198e4c6491b45651c5dc","null","","null","","","","","","","","./tasks/HMM-beads/Images/WhiteBeadChoice.png","","","","","","","","","","","","","","","","","","","","","","","",""
"image-keyboard-response","88","239882","0.0-4.0-6.0-1.0-2.3","6156498c17bdcd7cb70c420c","63690f60c96a0a9a64b48fbd","6369198e4c6491b45651c5dc","null","","null","","","","","","","","./tasks/HMM-beads/Images/WhiteBeadChoiceCorrect.png","","","","","","","","","","","","","","","","","","","","","","","",""
"image-keyboard-response","89","240195","0.0-4.0-6.0-1.0-0.4","6156498c17bdcd7cb70c420c","63690f60c96a0a9a64b48fbd","6369198e4c6491b45651c5dc","312","","j","","","","","","","","./tasks/HMM-beads/Images/NewTrialWC.png","lowH","4","2","1","2","2","false","","","","","","","","","","","","","","","","",""
"image-keyboard-response","90","240501","0.0-4.0-6.0-1.0-1.4","6156498c17bdcd7cb70c420c","63690f60c96a0a9a64b48fbd","6369198e4c6491b45651c5dc","null","","null","","","","","","","","./tasks/HMM-beads/Images/WhiteBeadChoice.png","","","","","","","","","","","","","","","","","","","","","","","",""
"image-keyboard-response","91","241013","0.0-4.0-6.0-1.0-2.4","6156498c17bdcd7cb70c420c","63690f60c96a0a9a64b48fbd","6369198e4c6491b45651c5dc","null","","null","","","","","","","","./tasks/HMM-beads/Images/WhiteBeadChoiceWrong.png","","","","","","","","","","","","","","","","","","","","","","","",""
"image-keyboard-response","92","242068","0.0-4.0-6.0-1.0-0.5","6156498c17bdcd7cb70c420c","63690f60c96a0a9a64b48fbd","6369198e4c6491b45651c5dc","1053","","j","","","","","","","","./tasks/HMM-beads/Images/NewTrialBC.png","lowH","5","2","2","1","2","true","","","","","","","","","","","","","","","","",""
"image-keyboard-response","93","242372","0.0-4.0-6.0-1.0-1.5","6156498c17bdcd7cb70c420c","63690f60c96a0a9a64b48fbd","6369198e4c6491b45651c5dc","null","","null","","","","","","","","./tasks/HMM-beads/Images/WhiteBeadChoice.png","","","","","","","","","","","","","","","","","","","","","","","",""
"image-keyboard-response","94","242881","0.0-4.0-6.0-1.0-2.5","6156498c17bdcd7cb70c420c","63690f60c96a0a9a64b48fbd","6369198e4c6491b45651c5dc","null","","null","","","","","","","","./tasks/HMM-beads/Images/WhiteBeadChoiceCorrect.png","","","","","","","","","","","","","","","","","","","","","","","",""
"image-keyboard-response","95","243275","0.0-4.0-6.0-1.0-0.6","6156498c17bdcd7cb70c420c","63690f60c96a0a9a64b48fbd","6369198e4c6491b45651c5dc","392","","j","","","","","","","","./tasks/HMM-beads/Images/NewTrialWC.png","lowH","6","2","2","2","2","true","","","","","","","","","","","","","","","","",""
"image-keyboard-response","96","243580","0.0-4.0-6.0-1.0-1.6","6156498c17bdcd7cb70c420c","63690f60c96a0a9a64b48fbd","6369198e4c6491b45651c5dc","null","","null","","","","","","","","./tasks/HMM-beads/Images/WhiteBeadChoice.png","","","","","","","","","","","","","","","","","","","","","","","",""
"image-keyboard-response","97","244092","0.0-4.0-6.0-1.0-2.6","6156498c17bdcd7cb70c420c","63690f60c96a0a9a64b48fbd","6369198e4c6491b45651c5dc","null","","null","","","","","","","","./tasks/HMM-beads/Images/WhiteBeadChoiceCorrect.png","","","","","","","","","","","","","","","","","","","","","","","",""
"image-keyboard-response","98","244404","0.0-4.0-6.0-1.0-0.7","6156498c17bdcd7cb70c420c","63690f60c96a0a9a64b48fbd","6369198e4c6491b45651c5dc","312","","j","","","","","","","","./tasks/HMM-beads/Images/NewTrialWC.png","lowH","7","2","2","2","2","true","","","","","","","","","","","","","","","","",""
"image-keyboard-response","99","244712","0.0-4.0-6.0-1.0-1.7","6156498c17bdcd7cb70c420c","63690f60c96a0a9a64b48fbd","6369198e4c6491b45651c5dc","null","","null","","","","","","","","./tasks/HMM-beads/Images/WhiteBeadChoice.png","","","","","","","","","","","","","","","","","","","","","","","",""
"image-keyboard-response","100","245225","0.0-4.0-6.0-1.0-2.7","6156498c17bdcd7cb70c420c","63690f60c96a0a9a64b48fbd","6369198e4c6491b45651c5dc","null","","null","","","","","","","","./tasks/HMM-beads/Images/WhiteBeadChoiceCorrect.png","","","","","","","","","","","","","","","","","","","","","","","",""
"image-keyboard-response","101","245499","0.0-4.0-6.0-1.0-0.8","6156498c17bdcd7cb70c420c","63690f60c96a0a9a64b48fbd","6369198e4c6491b45651c5dc","275","","j","","","","","","","","./tasks/HMM-beads/Images/NewTrialWC.png","lowH","8","2","2","2","2","true","","","","","","","","","","","","","","","","",""
"image-keyboard-response","102","245812","0.0-4.0-6.0-1.0-1.8","6156498c17bdcd7cb70c420c","63690f60c96a0a9a64b48fbd","6369198e4c6491b45651c5dc","null","","null","","","","","","","","./tasks/HMM-beads/Images/WhiteBeadChoice.png","","","","","","","","","","","","","","","","","","","","","","","",""
"image-keyboard-response","103","246323","0.0-4.0-6.0-1.0-2.8","6156498c17bdcd7cb70c420c","63690f60c96a0a9a64b48fbd","6369198e4c6491b45651c5dc","null","","null","","","","","","","","./tasks/HMM-beads/Images/WhiteBeadChoiceCorrect.png","","","","","","","","","","","","","","","","","","","","","","","",""
"image-keyboard-response","104","246603","0.0-4.0-6.0-1.0-0.9","6156498c17bdcd7cb70c420c","63690f60c96a0a9a64b48fbd","6369198e4c6491b45651c5dc","280","","j","","","","","","","","./tasks/HMM-beads/Images/NewTrialWC.png","lowH","9","2","2","2","2","true","","","","","","","","","","","","","","","","",""
"image-keyboard-response","105","246908","0.0-4.0-6.0-1.0-1.9","6156498c17bdcd7cb70c420c","63690f60c96a0a9a64b48fbd","6369198e4c6491b45651c5dc","null","","null","","","","","","","","./tasks/HMM-beads/Images/WhiteBeadChoice.png","","","","","","","","","","","","","","","","","","","","","","","",""
"image-keyboard-response","106","247419","0.0-4.0-6.0-1.0-2.9","6156498c17bdcd7cb70c420c","63690f60c96a0a9a64b48fbd","6369198e4c6491b45651c5dc","null","","null","","","","","","","","./tasks/HMM-beads/Images/WhiteBeadChoiceCorrect.png","","","","","","","","","","","","","","","","","","","","","","","",""
"image-keyboard-response","107","247715","0.0-4.0-6.0-1.0-0.10","6156498c17bdcd7cb70c420c","63690f60c96a0a9a64b48fbd","6369198e4c6491b45651c5dc","294","","j","","","","","","","","./tasks/HMM-beads/Images/NewTrialWC.png","lowH","10","2","2","2","2","true","","","","","","","","","","","","","","","","",""
"image-keyboard-response","108","248023","0.0-4.0-6.0-1.0-1.10","6156498c17bdcd7cb70c420c","63690f60c96a0a9a64b48fbd","6369198e4c6491b45651c5dc","null","","null","","","","","","","","./tasks/HMM-beads/Images/WhiteBeadChoice.png","","","","","","","","","","","","","","","","","","","","","","","",""
"image-keyboard-response","109","248536","0.0-4.0-6.0-1.0-2.10","6156498c17bdcd7cb70c420c","63690f60c96a0a9a64b48fbd","6369198e4c6491b45651c5dc","null","","null","","","","","","","","./tasks/HMM-beads/Images/WhiteBeadChoiceCorrect.png","","","","","","","","","","","","","","","","","","","","","","","",""
"image-keyboard-response","110","248852","0.0-4.0-6.0-1.0-0.11","6156498c17bdcd7cb70c420c","63690f60c96a0a9a64b48fbd","6369198e4c6491b45651c5dc","314","","j","","","","","","","","./tasks/HMM-beads/Images/NewTrialWC.png","lowH","11","2","2","2","2","true","","","","","","","","","","","","","","","","",""
"image-keyboard-response","111","249154","0.0-4.0-6.0-1.0-1.11","6156498c17bdcd7cb70c420c","63690f60c96a0a9a64b48fbd","6369198e4c6491b45651c5dc","null","","null","","","","","","","","./tasks/HMM-beads/Images/WhiteBeadChoice.png","","","","","","","","","","","","","","","","","","","","","","","",""
"image-keyboard-response","112","249666","0.0-4.0-6.0-1.0-2.11","6156498c17bdcd7cb70c420c","63690f60c96a0a9a64b48fbd","6369198e4c6491b45651c5dc","null","","null","","","","","","","","./tasks/HMM-beads/Images/WhiteBeadChoiceCorrect.png","","","","","","","","","","","","","","","","","","","","","","","",""
"image-keyboard-response","113","249956","0.0-4.0-6.0-1.0-0.12","6156498c17bdcd7cb70c420c","63690f60c96a0a9a64b48fbd","6369198e4c6491b45651c5dc","287","","j","","","","","","","","./tasks/HMM-beads/Images/NewTrialWC.png","lowH","12","2","2","2","2","true","","","","","","","","","","","","","","","","",""
"image-keyboard-response","114","250268","0.0-4.0-6.0-1.0-1.12","6156498c17bdcd7cb70c420c","63690f60c96a0a9a64b48fbd","6369198e4c6491b45651c5dc","null","","null","","","","","","","","./tasks/HMM-beads/Images/WhiteBeadChoice.png","","","","","","","","","","","","","","","","","","","","","","","",""
"image-keyboard-response","115","250777","0.0-4.0-6.0-1.0-2.12","6156498c17bdcd7cb70c420c","63690f60c96a0a9a64b48fbd","6369198e4c6491b45651c5dc","null","","null","","","","","","","","./tasks/HMM-beads/Images/WhiteBeadChoiceCorrect.png","","","","","","","","","","","","","","","","","","","","","","","",""
"image-keyboard-response","116","251052","0.0-4.0-6.0-1.0-0.13","6156498c17bdcd7cb70c420c","63690f60c96a0a9a64b48fbd","6369198e4c6491b45651c5dc","272","","j","","","","","","","","./tasks/HMM-beads/Images/NewTrialWC.png","lowH","13","2","2","2","2","true","","","","","","","","","","","","","","","","",""
"image-keyboard-response","117","251365","0.0-4.0-6.0-1.0-1.13","6156498c17bdcd7cb70c420c","63690f60c96a0a9a64b48fbd","6369198e4c6491b45651c5dc","null","","null","","","","","","","","./tasks/HMM-beads/Images/WhiteBeadChoice.png","","","","","","","","","","","","","","","","","","","","","","","",""
"image-keyboard-response","118","251875","0.0-4.0-6.0-1.0-2.13","6156498c17bdcd7cb70c420c","63690f60c96a0a9a64b48fbd","6369198e4c6491b45651c5dc","null","","null","","","","","","","","./tasks/HMM-beads/Images/WhiteBeadChoiceCorrect.png","","","","","","","","","","","","","","","","","","","","","","","",""
"image-keyboard-response","119","252132","0.0-4.0-6.0-1.0-0.14","6156498c17bdcd7cb70c420c","63690f60c96a0a9a64b48fbd","6369198e4c6491b45651c5dc","254","","j","","","","","","","","./tasks/HMM-beads/Images/NewTrialWC.png","lowH","14","2","2","2","2","true","","","","","","","","","","","","","","","","",""
"image-keyboard-response","120","252433","0.0-4.0-6.0-1.0-1.14","6156498c17bdcd7cb70c420c","63690f60c96a0a9a64b48fbd","6369198e4c6491b45651c5dc","null","","null","","","","","","","","./tasks/HMM-beads/Images/WhiteBeadChoice.png","","","","","","","","","","","","","","","","","","","","","","","",""
"image-keyboard-response","121","252944","0.0-4.0-6.0-1.0-2.14","6156498c17bdcd7cb70c420c","63690f60c96a0a9a64b48fbd","6369198e4c6491b45651c5dc","null","","null","","","","","","","","./tasks/HMM-beads/Images/WhiteBeadChoiceCorrect.png","","","","","","","","","","","","","","","","","","","","","","","",""
"image-keyboard-response","122","253211","0.0-4.0-6.0-1.0-0.15","6156498c17bdcd7cb70c420c","63690f60c96a0a9a64b48fbd","6369198e4c6491b45651c5dc","267","","j","","","","","","","","./tasks/HMM-beads/Images/NewTrialWC.png","lowH","15","2","1","2","2","false","","","","","","","","","","","","","","","","",""
"image-keyboard-response","123","253528","0.0-4.0-6.0-1.0-1.15","6156498c17bdcd7cb70c420c","63690f60c96a0a9a64b48fbd","6369198e4c6491b45651c5dc","null","","null","","","","","","","","./tasks/HMM-beads/Images/WhiteBeadChoice.png","","","","","","","","","","","","","","","","","","","","","","","",""
"image-keyboard-response","124","254037","0.0-4.0-6.0-1.0-2.15","6156498c17bdcd7cb70c420c","63690f60c96a0a9a64b48fbd","6369198e4c6491b45651c5dc","null","","null","","","","","","","","./tasks/HMM-beads/Images/WhiteBeadChoiceWrong.png","","","","","","","","","","","","","","","","","","","","","","","",""
"image-keyboard-response","125","254364","0.0-4.0-6.0-1.0-0.16","6156498c17bdcd7cb70c420c","63690f60c96a0a9a64b48fbd","6369198e4c6491b45651c5dc","325","","f","","","","","","","","./tasks/HMM-beads/Images/NewTrialBC.png","lowH","16","2","1","1","1","true","","","","","","","","","","","","","","","","",""
"image-keyboard-response","126","254670","0.0-4.0-6.0-1.0-1.16","6156498c17bdcd7cb70c420c","63690f60c96a0a9a64b48fbd","6369198e4c6491b45651c5dc","null","","null","","","","","","","","./tasks/HMM-beads/Images/BlackBeadChoice.png","","","","","","","","","","","","","","","","","","","","","","","",""
"image-keyboard-response","127","255181","0.0-4.0-6.0-1.0-2.16","6156498c17bdcd7cb70c420c","63690f60c96a0a9a64b48fbd","6369198e4c6491b45651c5dc","null","","null","","","","","","","","./tasks/HMM-beads/Images/BlackBeadChoiceCorrect.png","","","","","","","","","","","","","","","","","","","","","","","",""
"image-keyboard-response","128","255579","0.0-4.0-6.0-1.0-0.17","6156498c17bdcd7cb70c420c","63690f60c96a0a9a64b48fbd","6369198e4c6491b45651c5dc","396","","f","","","","","","","","./tasks/HMM-beads/Images/NewTrialBC.png","lowH","17","2","2","1","1","false","","","","","","","","","","","","","","","","",""
"image-keyboard-response","129","255892","0.0-4.0-6.0-1.0-1.17","6156498c17bdcd7cb70c420c","63690f60c96a0a9a64b48fbd","6369198e4c6491b45651c5dc","null","","null","","","","","","","","./tasks/HMM-beads/Images/BlackBeadChoice.png","","","","","","","","","","","","","","","","","","","","","","","",""
"image-keyboard-response","130","256401","0.0-4.0-6.0-1.0-2.17","6156498c17bdcd7cb70c420c","63690f60c96a0a9a64b48fbd","6369198e4c6491b45651c5dc","null","","null","","","","","","","","./tasks/HMM-beads/Images/BlackBeadChoiceWrong.png","","","","","","","","","","","","","","","","","","","","","","","",""
"image-keyboard-response","131","256979","0.0-4.0-6.0-1.0-0.18","6156498c17bdcd7cb70c420c","63690f60c96a0a9a64b48fbd","6369198e4c6491b45651c5dc","576","","j","","","","","","","","./tasks/HMM-beads/Images/NewTrialWC.png","lowH","18","2","2","2","2","true","","","","","","","","","","","","","","","","",""
"image-keyboard-response","132","257282","0.0-4.0-6.0-1.0-1.18","6156498c17bdcd7cb70c420c","63690f60c96a0a9a64b48fbd","6369198e4c6491b45651c5dc","null","","null","","","","","","","","./tasks/HMM-beads/Images/WhiteBeadChoice.png","","","","","","","","","","","","","","","","","","","","","","","",""
"image-keyboard-response","133","257793","0.0-4.0-6.0-1.0-2.18","6156498c17bdcd7cb70c420c","63690f60c96a0a9a64b48fbd","6369198e4c6491b45651c5dc","null","","null","","","","","","","","./tasks/HMM-beads/Images/WhiteBeadChoiceCorrect.png","","","","","","","","","","","","","","","","","","","","","","","",""
"image-keyboard-response","134","258068","0.0-4.0-6.0-1.0-0.19","6156498c17bdcd7cb70c420c","63690f60c96a0a9a64b48fbd","6369198e4c6491b45651c5dc","274","","j","","","","","","","","./tasks/HMM-beads/Images/NewTrialWC.png","lowH","19","2","2","2","2","true","","","","","","","","","","","","","","","","",""
"image-keyboard-response","135","258378","0.0-4.0-6.0-1.0-1.19","6156498c17bdcd7cb70c420c","63690f60c96a0a9a64b48fbd","6369198e4c6491b45651c5dc","null","","null","","","","","","","","./tasks/HMM-beads/Images/WhiteBeadChoice.png","","","","","","","","","","","","","","","","","","","","","","","",""
"image-keyboard-response","136","258889","0.0-4.0-6.0-1.0-2.19","6156498c17bdcd7cb70c420c","63690f60c96a0a9a64b48fbd","6369198e4c6491b45651c5dc","null","","null","","","","","","","","./tasks/HMM-beads/Images/WhiteBeadChoiceCorrect.png","","","","","","","","","","","","","","","","","","","","","","","",""
"image-keyboard-response","137","259139","0.0-4.0-6.0-1.0-0.20","6156498c17bdcd7cb70c420c","63690f60c96a0a9a64b48fbd","6369198e4c6491b45651c5dc","249","","j","","","","","","","","./tasks/HMM-beads/Images/NewTrialWC.png","lowH","20","2","2","2","2","true","","","","","","","","","","","","","","","","",""
"image-keyboard-response","138","259447","0.0-4.0-6.0-1.0-1.20","6156498c17bdcd7cb70c420c","63690f60c96a0a9a64b48fbd","6369198e4c6491b45651c5dc","null","","null","","","","","","","","./tasks/HMM-beads/Images/WhiteBeadChoice.png","","","","","","","","","","","","","","","","","","","","","","","",""
"image-keyboard-response","139","259958","0.0-4.0-6.0-1.0-2.20","6156498c17bdcd7cb70c420c","63690f60c96a0a9a64b48fbd","6369198e4c6491b45651c5dc","null","","null","","","","","","","","./tasks/HMM-beads/Images/WhiteBeadChoiceCorrect.png","","","","","","","","","","","","","","","","","","","","","","","",""
"image-keyboard-response","140","260212","0.0-4.0-6.0-1.0-0.21","6156498c17bdcd7cb70c420c","63690f60c96a0a9a64b48fbd","6369198e4c6491b45651c5dc","252","","j","","","","","","","","./tasks/HMM-beads/Images/NewTrialWC.png","lowH","21","2","2","2","2","true","","","","","","","","","","","","","","","","",""
"image-keyboard-response","141","260525","0.0-4.0-6.0-1.0-1.21","6156498c17bdcd7cb70c420c","63690f60c96a0a9a64b48fbd","6369198e4c6491b45651c5dc","null","","null","","","","","","","","./tasks/HMM-beads/Images/WhiteBeadChoice.png","","","","","","","","","","","","","","","","","","","","","","","",""
"image-keyboard-response","142","261035","0.0-4.0-6.0-1.0-2.21","6156498c17bdcd7cb70c420c","63690f60c96a0a9a64b48fbd","6369198e4c6491b45651c5dc","null","","null","","","","","","","","./tasks/HMM-beads/Images/WhiteBeadChoiceCorrect.png","","","","","","","","","","","","","","","","","","","","","","","",""
"image-keyboard-response","143","261212","0.0-4.0-6.0-1.0-0.22","6156498c17bdcd7cb70c420c","63690f60c96a0a9a64b48fbd","6369198e4c6491b45651c5dc","174","","j","","","","","","","","./tasks/HMM-beads/Images/NewTrialWC.png","lowH","22","2","2","2","2","true","","","","","","","","","","","","","","","","",""
"image-keyboard-response","144","261514","0.0-4.0-6.0-1.0-1.22","6156498c17bdcd7cb70c420c","63690f60c96a0a9a64b48fbd","6369198e4c6491b45651c5dc","null","","null","","","","","","","","./tasks/HMM-beads/Images/WhiteBeadChoice.png","","","","","","","","","","","","","","","","","","","","","","","",""
"image-keyboard-response","145","262025","0.0-4.0-6.0-1.0-2.22","6156498c17bdcd7cb70c420c","63690f60c96a0a9a64b48fbd","6369198e4c6491b45651c5dc","null","","null","","","","","","","","./tasks/HMM-beads/Images/WhiteBeadChoiceCorrect.png","","","","","","","","","","","","","","","","","","","","","","","",""
"image-keyboard-response","146","262323","0.0-4.0-6.0-1.0-0.23","6156498c17bdcd7cb70c420c","63690f60c96a0a9a64b48fbd","6369198e4c6491b45651c5dc","298","","j","","","","","","","","./tasks/HMM-beads/Images/NewTrialWC.png","lowH","23","2","2","2","2","true","","","","","","","","","","","","","","","","",""
"image-keyboard-response","147","262627","0.0-4.0-6.0-1.0-1.23","6156498c17bdcd7cb70c420c","63690f60c96a0a9a64b48fbd","6369198e4c6491b45651c5dc","null","","null","","","","","","","","./tasks/HMM-beads/Images/WhiteBeadChoice.png","","","","","","","","","","","","","","","","","","","","","","","",""
"image-keyboard-response","148","263140","0.0-4.0-6.0-1.0-2.23","6156498c17bdcd7cb70c420c","63690f60c96a0a9a64b48fbd","6369198e4c6491b45651c5dc","null","","null","","","","","","","","./tasks/HMM-beads/Images/WhiteBeadChoiceCorrect.png","","","","","","","","","","","","","","","","","","","","","","","",""
"image-keyboard-response","149","263419","0.0-4.0-6.0-1.0-0.24","6156498c17bdcd7cb70c420c","63690f60c96a0a9a64b48fbd","6369198e4c6491b45651c5dc","278","","j","","","","","","","","./tasks/HMM-beads/Images/NewTrialWC.png","lowH","24","2","2","2","2","true","","","","","","","","","","","","","","","","",""
"image-keyboard-response","150","263725","0.0-4.0-6.0-1.0-1.24","6156498c17bdcd7cb70c420c","63690f60c96a0a9a64b48fbd","6369198e4c6491b45651c5dc","null","","null","","","","","","","","./tasks/HMM-beads/Images/WhiteBeadChoice.png","","","","","","","","","","","","","","","","","","","","","","","",""
"image-keyboard-response","151","264235","0.0-4.0-6.0-1.0-2.24","6156498c17bdcd7cb70c420c","63690f60c96a0a9a64b48fbd","6369198e4c6491b45651c5dc","null","","null","","","","","","","","./tasks/HMM-beads/Images/WhiteBeadChoiceCorrect.png","","","","","","","","","","","","","","","","","","","","","","","",""
"image-keyboard-response","152","264578","0.0-4.0-6.0-1.0-0.25","6156498c17bdcd7cb70c420c","63690f60c96a0a9a64b48fbd","6369198e4c6491b45651c5dc","341","","j","","","","","","","","./tasks/HMM-beads/Images/NewTrialWC.png","lowH","25","2","2","2","2","true","","","","","","","","","","","","","","","","",""
"image-keyboard-response","153","264884","0.0-4.0-6.0-1.0-1.25","6156498c17bdcd7cb70c420c","63690f60c96a0a9a64b48fbd","6369198e4c6491b45651c5dc","null","","null","","","","","","","","./tasks/HMM-beads/Images/WhiteBeadChoice.png","","","","","","","","","","","","","","","","","","","","","","","",""
"image-keyboard-response","154","265394","0.0-4.0-6.0-1.0-2.25","6156498c17bdcd7cb70c420c","63690f60c96a0a9a64b48fbd","6369198e4c6491b45651c5dc","null","","null","","","","","","","","./tasks/HMM-beads/Images/WhiteBeadChoiceCorrect.png","","","","","","","","","","","","","","","","","","","","","","","",""
"image-keyboard-response","155","265756","0.0-4.0-6.0-1.0-0.26","6156498c17bdcd7cb70c420c","63690f60c96a0a9a64b48fbd","6369198e4c6491b45651c5dc","359","","j","","","","","","","","./tasks/HMM-beads/Images/NewTrialWC.png","lowH","26","2","2","2","2","true","","","","","","","","","","","","","","","","",""
"image-keyboard-response","156","266063","0.0-4.0-6.0-1.0-1.26","6156498c17bdcd7cb70c420c","63690f60c96a0a9a64b48fbd","6369198e4c6491b45651c5dc","null","","null","","","","","","","","./tasks/HMM-beads/Images/WhiteBeadChoice.png","","","","","","","","","","","","","","","","","","","","","","","",""
"image-keyboard-response","157","266577","0.0-4.0-6.0-1.0-2.26","6156498c17bdcd7cb70c420c","63690f60c96a0a9a64b48fbd","6369198e4c6491b45651c5dc","null","","null","","","","","","","","./tasks/HMM-beads/Images/WhiteBeadChoiceCorrect.png","","","","","","","","","","","","","","","","","","","","","","","",""
"image-keyboard-response","158","266930","0.0-4.0-6.0-1.0-0.27","6156498c17bdcd7cb70c420c","63690f60c96a0a9a64b48fbd","6369198e4c6491b45651c5dc","352","","j","","","","","","","","./tasks/HMM-beads/Images/NewTrialWC.png","lowH","27","2","2","2","2","true","","","","","","","","","","","","","","","","",""
"image-keyboard-response","159","267231","0.0-4.0-6.0-1.0-1.27","6156498c17bdcd7cb70c420c","63690f60c96a0a9a64b48fbd","6369198e4c6491b45651c5dc","null","","null","","","","","","","","./tasks/HMM-beads/Images/WhiteBeadChoice.png","","","","","","","","","","","","","","","","","","","","","","","",""
"image-keyboard-response","160","267742","0.0-4.0-6.0-1.0-2.27","6156498c17bdcd7cb70c420c","63690f60c96a0a9a64b48fbd","6369198e4c6491b45651c5dc","null","","null","","","","","","","","./tasks/HMM-beads/Images/WhiteBeadChoiceCorrect.png","","","","","","","","","","","","","","","","","","","","","","","",""
"image-keyboard-response","161","268068","0.0-4.0-6.0-1.0-0.28","6156498c17bdcd7cb70c420c","63690f60c96a0a9a64b48fbd","6369198e4c6491b45651c5dc","324","","j","","","","","","","","./tasks/HMM-beads/Images/NewTrialWC.png","lowH","28","2","2","2","2","true","","","","","","","","","","","","","","","","",""
"image-keyboard-response","162","268377","0.0-4.0-6.0-1.0-1.28","6156498c17bdcd7cb70c420c","63690f60c96a0a9a64b48fbd","6369198e4c6491b45651c5dc","null","","null","","","","","","","","./tasks/HMM-beads/Images/WhiteBeadChoice.png","","","","","","","","","","","","","","","","","","","","","","","",""
"image-keyboard-response","163","268887","0.0-4.0-6.0-1.0-2.28","6156498c17bdcd7cb70c420c","63690f60c96a0a9a64b48fbd","6369198e4c6491b45651c5dc","null","","null","","","","","","","","./tasks/HMM-beads/Images/WhiteBeadChoiceCorrect.png","","","","","","","","","","","","","","","","","","","","","","","",""
"image-keyboard-response","164","269124","0.0-4.0-6.0-1.0-0.29","6156498c17bdcd7cb70c420c","63690f60c96a0a9a64b48fbd","6369198e4c6491b45651c5dc","235","","j","","","","","","","","./tasks/HMM-beads/Images/NewTrialWC.png","lowH","29","2","1","2","2","false","","","","","","","","","","","","","","","","",""
"image-keyboard-response","165","269427","0.0-4.0-6.0-1.0-1.29","6156498c17bdcd7cb70c420c","63690f60c96a0a9a64b48fbd","6369198e4c6491b45651c5dc","null","","null","","","","","","","","./tasks/HMM-beads/Images/WhiteBeadChoice.png","","","","","","","","","","","","","","","","","","","","","","","",""
"image-keyboard-response","166","269938","0.0-4.0-6.0-1.0-2.29","6156498c17bdcd7cb70c420c","63690f60c96a0a9a64b48fbd","6369198e4c6491b45651c5dc","null","","null","","","","","","","","./tasks/HMM-beads/Images/WhiteBeadChoiceWrong.png","","","","","","","","","","","","","","","","","","","","","","","",""
"image-keyboard-response","167","270212","0.0-4.0-6.0-1.0-0.30","6156498c17bdcd7cb70c420c","63690f60c96a0a9a64b48fbd","6369198e4c6491b45651c5dc","273","","f","","","","","","","","./tasks/HMM-beads/Images/NewTrialBC.png","lowH","30","2","2","1","1","false","","","","","","","","","","","","","","","","",""
"image-keyboard-response","168","270526","0.0-4.0-6.0-1.0-1.30","6156498c17bdcd7cb70c420c","63690f60c96a0a9a64b48fbd","6369198e4c6491b45651c5dc","null","","null","","","","","","","","./tasks/HMM-beads/Images/BlackBeadChoice.png","","","","","","","","","","","","","","","","","","","","","","","",""
"image-keyboard-response","169","271037","0.0-4.0-6.0-1.0-2.30","6156498c17bdcd7cb70c420c","63690f60c96a0a9a64b48fbd","6369198e4c6491b45651c5dc","null","","null","","","","","","","","./tasks/HMM-beads/Images/BlackBeadChoiceWrong.png","","","","","","","","","","","","","","","","","","","","","","","",""
"image-keyboard-response","170","271275","0.0-4.0-6.0-1.0-0.31","6156498c17bdcd7cb70c420c","63690f60c96a0a9a64b48fbd","6369198e4c6491b45651c5dc","237","","j","","","","","","","","./tasks/HMM-beads/Images/NewTrialWC.png","lowH","31","2","1","2","2","false","","","","","","","","","","","","","","","","",""
"image-keyboard-response","171","271577","0.0-4.0-6.0-1.0-1.31","6156498c17bdcd7cb70c420c","63690f60c96a0a9a64b48fbd","6369198e4c6491b45651c5dc","null","","null","","","","","","","","./tasks/HMM-beads/Images/WhiteBeadChoice.png","","","","","","","","","","","","","","","","","","","","","","","",""
"image-keyboard-response","172","272088","0.0-4.0-6.0-1.0-2.31","6156498c17bdcd7cb70c420c","63690f60c96a0a9a64b48fbd","6369198e4c6491b45651c5dc","null","","null","","","","","","","","./tasks/HMM-beads/Images/WhiteBeadChoiceWrong.png","","","","","","","","","","","","","","","","","","","","","","","",""
"image-keyboard-response","173","272876","0.0-4.0-6.0-1.0-0.32","6156498c17bdcd7cb70c420c","63690f60c96a0a9a64b48fbd","6369198e4c6491b45651c5dc","787","","j","","","","","","","","./tasks/HMM-beads/Images/NewTrialBC.png","lowH","32","2","2","1","2","true","","","","","","","","","","","","","","","","",""
"image-keyboard-response","174","273182","0.0-4.0-6.0-1.0-1.32","6156498c17bdcd7cb70c420c","63690f60c96a0a9a64b48fbd","6369198e4c6491b45651c5dc","null","","null","","","","","","","","./tasks/HMM-beads/Images/WhiteBeadChoice.png","","","","","","","","","","","","","","","","","","","","","","","",""
"image-keyboard-response","175","273693","0.0-4.0-6.0-1.0-2.32","6156498c17bdcd7cb70c420c","63690f60c96a0a9a64b48fbd","6369198e4c6491b45651c5dc","null","","null","","","","","","","","./tasks/HMM-beads/Images/WhiteBeadChoiceCorrect.png","","","","","","","","","","","","","","","","","","","","","","","",""
"image-keyboard-response","176","273916","0.0-4.0-6.0-1.0-0.33","6156498c17bdcd7cb70c420c","63690f60c96a0a9a64b48fbd","6369198e4c6491b45651c5dc","221","","j","","","","","","","","./tasks/HMM-beads/Images/NewTrialWC.png","lowH","33","2","2","2","2","true","","","","","","","","","","","","","","","","",""
"image-keyboard-response","177","274220","0.0-4.0-6.0-1.0-1.33","6156498c17bdcd7cb70c420c","63690f60c96a0a9a64b48fbd","6369198e4c6491b45651c5dc","null","","null","","","","","","","","./tasks/HMM-beads/Images/WhiteBeadChoice.png","","","","","","","","","","","","","","","","","","","","","","","",""
"image-keyboard-response","178","274728","0.0-4.0-6.0-1.0-2.33","6156498c17bdcd7cb70c420c","63690f60c96a0a9a64b48fbd","6369198e4c6491b45651c5dc","null","","null","","","","","","","","./tasks/HMM-beads/Images/WhiteBeadChoiceCorrect.png","","","","","","","","","","","","","","","","","","","","","","","",""
"image-keyboard-response","179","274875","0.0-4.0-6.0-1.0-0.34","6156498c17bdcd7cb70c420c","63690f60c96a0a9a64b48fbd","6369198e4c6491b45651c5dc","147","","j","","","","","","","","./tasks/HMM-beads/Images/NewTrialWC.png","lowH","34","2","2","2","2","true","","","","","","","","","","","","","","","","",""
"image-keyboard-response","180","275179","0.0-4.0-6.0-1.0-1.34","6156498c17bdcd7cb70c420c","63690f60c96a0a9a64b48fbd","6369198e4c6491b45651c5dc","null","","null","","","","","","","","./tasks/HMM-beads/Images/WhiteBeadChoice.png","","","","","","","","","","","","","","","","","","","","","","","",""
"image-keyboard-response","181","275690","0.0-4.0-6.0-1.0-2.34","6156498c17bdcd7cb70c420c","63690f60c96a0a9a64b48fbd","6369198e4c6491b45651c5dc","null","","null","","","","","","","","./tasks/HMM-beads/Images/WhiteBeadChoiceCorrect.png","","","","","","","","","","","","","","","","","","","","","","","",""
"image-keyboard-response","182","275900","0.0-4.0-6.0-1.0-0.35","6156498c17bdcd7cb70c420c","63690f60c96a0a9a64b48fbd","6369198e4c6491b45651c5dc","210","","j","","","","","","","","./tasks/HMM-beads/Images/NewTrialWC.png","lowH","35","2","2","2","2","true","","","","","","","","","","","","","","","","",""
"image-keyboard-response","183","276214","0.0-4.0-6.0-1.0-1.35","6156498c17bdcd7cb70c420c","63690f60c96a0a9a64b48fbd","6369198e4c6491b45651c5dc","null","","null","","","","","","","","./tasks/HMM-beads/Images/WhiteBeadChoice.png","","","","","","","","","","","","","","","","","","","","","","","",""
"image-keyboard-response","184","276727","0.0-4.0-6.0-1.0-2.35","6156498c17bdcd7cb70c420c","63690f60c96a0a9a64b48fbd","6369198e4c6491b45651c5dc","null","","null","","","","","","","","./tasks/HMM-beads/Images/WhiteBeadChoiceCorrect.png","","","","","","","","","","","","","","","","","","","","","","","",""
"image-keyboard-response","185","276835","0.0-4.0-6.0-1.0-0.36","6156498c17bdcd7cb70c420c","63690f60c96a0a9a64b48fbd","6369198e4c6491b45651c5dc","107","","j","","","","","","","","./tasks/HMM-beads/Images/NewTrialWC.png","lowH","36","2","2","2","2","true","","","","","","","","","","","","","","","","",""
"image-keyboard-response","186","277146","0.0-4.0-6.0-1.0-1.36","6156498c17bdcd7cb70c420c","63690f60c96a0a9a64b48fbd","6369198e4c6491b45651c5dc","null","","null","","","","","","","","./tasks/HMM-beads/Images/WhiteBeadChoice.png","","","","","","","","","","","","","","","","","","","","","","","",""
"image-keyboard-response","187","277655","0.0-4.0-6.0-1.0-2.36","6156498c17bdcd7cb70c420c","63690f60c96a0a9a64b48fbd","6369198e4c6491b45651c5dc","null","","null","","","","","","","","./tasks/HMM-beads/Images/WhiteBeadChoiceCorrect.png","","","","","","","","","","","","","","","","","","","","","","","",""
"image-keyboard-response","188","277931","0.0-4.0-6.0-1.0-0.37","6156498c17bdcd7cb70c420c","63690f60c96a0a9a64b48fbd","6369198e4c6491b45651c5dc","275","","j","","","","","","","","./tasks/HMM-beads/Images/NewTrialWC.png","lowH","37","2","2","2","2","true","","","","","","","","","","","","","","","","",""
"image-keyboard-response","189","278242","0.0-4.0-6.0-1.0-1.37","6156498c17bdcd7cb70c420c","63690f60c96a0a9a64b48fbd","6369198e4c6491b45651c5dc","null","","null","","","","","","","","./tasks/HMM-beads/Images/WhiteBeadChoice.png","","","","","","","","","","","","","","","","","","","","","","","",""
"image-keyboard-response","190","278751","0.0-4.0-6.0-1.0-2.37","6156498c17bdcd7cb70c420c","63690f60c96a0a9a64b48fbd","6369198e4c6491b45651c5dc","null","","null","","","","","","","","./tasks/HMM-beads/Images/WhiteBeadChoiceCorrect.png","","","","","","","","","","","","","","","","","","","","","","","",""
"image-keyboard-response","191","278979","0.0-4.0-6.0-1.0-0.38","6156498c17bdcd7cb70c420c","63690f60c96a0a9a64b48fbd","6369198e4c6491b45651c5dc","226","","f","","","","","","","","./tasks/HMM-beads/Images/NewTrialWC.png","lowH","38","2","2","2","1","false","","","","","","","","","","","","","","","","",""
"image-keyboard-response","192","279294","0.0-4.0-6.0-1.0-1.38","6156498c17bdcd7cb70c420c","63690f60c96a0a9a64b48fbd","6369198e4c6491b45651c5dc","null","","null","","","","","","","","./tasks/HMM-beads/Images/BlackBeadChoice.png","","","","","","","","","","","","","","","","","","","","","","","",""
"image-keyboard-response","193","279805","0.0-4.0-6.0-1.0-2.38","6156498c17bdcd7cb70c420c","63690f60c96a0a9a64b48fbd","6369198e4c6491b45651c5dc","null","","null","","","","","","","","./tasks/HMM-beads/Images/BlackBeadChoiceWrong.png","","","","","","","","","","","","","","","","","","","","","","","",""
"image-keyboard-response","194","280068","0.0-4.0-6.0-1.0-0.39","6156498c17bdcd7cb70c420c","63690f60c96a0a9a64b48fbd","6369198e4c6491b45651c5dc","261","","j","","","","","","","","./tasks/HMM-beads/Images/NewTrialWC.png","lowH","39","2","1","2","2","false","","","","","","","","","","","","","","","","",""
"image-keyboard-response","195","280375","0.0-4.0-6.0-1.0-1.39","6156498c17bdcd7cb70c420c","63690f60c96a0a9a64b48fbd","6369198e4c6491b45651c5dc","null","","null","","","","","","","","./tasks/HMM-beads/Images/WhiteBeadChoice.png","","","","","","","","","","","","","","","","","","","","","","","",""
"image-keyboard-response","196","280888","0.0-4.0-6.0-1.0-2.39","6156498c17bdcd7cb70c420c","63690f60c96a0a9a64b48fbd","6369198e4c6491b45651c5dc","null","","null","","","","","","","","./tasks/HMM-beads/Images/WhiteBeadChoiceWrong.png","","","","","","","","","","","","","","","","","","","","","","","",""
"image-keyboard-response","197","281227","0.0-4.0-6.0-1.0-0.40","6156498c17bdcd7cb70c420c","63690f60c96a0a9a64b48fbd","6369198e4c6491b45651c5dc","338","","j","","","","","","","","./tasks/HMM-beads/Images/NewTrialBC.png","lowH","40","2","2","1","2","true","","","","","","","","","","","","","","","","",""
"image-keyboard-response","198","281536","0.0-4.0-6.0-1.0-1.40","6156498c17bdcd7cb70c420c","63690f60c96a0a9a64b48fbd","6369198e4c6491b45651c5dc","null","","null","","","","","","","","./tasks/HMM-beads/Images/WhiteBeadChoice.png","","","","","","","","","","","","","","","","","","","","","","","",""
"image-keyboard-response","199","282046","0.0-4.0-6.0-1.0-2.40","6156498c17bdcd7cb70c420c","63690f60c96a0a9a64b48fbd","6369198e4c6491b45651c5dc","null","","null","","","","","","","","./tasks/HMM-beads/Images/WhiteBeadChoiceCorrect.png","","","","","","","","","","","","","","","","","","","","","","","",""
"image-keyboard-response","200","282307","0.0-4.0-6.0-1.0-0.41","6156498c17bdcd7cb70c420c","63690f60c96a0a9a64b48fbd","6369198e4c6491b45651c5dc","258","","j","","","","","","","","./tasks/HMM-beads/Images/NewTrialWC.png","lowH","41","2","1","2","2","false","","","","","","","","","","","","","","","","",""
"image-keyboard-response","201","282618","0.0-4.0-6.0-1.0-1.41","6156498c17bdcd7cb70c420c","63690f60c96a0a9a64b48fbd","6369198e4c6491b45651c5dc","null","","null","","","","","","","","./tasks/HMM-beads/Images/WhiteBeadChoice.png","","","","","","","","","","","","","","","","","","","","","","","",""
"image-keyboard-response","202","283128","0.0-4.0-6.0-1.0-2.41","6156498c17bdcd7cb70c420c","63690f60c96a0a9a64b48fbd","6369198e4c6491b45651c5dc","null","","null","","","","","","","","./tasks/HMM-beads/Images/WhiteBeadChoiceWrong.png","","","","","","","","","","","","","","","","","","","","","","","",""
"image-keyboard-response","203","283459","0.0-4.0-6.0-1.0-0.42","6156498c17bdcd7cb70c420c","63690f60c96a0a9a64b48fbd","6369198e4c6491b45651c5dc","330","","j","","","","","","","","./tasks/HMM-beads/Images/NewTrialBC.png","lowH","42","2","1","1","2","false","","","","","","","","","","","","","","","","",""
"image-keyboard-response","204","283766","0.0-4.0-6.0-1.0-1.42","6156498c17bdcd7cb70c420c","63690f60c96a0a9a64b48fbd","6369198e4c6491b45651c5dc","null","","null","","","","","","","","./tasks/HMM-beads/Images/WhiteBeadChoice.png","","","","","","","","","","","","","","","","","","","","","","","",""
"image-keyboard-response","205","284275","0.0-4.0-6.0-1.0-2.42","6156498c17bdcd7cb70c420c","63690f60c96a0a9a64b48fbd","6369198e4c6491b45651c5dc","null","","null","","","","","","","","./tasks/HMM-beads/Images/WhiteBeadChoiceWrong.png","","","","","","","","","","","","","","","","","","","","","","","",""
"image-keyboard-response","206","284508","0.0-4.0-6.0-1.0-0.43","6156498c17bdcd7cb70c420c","63690f60c96a0a9a64b48fbd","6369198e4c6491b45651c5dc","231","","f","","","","","","","","./tasks/HMM-beads/Images/NewTrialBC.png","lowH","43","2","2","1","1","false","","","","","","","","","","","","","","","","",""
"image-keyboard-response","207","284816","0.0-4.0-6.0-1.0-1.43","6156498c17bdcd7cb70c420c","63690f60c96a0a9a64b48fbd","6369198e4c6491b45651c5dc","null","","null","","","","","","","","./tasks/HMM-beads/Images/BlackBeadChoice.png","","","","","","","","","","","","","","","","","","","","","","","",""
"image-keyboard-response","208","285328","0.0-4.0-6.0-1.0-2.43","6156498c17bdcd7cb70c420c","63690f60c96a0a9a64b48fbd","6369198e4c6491b45651c5dc","null","","null","","","","","","","","./tasks/HMM-beads/Images/BlackBeadChoiceWrong.png","","","","","","","","","","","","","","","","","","","","","","","",""
"image-keyboard-response","209","285811","0.0-4.0-6.0-1.0-0.44","6156498c17bdcd7cb70c420c","63690f60c96a0a9a64b48fbd","6369198e4c6491b45651c5dc","482","","j","","","","","","","","./tasks/HMM-beads/Images/NewTrialWC.png","lowH","44","2","2","2","2","true","","","","","","","","","","","","","","","","",""
"image-keyboard-response","210","286119","0.0-4.0-6.0-1.0-1.44","6156498c17bdcd7cb70c420c","63690f60c96a0a9a64b48fbd","6369198e4c6491b45651c5dc","null","","null","","","","","","","","./tasks/HMM-beads/Images/WhiteBeadChoice.png","","","","","","","","","","","","","","","","","","","","","","","",""
"image-keyboard-response","211","286627","0.0-4.0-6.0-1.0-2.44","6156498c17bdcd7cb70c420c","63690f60c96a0a9a64b48fbd","6369198e4c6491b45651c5dc","null","","null","","","","","","","","./tasks/HMM-beads/Images/WhiteBeadChoiceCorrect.png","","","","","","","","","","","","","","","","","","","","","","","",""
"image-keyboard-response","212","286867","0.0-4.0-6.0-1.0-0.45","6156498c17bdcd7cb70c420c","63690f60c96a0a9a64b48fbd","6369198e4c6491b45651c5dc","238","","j","","","","","","","","./tasks/HMM-beads/Images/NewTrialWC.png","lowH","45","2","1","2","2","false","","","","","","","","","","","","","","","","",""
"image-keyboard-response","213","287184","0.0-4.0-6.0-1.0-1.45","6156498c17bdcd7cb70c420c","63690f60c96a0a9a64b48fbd","6369198e4c6491b45651c5dc","null","","null","","","","","","","","./tasks/HMM-beads/Images/WhiteBeadChoice.png","","","","","","","","","","","","","","","","","","","","","","","",""
"image-keyboard-response","214","287692","0.0-4.0-6.0-1.0-2.45","6156498c17bdcd7cb70c420c","63690f60c96a0a9a64b48fbd","6369198e4c6491b45651c5dc","null","","null","","","","","","","","./tasks/HMM-beads/Images/WhiteBeadChoiceWrong.png","","","","","","","","","","","","","","","","","","","","","","","",""
"image-keyboard-response","215","288508","0.0-4.0-6.0-1.0-0.46","6156498c17bdcd7cb70c420c","63690f60c96a0a9a64b48fbd","6369198e4c6491b45651c5dc","815","","f","","","","","","","","./tasks/HMM-beads/Images/NewTrialBC.png","lowH","46","2","2","1","1","false","","","","","","","","","","","","","","","","",""
"image-keyboard-response","216","288820","0.0-4.0-6.0-1.0-1.46","6156498c17bdcd7cb70c420c","63690f60c96a0a9a64b48fbd","6369198e4c6491b45651c5dc","null","","null","","","","","","","","./tasks/HMM-beads/Images/BlackBeadChoice.png","","","","","","","","","","","","","","","","","","","","","","","",""
"image-keyboard-response","217","289329","0.0-4.0-6.0-1.0-2.46","6156498c17bdcd7cb70c420c","63690f60c96a0a9a64b48fbd","6369198e4c6491b45651c5dc","null","","null","","","","","","","","./tasks/HMM-beads/Images/BlackBeadChoiceWrong.png","","","","","","","","","","","","","","","","","","","","","","","",""
"image-keyboard-response","218","289788","0.0-4.0-6.0-1.0-0.47","6156498c17bdcd7cb70c420c","63690f60c96a0a9a64b48fbd","6369198e4c6491b45651c5dc","456","","j","","","","","","","","./tasks/HMM-beads/Images/NewTrialWC.png","lowH","47","2","2","2","2","true","","","","","","","","","","","","","","","","",""
"image-keyboard-response","219","290089","0.0-4.0-6.0-1.0-1.47","6156498c17bdcd7cb70c420c","63690f60c96a0a9a64b48fbd","6369198e4c6491b45651c5dc","null","","null","","","","","","","","./tasks/HMM-beads/Images/WhiteBeadChoice.png","","","","","","","","","","","","","","","","","","","","","","","",""
"image-keyboard-response","220","290601","0.0-4.0-6.0-1.0-2.47","6156498c17bdcd7cb70c420c","63690f60c96a0a9a64b48fbd","6369198e4c6491b45651c5dc","null","","null","","","","","","","","./tasks/HMM-beads/Images/WhiteBeadChoiceCorrect.png","","","","","","","","","","","","","","","","","","","","","","","",""
"image-keyboard-response","221","291059","0.0-4.0-6.0-1.0-0.48","6156498c17bdcd7cb70c420c","63690f60c96a0a9a64b48fbd","6369198e4c6491b45651c5dc","457","","j","","","","","","","","./tasks/HMM-beads/Images/NewTrialWC.png","lowH","48","2","2","2","2","true","","","","","","","","","","","","","","","","",""
"image-keyboard-response","222","291375","0.0-4.0-6.0-1.0-1.48","6156498c17bdcd7cb70c420c","63690f60c96a0a9a64b48fbd","6369198e4c6491b45651c5dc","null","","null","","","","","","","","./tasks/HMM-beads/Images/WhiteBeadChoice.png","","","","","","","","","","","","","","","","","","","","","","","",""
"image-keyboard-response","223","291884","0.0-4.0-6.0-1.0-2.48","6156498c17bdcd7cb70c420c","63690f60c96a0a9a64b48fbd","6369198e4c6491b45651c5dc","null","","null","","","","","","","","./tasks/HMM-beads/Images/WhiteBeadChoiceCorrect.png","","","","","","","","","","","","","","","","","","","","","","","",""
"image-keyboard-response","224","292227","0.0-4.0-6.0-1.0-0.49","6156498c17bdcd7cb70c420c","63690f60c96a0a9a64b48fbd","6369198e4c6491b45651c5dc","343","","j","","","","","","","","./tasks/HMM-beads/Images/NewTrialWC.png","lowH","49","2","2","2","2","true","","","","","","","","","","","","","","","","",""
"image-keyboard-response","225","292534","0.0-4.0-6.0-1.0-1.49","6156498c17bdcd7cb70c420c","63690f60c96a0a9a64b48fbd","6369198e4c6491b45651c5dc","null","","null","","","","","","","","./tasks/HMM-beads/Images/WhiteBeadChoice.png","","","","","","","","","","","","","","","","","","","","","","","",""
"image-keyboard-response","226","293045","0.0-4.0-6.0-1.0-2.49","6156498c17bdcd7cb70c420c","63690f60c96a0a9a64b48fbd","6369198e4c6491b45651c5dc","null","","null","","","","","","","","./tasks/HMM-beads/Images/WhiteBeadChoiceCorrect.png","","","","","","","","","","","","","","","","","","","","","","","",""
"image-keyboard-response","227","293291","0.0-4.0-6.0-1.0-0.50","6156498c17bdcd7cb70c420c","63690f60c96a0a9a64b48fbd","6369198e4c6491b45651c5dc","246","","j","","","","","","","","./tasks/HMM-beads/Images/NewTrialWC.png","lowH","50","2","1","2","2","false","","","","","","","","","","","","","","","","",""
"image-keyboard-response","228","293603","0.0-4.0-6.0-1.0-1.50","6156498c17bdcd7cb70c420c","63690f60c96a0a9a64b48fbd","6369198e4c6491b45651c5dc","null","","null","","","","","","","","./tasks/HMM-beads/Images/WhiteBeadChoice.png","","","","","","","","","","","","","","","","","","","","","","","",""
"image-keyboard-response","229","294113","0.0-4.0-6.0-1.0-2.50","6156498c17bdcd7cb70c420c","63690f60c96a0a9a64b48fbd","6369198e4c6491b45651c5dc","null","","null","","","","","","","","./tasks/HMM-beads/Images/WhiteBeadChoiceWrong.png","","","","","","","","","","","","","","","","","","","","","","","",""
"image-keyboard-response","230","294420","0.0-4.0-6.0-1.0-0.51","6156498c17bdcd7cb70c420c","63690f60c96a0a9a64b48fbd","6369198e4c6491b45651c5dc","305","","j","","","","","","","","./tasks/HMM-beads/Images/NewTrialBC.png","lowH","51","2","1","1","2","false","","","","","","","","","","","","","","","","",""
"image-keyboard-response","231","294734","0.0-4.0-6.0-1.0-1.51","6156498c17bdcd7cb70c420c","63690f60c96a0a9a64b48fbd","6369198e4c6491b45651c5dc","null","","null","","","","","","","","./tasks/HMM-beads/Images/WhiteBeadChoice.png","","","","","","","","","","","","","","","","","","","","","","","",""
"image-keyboard-response","232","295243","0.0-4.0-6.0-1.0-2.51","6156498c17bdcd7cb70c420c","63690f60c96a0a9a64b48fbd","6369198e4c6491b45651c5dc","null","","null","","","","","","","","./tasks/HMM-beads/Images/WhiteBeadChoiceWrong.png","","","","","","","","","","","","","","","","","","","","","","","",""
"image-keyboard-response","233","295923","0.0-4.0-6.0-1.0-0.52","6156498c17bdcd7cb70c420c","63690f60c96a0a9a64b48fbd","6369198e4c6491b45651c5dc","679","","f","","","","","","","","./tasks/HMM-beads/Images/NewTrialBC.png","lowH","52","2","2","1","1","false","","","","","","","","","","","","","","","","",""
"image-keyboard-response","234","296233","0.0-4.0-6.0-1.0-1.52","6156498c17bdcd7cb70c420c","63690f60c96a0a9a64b48fbd","6369198e4c6491b45651c5dc","null","","null","","","","","","","","./tasks/HMM-beads/Images/BlackBeadChoice.png","","","","","","","","","","","","","","","","","","","","","","","",""
"image-keyboard-response","235","296743","0.0-4.0-6.0-1.0-2.52","6156498c17bdcd7cb70c420c","63690f60c96a0a9a64b48fbd","6369198e4c6491b45651c5dc","null","","null","","","","","","","","./tasks/HMM-beads/Images/BlackBeadChoiceWrong.png","","","","","","","","","","","","","","","","","","","","","","","",""
"image-keyboard-response","236","296875","0.0-4.0-6.0-1.0-0.53","6156498c17bdcd7cb70c420c","63690f60c96a0a9a64b48fbd","6369198e4c6491b45651c5dc","130","","j","","","","","","","","./tasks/HMM-beads/Images/NewTrialWC.png","lowH","53","2","2","2","2","true","","","","","","","","","","","","","","","","",""
"image-keyboard-response","237","297191","0.0-4.0-6.0-1.0-1.53","6156498c17bdcd7cb70c420c","63690f60c96a0a9a64b48fbd","6369198e4c6491b45651c5dc","null","","null","","","","","","","","./tasks/HMM-beads/Images/WhiteBeadChoice.png","","","","","","","","","","","","","","","","","","","","","","","",""
"image-keyboard-response","238","297701","0.0-4.0-6.0-1.0-2.53","6156498c17bdcd7cb70c420c","63690f60c96a0a9a64b48fbd","6369198e4c6491b45651c5dc","null","","null","","","","","","","","./tasks/HMM-beads/Images/WhiteBeadChoiceCorrect.png","","","","","","","","","","","","","","","","","","","","","","","",""
"image-keyboard-response","239","297980","0.0-4.0-6.0-1.0-0.54","6156498c17bdcd7cb70c420c","63690f60c96a0a9a64b48fbd","6369198e4c6491b45651c5dc","278","","j","","","","","","","","./tasks/HMM-beads/Images/NewTrialWC.png","lowH","54","2","2","2","2","true","","","","","","","","","","","","","","","","",""
"image-keyboard-response","240","298287","0.0-4.0-6.0-1.0-1.54","6156498c17bdcd7cb70c420c","63690f60c96a0a9a64b48fbd","6369198e4c6491b45651c5dc","null","","null","","","","","","","","./tasks/HMM-beads/Images/WhiteBeadChoice.png","","","","","","","","","","","","","","","","","","","","","","","",""
"image-keyboard-response","241","298800","0.0-4.0-6.0-1.0-2.54","6156498c17bdcd7cb70c420c","63690f60c96a0a9a64b48fbd","6369198e4c6491b45651c5dc","null","","null","","","","","","","","./tasks/HMM-beads/Images/WhiteBeadChoiceCorrect.png","","","","","","","","","","","","","","","","","","","","","","","",""
"image-keyboard-response","242","299075","0.0-4.0-6.0-1.0-0.55","6156498c17bdcd7cb70c420c","63690f60c96a0a9a64b48fbd","6369198e4c6491b45651c5dc","273","","j","","","","","","","","./tasks/HMM-beads/Images/NewTrialWC.png","lowH","55","2","2","2","2","true","","","","","","","","","","","","","","","","",""
"image-keyboard-response","243","299385","0.0-4.0-6.0-1.0-1.55","6156498c17bdcd7cb70c420c","63690f60c96a0a9a64b48fbd","6369198e4c6491b45651c5dc","null","","null","","","","","","","","./tasks/HMM-beads/Images/WhiteBeadChoice.png","","","","","","","","","","","","","","","","","","","","","","","",""
"image-keyboard-response","244","299896","0.0-4.0-6.0-1.0-2.55","6156498c17bdcd7cb70c420c","63690f60c96a0a9a64b48fbd","6369198e4c6491b45651c5dc","null","","null","","","","","","","","./tasks/HMM-beads/Images/WhiteBeadChoiceCorrect.png","","","","","","","","","","","","","","","","","","","","","","","",""
"image-keyboard-response","245","300140","0.0-4.0-6.0-1.0-0.56","6156498c17bdcd7cb70c420c","63690f60c96a0a9a64b48fbd","6369198e4c6491b45651c5dc","242","","j","","","","","","","","./tasks/HMM-beads/Images/NewTrialWC.png","lowH","56","2","1","2","2","false","","","","","","","","","","","","","","","","",""
"image-keyboard-response","246","300454","0.0-4.0-6.0-1.0-1.56","6156498c17bdcd7cb70c420c","63690f60c96a0a9a64b48fbd","6369198e4c6491b45651c5dc","null","","null","","","","","","","","./tasks/HMM-beads/Images/WhiteBeadChoice.png","","","","","","","","","","","","","","","","","","","","","","","",""
"image-keyboard-response","247","300963","0.0-4.0-6.0-1.0-2.56","6156498c17bdcd7cb70c420c","63690f60c96a0a9a64b48fbd","6369198e4c6491b45651c5dc","null","","null","","","","","","","","./tasks/HMM-beads/Images/WhiteBeadChoiceWrong.png","","","","","","","","","","","","","","","","","","","","","","","",""
"image-keyboard-response","248","301315","0.0-4.0-6.0-1.0-0.57","6156498c17bdcd7cb70c420c","63690f60c96a0a9a64b48fbd","6369198e4c6491b45651c5dc","352","","j","","","","","","","","./tasks/HMM-beads/Images/NewTrialBC.png","lowH","57","2","2","1","2","true","","","","","","","","","","","","","","","","",""
"image-keyboard-response","249","301628","0.0-4.0-6.0-1.0-1.57","6156498c17bdcd7cb70c420c","63690f60c96a0a9a64b48fbd","6369198e4c6491b45651c5dc","null","","null","","","","","","","","./tasks/HMM-beads/Images/WhiteBeadChoice.png","","","","","","","","","","","","","","","","","","","","","","","",""
"image-keyboard-response","250","302138","0.0-4.0-6.0-1.0-2.57","6156498c17bdcd7cb70c420c","63690f60c96a0a9a64b48fbd","6369198e4c6491b45651c5dc","null","","null","","","","","","","","./tasks/HMM-beads/Images/WhiteBeadChoiceCorrect.png","","","","","","","","","","","","","","","","","","","","","","","",""
"image-keyboard-response","251","302404","0.0-4.0-6.0-1.0-0.58","6156498c17bdcd7cb70c420c","63690f60c96a0a9a64b48fbd","6369198e4c6491b45651c5dc","264","","j","","","","","","","","./tasks/HMM-beads/Images/NewTrialWC.png","lowH","58","2","1","2","2","false","","","","","","","","","","","","","","","","",""
"image-keyboard-response","252","302709","0.0-4.0-6.0-1.0-1.58","6156498c17bdcd7cb70c420c","63690f60c96a0a9a64b48fbd","6369198e4c6491b45651c5dc","null","","null","","","","","","","","./tasks/HMM-beads/Images/WhiteBeadChoice.png","","","","","","","","","","","","","","","","","","","","","","","",""
"image-keyboard-response","253","303218","0.0-4.0-6.0-1.0-2.58","6156498c17bdcd7cb70c420c","63690f60c96a0a9a64b48fbd","6369198e4c6491b45651c5dc","null","","null","","","","","","","","./tasks/HMM-beads/Images/WhiteBeadChoiceWrong.png","","","","","","","","","","","","","","","","","","","","","","","",""
"image-keyboard-response","254","303476","0.0-4.0-6.0-1.0-0.59","6156498c17bdcd7cb70c420c","63690f60c96a0a9a64b48fbd","6369198e4c6491b45651c5dc","255","","j","","","","","","","","./tasks/HMM-beads/Images/NewTrialBC.png","lowH","59","2","1","1","2","false","","","","","","","","","","","","","","","","",""
"image-keyboard-response","255","303790","0.0-4.0-6.0-1.0-1.59","6156498c17bdcd7cb70c420c","63690f60c96a0a9a64b48fbd","6369198e4c6491b45651c5dc","null","","null","","","","","","","","./tasks/HMM-beads/Images/WhiteBeadChoice.png","","","","","","","","","","","","","","","","","","","","","","","",""
"image-keyboard-response","256","304301","0.0-4.0-6.0-1.0-2.59","6156498c17bdcd7cb70c420c","63690f60c96a0a9a64b48fbd","6369198e4c6491b45651c5dc","null","","null","","","","","","","","./tasks/HMM-beads/Images/WhiteBeadChoiceWrong.png","","","","","","","","","","","","","","","","","","","","","","","",""
"image-keyboard-response","257","304468","0.0-4.0-6.0-1.0-0.60","6156498c17bdcd7cb70c420c","63690f60c96a0a9a64b48fbd","6369198e4c6491b45651c5dc","165","","f","","","","","","","","./tasks/HMM-beads/Images/NewTrialBC.png","lowH","60","2","2","1","1","false","","","","","","","","","","","","","","","","",""
"image-keyboard-response","258","304781","0.0-4.0-6.0-1.0-1.60","6156498c17bdcd7cb70c420c","63690f60c96a0a9a64b48fbd","6369198e4c6491b45651c5dc","null","","null","","","","","","","","./tasks/HMM-beads/Images/BlackBeadChoice.png","","","","","","","","","","","","","","","","","","","","","","","",""
"image-keyboard-response","259","305293","0.0-4.0-6.0-1.0-2.60","6156498c17bdcd7cb70c420c","63690f60c96a0a9a64b48fbd","6369198e4c6491b45651c5dc","null","","null","","","","","","","","./tasks/HMM-beads/Images/BlackBeadChoiceWrong.png","","","","","","","","","","","","","","","","","","","","","","","",""
"image-keyboard-response","260","305300","0.0-4.0-6.0-1.0-0.61","6156498c17bdcd7cb70c420c","63690f60c96a0a9a64b48fbd","6369198e4c6491b45651c5dc","6","","j","","","","","","","","./tasks/HMM-beads/Images/NewTrialWC.png","lowH","61","2","2","2","2","true","","","","","","","","","","","","","","","","",""
"image-keyboard-response","261","305603","0.0-4.0-6.0-1.0-1.61","6156498c17bdcd7cb70c420c","63690f60c96a0a9a64b48fbd","6369198e4c6491b45651c5dc","null","","null","","","","","","","","./tasks/HMM-beads/Images/WhiteBeadChoice.png","","","","","","","","","","","","","","","","","","","","","","","",""
"image-keyboard-response","262","306114","0.0-4.0-6.0-1.0-2.61","6156498c17bdcd7cb70c420c","63690f60c96a0a9a64b48fbd","6369198e4c6491b45651c5dc","null","","null","","","","","","","","./tasks/HMM-beads/Images/WhiteBeadChoiceCorrect.png","","","","","","","","","","","","","","","","","","","","","","","",""
"image-keyboard-response","263","306348","0.0-4.0-6.0-1.0-0.62","6156498c17bdcd7cb70c420c","63690f60c96a0a9a64b48fbd","6369198e4c6491b45651c5dc","232","","j","","","","","","","","./tasks/HMM-beads/Images/NewTrialWC.png","lowH","62","2","2","2","2","true","","","","","","","","","","","","","","","","",""
"image-keyboard-response","264","306655","0.0-4.0-6.0-1.0-1.62","6156498c17bdcd7cb70c420c","63690f60c96a0a9a64b48fbd","6369198e4c6491b45651c5dc","null","","null","","","","","","","","./tasks/HMM-beads/Images/WhiteBeadChoice.png","","","","","","","","","","","","","","","","","","","","","","","",""
"image-keyboard-response","265","307163","0.0-4.0-6.0-1.0-2.62","6156498c17bdcd7cb70c420c","63690f60c96a0a9a64b48fbd","6369198e4c6491b45651c5dc","null","","null","","","","","","","","./tasks/HMM-beads/Images/WhiteBeadChoiceCorrect.png","","","","","","","","","","","","","","","","","","","","","","","",""
"image-keyboard-response","266","307372","0.0-4.0-6.0-1.0-0.63","6156498c17bdcd7cb70c420c","63690f60c96a0a9a64b48fbd","6369198e4c6491b45651c5dc","207","","j","","","","","","","","./tasks/HMM-beads/Images/NewTrialWC.png","lowH","63","2","1","2","2","false","","","","","","","","","","","","","","","","",""
"image-keyboard-response","267","307674","0.0-4.0-6.0-1.0-1.63","6156498c17bdcd7cb70c420c","63690f60c96a0a9a64b48fbd","6369198e4c6491b45651c5dc","null","","null","","","","","","","","./tasks/HMM-beads/Images/WhiteBeadChoice.png","","","","","","","","","","","","","","","","","","","","","","","",""
"image-keyboard-response","268","308185","0.0-4.0-6.0-1.0-2.63","6156498c17bdcd7cb70c420c","63690f60c96a0a9a64b48fbd","6369198e4c6491b45651c5dc","null","","null","","","","","","","","./tasks/HMM-beads/Images/WhiteBeadChoiceWrong.png","","","","","","","","","","","","","","","","","","","","","","","",""
"image-keyboard-response","269","308515","0.0-4.0-6.0-1.0-0.64","6156498c17bdcd7cb70c420c","63690f60c96a0a9a64b48fbd","6369198e4c6491b45651c5dc","329","","j","","","","","","","","./tasks/HMM-beads/Images/NewTrialBC.png","lowH","64","2","2","1","2","true","","","","","","","","","","","","","","","","",""
"image-keyboard-response","270","308820","0.0-4.0-6.0-1.0-1.64","6156498c17bdcd7cb70c420c","63690f60c96a0a9a64b48fbd","6369198e4c6491b45651c5dc","null","","null","","","","","","","","./tasks/HMM-beads/Images/WhiteBeadChoice.png","","","","","","","","","","","","","","","","","","","","","","","",""
"image-keyboard-response","271","309332","0.0-4.0-6.0-1.0-2.64","6156498c17bdcd7cb70c420c","63690f60c96a0a9a64b48fbd","6369198e4c6491b45651c5dc","null","","null","","","","","","","","./tasks/HMM-beads/Images/WhiteBeadChoiceCorrect.png","","","","","","","","","","","","","","","","","","","","","","","",""
"image-keyboard-response","272","309597","0.0-4.0-6.0-1.0-0.65","6156498c17bdcd7cb70c420c","63690f60c96a0a9a64b48fbd","6369198e4c6491b45651c5dc","263","","j","","","","","","","","./tasks/HMM-beads/Images/NewTrialWC.png","lowH","65","2","2","2","2","true","","","","","","","","","","","","","","","","",""
"image-keyboard-response","273","309903","0.0-4.0-6.0-1.0-1.65","6156498c17bdcd7cb70c420c","63690f60c96a0a9a64b48fbd","6369198e4c6491b45651c5dc","null","","null","","","","","","","","./tasks/HMM-beads/Images/WhiteBeadChoice.png","","","","","","","","","","","","","","","","","","","","","","","",""
"image-keyboard-response","274","310412","0.0-4.0-6.0-1.0-2.65","6156498c17bdcd7cb70c420c","63690f60c96a0a9a64b48fbd","6369198e4c6491b45651c5dc","null","","null","","","","","","","","./tasks/HMM-beads/Images/WhiteBeadChoiceCorrect.png","","","","","","","","","","","","","","","","","","","","","","","",""
"image-keyboard-response","275","310548","0.0-4.0-6.0-1.0-0.66","6156498c17bdcd7cb70c420c","63690f60c96a0a9a64b48fbd","6369198e4c6491b45651c5dc","134","","j","","","","","","","","./tasks/HMM-beads/Images/NewTrialWC.png","lowH","66","2","1","2","2","false","","","","","","","","","","","","","","","","",""
"image-keyboard-response","276","310858","0.0-4.0-6.0-1.0-1.66","6156498c17bdcd7cb70c420c","63690f60c96a0a9a64b48fbd","6369198e4c6491b45651c5dc","null","","null","","","","","","","","./tasks/HMM-beads/Images/WhiteBeadChoice.png","","","","","","","","","","","","","","","","","","","","","","","",""
"image-keyboard-response","277","311370","0.0-4.0-6.0-1.0-2.66","6156498c17bdcd7cb70c420c","63690f60c96a0a9a64b48fbd","6369198e4c6491b45651c5dc","null","","null","","","","","","","","./tasks/HMM-beads/Images/WhiteBeadChoiceWrong.png","","","","","","","","","","","","","","","","","","","","","","","",""
"image-keyboard-response","278","311516","0.0-4.0-6.0-1.0-0.67","6156498c17bdcd7cb70c420c","63690f60c96a0a9a64b48fbd","6369198e4c6491b45651c5dc","144","","j","","","","","","","","./tasks/HMM-beads/Images/NewTrialBC.png","lowH","67","2","2","1","2","true","","","","","","","","","","","","","","","","",""
"image-keyboard-response","279","311833","0.0-4.0-6.0-1.0-1.67","6156498c17bdcd7cb70c420c","63690f60c96a0a9a64b48fbd","6369198e4c6491b45651c5dc","null","","null","","","","","","","","./tasks/HMM-beads/Images/WhiteBeadChoice.png","","","","","","","","","","","","","","","","","","","","","","","",""
"image-keyboard-response","280","312344","0.0-4.0-6.0-1.0-2.67","6156498c17bdcd7cb70c420c","63690f60c96a0a9a64b48fbd","6369198e4c6491b45651c5dc","null","","null","","","","","","","","./tasks/HMM-beads/Images/WhiteBeadChoiceCorrect.png","","","","","","","","","","","","","","","","","","","","","","","",""
"image-keyboard-response","281","312563","0.0-4.0-6.0-1.0-0.68","6156498c17bdcd7cb70c420c","63690f60c96a0a9a64b48fbd","6369198e4c6491b45651c5dc","218","","j","","","","","","","","./tasks/HMM-beads/Images/NewTrialWC.png","lowH","68","2","2","2","2","true","","","","","","","","","","","","","","","","",""
"image-keyboard-response","282","312868","0.0-4.0-6.0-1.0-1.68","6156498c17bdcd7cb70c420c","63690f60c96a0a9a64b48fbd","6369198e4c6491b45651c5dc","null","","null","","","","","","","","./tasks/HMM-beads/Images/WhiteBeadChoice.png","","","","","","","","","","","","","","","","","","","","","","","",""
"image-keyboard-response","283","313378","0.0-4.0-6.0-1.0-2.68","6156498c17bdcd7cb70c420c","63690f60c96a0a9a64b48fbd","6369198e4c6491b45651c5dc","null","","null","","","","","","","","./tasks/HMM-beads/Images/WhiteBeadChoiceCorrect.png","","","","","","","","","","","","","","","","","","","","","","","",""
"image-keyboard-response","284","313564","0.0-4.0-6.0-1.0-0.69","6156498c17bdcd7cb70c420c","63690f60c96a0a9a64b48fbd","6369198e4c6491b45651c5dc","187","","j","","","","","","","","./tasks/HMM-beads/Images/NewTrialWC.png","lowH","69","2","2","2","2","true","","","","","","","","","","","","","","","","",""
"image-keyboard-response","285","313870","0.0-4.0-6.0-1.0-1.69","6156498c17bdcd7cb70c420c","63690f60c96a0a9a64b48fbd","6369198e4c6491b45651c5dc","null","","null","","","","","","","","./tasks/HMM-beads/Images/WhiteBeadChoice.png","","","","","","","","","","","","","","","","","","","","","","","",""
"image-keyboard-response","286","314378","0.0-4.0-6.0-1.0-2.69","6156498c17bdcd7cb70c420c","63690f60c96a0a9a64b48fbd","6369198e4c6491b45651c5dc","null","","null","","","","","","","","./tasks/HMM-beads/Images/WhiteBeadChoiceCorrect.png","","","","","","","","","","","","","","","","","","","","","","","",""
"image-keyboard-response","287","314579","0.0-4.0-6.0-1.0-0.70","6156498c17bdcd7cb70c420c","63690f60c96a0a9a64b48fbd","6369198e4c6491b45651c5dc","202","","j","","","","","","","","./tasks/HMM-beads/Images/NewTrialWC.png","lowH","70","2","2","2","2","true","","","","","","","","","","","","","","","","",""
"image-keyboard-response","288","314888","0.0-4.0-6.0-1.0-1.70","6156498c17bdcd7cb70c420c","63690f60c96a0a9a64b48fbd","6369198e4c6491b45651c5dc","null","","null","","","","","","","","./tasks/HMM-beads/Images/WhiteBeadChoice.png","","","","","","","","","","","","","","","","","","","","","","","",""
"image-keyboard-response","289","315399","0.0-4.0-6.0-1.0-2.70","6156498c17bdcd7cb70c420c","63690f60c96a0a9a64b48fbd","6369198e4c6491b45651c5dc","null","","null","","","","","","","","./tasks/HMM-beads/Images/WhiteBeadChoiceCorrect.png","","","","","","","","","","","","","","","","","","","","","","","",""
"image-keyboard-response","290","315588","0.0-4.0-6.0-1.0-0.71","6156498c17bdcd7cb70c420c","63690f60c96a0a9a64b48fbd","6369198e4c6491b45651c5dc","186","","j","","","","","","","","./tasks/HMM-beads/Images/NewTrialWC.png","lowH","71","2","2","2","2","true","","","","","","","","","","","","","","","","",""
"image-keyboard-response","291","315894","0.0-4.0-6.0-1.0-1.71","6156498c17bdcd7cb70c420c","63690f60c96a0a9a64b48fbd","6369198e4c6491b45651c5dc","null","","null","","","","","","","","./tasks/HMM-beads/Images/WhiteBeadChoice.png","","","","","","","","","","","","","","","","","","","","","","","",""
"image-keyboard-response","292","316404","0.0-4.0-6.0-1.0-2.71","6156498c17bdcd7cb70c420c","63690f60c96a0a9a64b48fbd","6369198e4c6491b45651c5dc","null","","null","","","","","","","","./tasks/HMM-beads/Images/WhiteBeadChoiceCorrect.png","","","","","","","","","","","","","","","","","","","","","","","",""
"image-keyboard-response","293","316532","0.0-4.0-6.0-1.0-0.72","6156498c17bdcd7cb70c420c","63690f60c96a0a9a64b48fbd","6369198e4c6491b45651c5dc","127","","j","","","","","","","","./tasks/HMM-beads/Images/NewTrialWC.png","lowH","72","2","1","2","2","false","","","","","","","","","","","","","","","","",""
"image-keyboard-response","294","316834","0.0-4.0-6.0-1.0-1.72","6156498c17bdcd7cb70c420c","63690f60c96a0a9a64b48fbd","6369198e4c6491b45651c5dc","null","","null","","","","","","","","./tasks/HMM-beads/Images/WhiteBeadChoice.png","","","","","","","","","","","","","","","","","","","","","","","",""
"image-keyboard-response","295","317346","0.0-4.0-6.0-1.0-2.72","6156498c17bdcd7cb70c420c","63690f60c96a0a9a64b48fbd","6369198e4c6491b45651c5dc","null","","null","","","","","","","","./tasks/HMM-beads/Images/WhiteBeadChoiceWrong.png","","","","","","","","","","","","","","","","","","","","","","","",""
"image-keyboard-response","296","317508","0.0-4.0-6.0-1.0-0.73","6156498c17bdcd7cb70c420c","63690f60c96a0a9a64b48fbd","6369198e4c6491b45651c5dc","160","","j","","","","","","","","./tasks/HMM-beads/Images/NewTrialBC.png","lowH","73","2","2","1","2","true","","","","","","","","","","","","","","","","",""
"image-keyboard-response","297","317822","0.0-4.0-6.0-1.0-1.73","6156498c17bdcd7cb70c420c","63690f60c96a0a9a64b48fbd","6369198e4c6491b45651c5dc","null","","null","","","","","","","","./tasks/HMM-beads/Images/WhiteBeadChoice.png","","","","","","","","","","","","","","","","","","","","","","","",""
"image-keyboard-response","298","318331","0.0-4.0-6.0-1.0-2.73","6156498c17bdcd7cb70c420c","63690f60c96a0a9a64b48fbd","6369198e4c6491b45651c5dc","null","","null","","","","","","","","./tasks/HMM-beads/Images/WhiteBeadChoiceCorrect.png","","","","","","","","","","","","","","","","","","","","","","","",""
"image-keyboard-response","299","318420","0.0-4.0-6.0-1.0-0.74","6156498c17bdcd7cb70c420c","63690f60c96a0a9a64b48fbd","6369198e4c6491b45651c5dc","88","","j","","","","","","","","./tasks/HMM-beads/Images/NewTrialWC.png","lowH","74","2","1","2","2","false","","","","","","","","","","","","","","","","",""
"image-keyboard-response","300","318733","0.0-4.0-6.0-1.0-1.74","6156498c17bdcd7cb70c420c","63690f60c96a0a9a64b48fbd","6369198e4c6491b45651c5dc","null","","null","","","","","","","","./tasks/HMM-beads/Images/WhiteBeadChoice.png","","","","","","","","","","","","","","","","","","","","","","","",""
"image-keyboard-response","301","319244","0.0-4.0-6.0-1.0-2.74","6156498c17bdcd7cb70c420c","63690f60c96a0a9a64b48fbd","6369198e4c6491b45651c5dc","null","","null","","","","","","","","./tasks/HMM-beads/Images/WhiteBeadChoiceWrong.png","","","","","","","","","","","","","","","","","","","","","","","",""
"image-keyboard-response","302","319404","0.0-4.0-6.0-1.0-0.75","6156498c17bdcd7cb70c420c","63690f60c96a0a9a64b48fbd","6369198e4c6491b45651c5dc","158","","j","","","","","","","","./tasks/HMM-beads/Images/NewTrialBC.png","lowH","75","2","2","1","2","true","","","","","","","","","","","","","","","","",""
"image-keyboard-response","303","319710","0.0-4.0-6.0-1.0-1.75","6156498c17bdcd7cb70c420c","63690f60c96a0a9a64b48fbd","6369198e4c6491b45651c5dc","null","","null","","","","","","","","./tasks/HMM-beads/Images/WhiteBeadChoice.png","","","","","","","","","","","","","","","","","","","","","","","",""
"image-keyboard-response","304","320221","0.0-4.0-6.0-1.0-2.75","6156498c17bdcd7cb70c420c","63690f60c96a0a9a64b48fbd","6369198e4c6491b45651c5dc","null","","null","","","","","","","","./tasks/HMM-beads/Images/WhiteBeadChoiceCorrect.png","","","","","","","","","","","","","","","","","","","","","","","",""
"image-keyboard-response","305","320332","0.0-4.0-6.0-1.0-0.76","6156498c17bdcd7cb70c420c","63690f60c96a0a9a64b48fbd","6369198e4c6491b45651c5dc","108","","j","","","","","","","","./tasks/HMM-beads/Images/NewTrialWC.png","lowH","76","2","1","2","2","false","","","","","","","","","","","","","","","","",""
"image-keyboard-response","306","320637","0.0-4.0-6.0-1.0-1.76","6156498c17bdcd7cb70c420c","63690f60c96a0a9a64b48fbd","6369198e4c6491b45651c5dc","null","","null","","","","","","","","./tasks/HMM-beads/Images/WhiteBeadChoice.png","","","","","","","","","","","","","","","","","","","","","","","",""
"image-keyboard-response","307","321145","0.0-4.0-6.0-1.0-2.76","6156498c17bdcd7cb70c420c","63690f60c96a0a9a64b48fbd","6369198e4c6491b45651c5dc","null","","null","","","","","","","","./tasks/HMM-beads/Images/WhiteBeadChoiceWrong.png","","","","","","","","","","","","","","","","","","","","","","","",""
"image-keyboard-response","308","321235","0.0-4.0-6.0-1.0-0.77","6156498c17bdcd7cb70c420c","63690f60c96a0a9a64b48fbd","6369198e4c6491b45651c5dc","89","","j","","","","","","","","./tasks/HMM-beads/Images/NewTrialBC.png","lowH","77","2","2","1","2","true","","","","","","","","","","","","","","","","",""
"image-keyboard-response","309","321546","0.0-4.0-6.0-1.0-1.77","6156498c17bdcd7cb70c420c","63690f60c96a0a9a64b48fbd","6369198e4c6491b45651c5dc","null","","null","","","","","","","","./tasks/HMM-beads/Images/WhiteBeadChoice.png","","","","","","","","","","","","","","","","","","","","","","","",""
"image-keyboard-response","310","322056","0.0-4.0-6.0-1.0-2.77","6156498c17bdcd7cb70c420c","63690f60c96a0a9a64b48fbd","6369198e4c6491b45651c5dc","null","","null","","","","","","","","./tasks/HMM-beads/Images/WhiteBeadChoiceCorrect.png","","","","","","","","","","","","","","","","","","","","","","","",""
"image-keyboard-response","311","322139","0.0-4.0-6.0-1.0-0.78","6156498c17bdcd7cb70c420c","63690f60c96a0a9a64b48fbd","6369198e4c6491b45651c5dc","82","","j","","","","","","","","./tasks/HMM-beads/Images/NewTrialWC.png","lowH","78","2","2","2","2","true","","","","","","","","","","","","","","","","",""
"image-keyboard-response","312","322443","0.0-4.0-6.0-1.0-1.78","6156498c17bdcd7cb70c420c","63690f60c96a0a9a64b48fbd","6369198e4c6491b45651c5dc","null","","null","","","","","","","","./tasks/HMM-beads/Images/WhiteBeadChoice.png","","","","","","","","","","","","","","","","","","","","","","","",""
"image-keyboard-response","313","322952","0.0-4.0-6.0-1.0-2.78","6156498c17bdcd7cb70c420c","63690f60c96a0a9a64b48fbd","6369198e4c6491b45651c5dc","null","","null","","","","","","","","./tasks/HMM-beads/Images/WhiteBeadChoiceCorrect.png","","","","","","","","","","","","","","","","","","","","","","","",""
"image-keyboard-response","314","323043","0.0-4.0-6.0-1.0-0.79","6156498c17bdcd7cb70c420c","63690f60c96a0a9a64b48fbd","6369198e4c6491b45651c5dc","89","","j","","","","","","","","./tasks/HMM-beads/Images/NewTrialWC.png","lowH","79","2","2","2","2","true","","","","","","","","","","","","","","","","",""
"image-keyboard-response","315","323354","0.0-4.0-6.0-1.0-1.79","6156498c17bdcd7cb70c420c","63690f60c96a0a9a64b48fbd","6369198e4c6491b45651c5dc","null","","null","","","","","","","","./tasks/HMM-beads/Images/WhiteBeadChoice.png","","","","","","","","","","","","","","","","","","","","","","","",""
"image-keyboard-response","316","323868","0.0-4.0-6.0-1.0-2.79","6156498c17bdcd7cb70c420c","63690f60c96a0a9a64b48fbd","6369198e4c6491b45651c5dc","null","","null","","","","","","","","./tasks/HMM-beads/Images/WhiteBeadChoiceCorrect.png","","","","","","","","","","","","","","","","","","","","","","","",""
"image-keyboard-response","317","324508","0.0-4.0-6.0-1.0-0.80","6156498c17bdcd7cb70c420c","63690f60c96a0a9a64b48fbd","6369198e4c6491b45651c5dc","638","","j","","","","","","","","./tasks/HMM-beads/Images/NewTrialWC.png","lowH","80","2","2","2","2","true","","","","","","","","","","","","","","","","",""
"image-keyboard-response","318","324812","0.0-4.0-6.0-1.0-1.80","6156498c17bdcd7cb70c420c","63690f60c96a0a9a64b48fbd","6369198e4c6491b45651c5dc","null","","null","","","","","","","","./tasks/HMM-beads/Images/WhiteBeadChoice.png","","","","","","","","","","","","","","","","","","","","","","","",""
"image-keyboard-response","319","325323","0.0-4.0-6.0-1.0-2.80","6156498c17bdcd7cb70c420c","63690f60c96a0a9a64b48fbd","6369198e4c6491b45651c5dc","null","","null","","","","","","","","./tasks/HMM-beads/Images/WhiteBeadChoiceCorrect.png","","","","","","","","","","","","","","","","","","","","","","","",""
"image-keyboard-response","320","325828","0.0-4.0-6.0-1.0-0.81","6156498c17bdcd7cb70c420c","63690f60c96a0a9a64b48fbd","6369198e4c6491b45651c5dc","503","","j","","","","","","","","./tasks/HMM-beads/Images/NewTrialWC.png","lowH","81","2","2","2","2","true","","","","","","","","","","","","","","","","",""
"image-keyboard-response","321","326142","0.0-4.0-6.0-1.0-1.81","6156498c17bdcd7cb70c420c","63690f60c96a0a9a64b48fbd","6369198e4c6491b45651c5dc","null","","null","","","","","","","","./tasks/HMM-beads/Images/WhiteBeadChoice.png","","","","","","","","","","","","","","","","","","","","","","","",""
