"trial_type","trial_index","time_elapsed","internal_node_id","subject_id","study_id","session_id","rt","url","response","question_order","view_history","success","timeout","failed_images","failed_audio","failed_video","stimulus","block","trial_number","jar","bead","previous_bead","choice","correct","lowH_score","highH_score","state","rewarded"
"pavlovia","0","665","0.0-0.0","60520f7b38610f36b366a806","6359551218e5c682346227eb","0x8awt1y35pa","","","","","","","","","","","","","","","","","","","","","",""
"external-html","1","4288","0.0-1.0-0.0","60520f7b38610f36b366a806","6359551218e5c682346227eb","0x8awt1y35pa","3618","new_consent.html","","","","","","","","","","","","","","","","","","","",""
"survey-multi-choice","2","8895","0.0-1.0-1.0","60520f7b38610f36b366a806","6359551218e5c682346227eb","0x8awt1y35pa","4604","","{""Q0"":""Non-binary"",""Q1"":""Asian""}","[0,1]","","","","","","","","","","","","","","","","","",""
"survey-text","3","10865","0.0-1.0-2.0","60520f7b38610f36b366a806","6359551218e5c682346227eb","0x8awt1y35pa","1967","","{""Q0"":""3yt""}","","","","","","","","","","","","","","","","","","",""
"instructions","4","13562","0.0-2.0","60520f7b38610f36b366a806","6359551218e5c682346227eb","0x8awt1y35pa","2588","","","","[{""page_index"":0,""viewing_time"":2437},{""page_index"":1,""viewing_time"":151}]","","","","","","","","","","","","","","","","",""
"instructions","5","13711","0.0-3.0","60520f7b38610f36b366a806","6359551218e5c682346227eb","0x8awt1y35pa","147","","","","[{""page_index"":0,""viewing_time"":147}]","","","","","","","","","","","","","","","","",""
"preload","6","13752","0.0-4.0-0.0","60520f7b38610f36b366a806","6359551218e5c682346227eb","0x8awt1y35pa","","","","","","true","false","[]","[]","[]","","","","","","","","","","","",""
"instructions","7","15634","0.0-4.0-1.0","60520f7b38610f36b366a806","6359551218e5c682346227eb","0x8awt1y35pa","1882","","","","[{""page_index"":0,""viewing_time"":142},{""page_index"":1,""viewing_time"":254},{""page_index"":2,""viewing_time"":177},{""page_index"":3,""viewing_time"":136},{""page_index"":4,""viewing_time"":137},{""page_index"":5,""viewing_time"":160},{""page_index"":6,""viewing_time"":148},{""page_index"":7,""viewing_time"":156},{""page_index"":8,""viewing_time"":156},{""page_index"":9,""viewing_time"":152},{""page_index"":10,""viewing_time"":136},{""page_index"":11,""viewing_time"":128}]","","","","","","","","","","","","","","","","",""
"html-button-response","8","17871","0.0-4.0-2.0-0.0-0.0","60520f7b38610f36b366a806","6359551218e5c682346227eb","0x8awt1y35pa","2235","","1","","","","","","","","<div align=center>Your goal is to predict…?<br><br></div>","","","","","","","","","","",""
"html-button-response","9","19927","0.0-4.0-2.0-1.0-0.0","60520f7b38610f36b366a806","6359551218e5c682346227eb","0x8awt1y35pa","1123","","2","","","","","","","","<div align=center>In the jar with mostly white beads, there are ___% white beads and ___% black beads?<br><br></div>","","","","","","","","","","",""
"html-button-response","10","21877","0.0-4.0-2.0-2.0-0.0","60520f7b38610f36b366a806","6359551218e5c682346227eb","0x8awt1y35pa","1242","","0","","","","","","","","<div align=center>When there is a 1% probability that the jars will switch, the next bead will most likely be drawn from the…<br><br></div>","","","","","","","","","","",""
"html-button-response","11","23684","0.0-4.0-2.0-3.0-0.0","60520f7b38610f36b366a806","6359551218e5c682346227eb","0x8awt1y35pa","1156","","1","","","","","","","","<div align=center>When there is a 99% probability that the jars will switch, the next bead will most likely be drawn from the…<br><br></div>","","","","","","","","","","",""
"instructions","12","25999","0.0-4.0-3.0","60520f7b38610f36b366a806","6359551218e5c682346227eb","0x8awt1y35pa","1062","","","","[{""page_index"":0,""viewing_time"":1062}]","","","","","","","","","","","","","","","","",""
"html-keyboard-response","13","27024","0.0-4.0-4.0-0.0","60520f7b38610f36b366a806","6359551218e5c682346227eb","0x8awt1y35pa","1024",""," ","","","","","","","","<div align=center>In this practice block, there will be a <b>10% chance</b> that the jar on the next trial will be different from the jar on the current trial.<br><br></div>","","","","","","","","","","",""
"image-keyboard-response","14","27357","0.0-4.0-4.0-1.0-0.0","60520f7b38610f36b366a806","6359551218e5c682346227eb","0x8awt1y35pa","329","","j","","","","","","","","./tasks/HMM-beads/Images/NoChoice.png","practice","0","1","1","0","2","false","","","",""
"image-keyboard-response","15","27673","0.0-4.0-4.0-1.0-1.0","60520f7b38610f36b366a806","6359551218e5c682346227eb","0x8awt1y35pa","null","","null","","","","","","","","./tasks/HMM-beads/Images/WhiteBeadChoice.png","","","","","","","","","","",""
"image-keyboard-response","16","28184","0.0-4.0-4.0-1.0-2.0","60520f7b38610f36b366a806","6359551218e5c682346227eb","0x8awt1y35pa","null","","null","","","","","","","","./tasks/HMM-beads/Images/WhiteBeadChoiceWrong.png","","","","","","","","","","",""
"image-keyboard-response","17","28207","0.0-4.0-4.0-1.0-0.1","60520f7b38610f36b366a806","6359551218e5c682346227eb","0x8awt1y35pa","18","","j","","","","","","","","./tasks/HMM-beads/Images/NewTrialBC.png","practice","1","1","1","1","2","false","","","",""
"image-keyboard-response","18","28513","0.0-4.0-4.0-1.0-1.1","60520f7b38610f36b366a806","6359551218e5c682346227eb","0x8awt1y35pa","null","","null","","","","","","","","./tasks/HMM-beads/Images/WhiteBeadChoice.png","","","","","","","","","","",""
"image-keyboard-response","19","29023","0.0-4.0-4.0-1.0-2.1","60520f7b38610f36b366a806","6359551218e5c682346227eb","0x8awt1y35pa","null","","null","","","","","","","","./tasks/HMM-beads/Images/WhiteBeadChoiceWrong.png","","","","","","","","","","",""
"image-keyboard-response","20","29138","0.0-4.0-4.0-1.0-0.2","60520f7b38610f36b366a806","6359551218e5c682346227eb","0x8awt1y35pa","114","","j","","","","","","","","./tasks/HMM-beads/Images/NewTrialBC.png","practice","2","1","2","1","2","true","","","",""
"image-keyboard-response","21","29447","0.0-4.0-4.0-1.0-1.2","60520f7b38610f36b366a806","6359551218e5c682346227eb","0x8awt1y35pa","null","","null","","","","","","","","./tasks/HMM-beads/Images/WhiteBeadChoice.png","","","","","","","","","","",""
"image-keyboard-response","22","29955","0.0-4.0-4.0-1.0-2.2","60520f7b38610f36b366a806","6359551218e5c682346227eb","0x8awt1y35pa","null","","null","","","","","","","","./tasks/HMM-beads/Images/WhiteBeadChoiceCorrect.png","","","","","","","","","","",""
"image-keyboard-response","23","30034","0.0-4.0-4.0-1.0-0.3","60520f7b38610f36b366a806","6359551218e5c682346227eb","0x8awt1y35pa","75","","j","","","","","","","","./tasks/HMM-beads/Images/NewTrialWC.png","practice","3","1","1","2","2","false","","","",""
"image-keyboard-response","24","30342","0.0-4.0-4.0-1.0-1.3","60520f7b38610f36b366a806","6359551218e5c682346227eb","0x8awt1y35pa","null","","null","","","","","","","","./tasks/HMM-beads/Images/WhiteBeadChoice.png","","","","","","","","","","",""
"image-keyboard-response","25","30854","0.0-4.0-4.0-1.0-2.3","60520f7b38610f36b366a806","6359551218e5c682346227eb","0x8awt1y35pa","null","","null","","","","","","","","./tasks/HMM-beads/Images/WhiteBeadChoiceWrong.png","","","","","","","","","","",""
"image-keyboard-response","26","30874","0.0-4.0-4.0-1.0-0.4","60520f7b38610f36b366a806","6359551218e5c682346227eb","0x8awt1y35pa","19","","j","","","","","","","","./tasks/HMM-beads/Images/NewTrialBC.png","practice","4","1","2","1","2","true","","","",""
"image-keyboard-response","27","31182","0.0-4.0-4.0-1.0-1.4","60520f7b38610f36b366a806","6359551218e5c682346227eb","0x8awt1y35pa","null","","null","","","","","","","","./tasks/HMM-beads/Images/WhiteBeadChoice.png","","","","","","","","","","",""
"image-keyboard-response","28","31695","0.0-4.0-4.0-1.0-2.4","60520f7b38610f36b366a806","6359551218e5c682346227eb","0x8awt1y35pa","null","","null","","","","","","","","./tasks/HMM-beads/Images/WhiteBeadChoiceCorrect.png","","","","","","","","","","",""
"html-keyboard-response","29","32896","0.0-4.0-4.0-2.0","60520f7b38610f36b366a806","6359551218e5c682346227eb","0x8awt1y35pa","1201",""," ","","","","","","","","","","","","","","","","","","",""
"instructions","30","33276","0.0-4.0-5.0","60520f7b38610f36b366a806","6359551218e5c682346227eb","0x8awt1y35pa","380","","","","[{""page_index"":0,""viewing_time"":230},{""page_index"":1,""viewing_time"":150}]","","","","","","","","","","","","","","","","",""
"html-keyboard-response","31","33968","0.0-4.0-6.0-0.0","60520f7b38610f36b366a806","6359551218e5c682346227eb","0x8awt1y35pa","691",""," ","","","","","","","","<div align=center>In this block, there will be a <b>1% chance</b> that the jar on the next trial will be different from the jar on the current trial.<br><br></div>","","","","","","","","","","",""
"image-keyboard-response","32","34172","0.0-4.0-6.0-1.0-0.0","60520f7b38610f36b366a806","6359551218e5c682346227eb","0x8awt1y35pa","202","","j","","","","","","","","./tasks/HMM-beads/Images/NoChoice.png","lowH","0","2","2","0","2","true","","","",""
"image-keyboard-response","33","34477","0.0-4.0-6.0-1.0-1.0","60520f7b38610f36b366a806","6359551218e5c682346227eb","0x8awt1y35pa","null","","null","","","","","","","","./tasks/HMM-beads/Images/WhiteBeadChoice.png","","","","","","","","","","",""
"image-keyboard-response","34","34992","0.0-4.0-6.0-1.0-2.0","60520f7b38610f36b366a806","6359551218e5c682346227eb","0x8awt1y35pa","null","","null","","","","","","","","./tasks/HMM-beads/Images/WhiteBeadChoiceCorrect.png","","","","","","","","","","",""
"image-keyboard-response","35","35141","0.0-4.0-6.0-1.0-0.1","60520f7b38610f36b366a806","6359551218e5c682346227eb","0x8awt1y35pa","148","","j","","","","","","","","./tasks/HMM-beads/Images/NewTrialWC.png","lowH","1","2","2","2","2","true","","","",""
"image-keyboard-response","36","35444","0.0-4.0-6.0-1.0-1.1","60520f7b38610f36b366a806","6359551218e5c682346227eb","0x8awt1y35pa","null","","null","","","","","","","","./tasks/HMM-beads/Images/WhiteBeadChoice.png","","","","","","","","","","",""
"image-keyboard-response","37","35953","0.0-4.0-6.0-1.0-2.1","60520f7b38610f36b366a806","6359551218e5c682346227eb","0x8awt1y35pa","null","","null","","","","","","","","./tasks/HMM-beads/Images/WhiteBeadChoiceCorrect.png","","","","","","","","","","",""
"image-keyboard-response","38","36070","0.0-4.0-6.0-1.0-0.2","60520f7b38610f36b366a806","6359551218e5c682346227eb","0x8awt1y35pa","115","","j","","","","","","","","./tasks/HMM-beads/Images/NewTrialWC.png","lowH","2","2","2","2","2","true","","","",""
"image-keyboard-response","39","36385","0.0-4.0-6.0-1.0-1.2","60520f7b38610f36b366a806","6359551218e5c682346227eb","0x8awt1y35pa","null","","null","","","","","","","","./tasks/HMM-beads/Images/WhiteBeadChoice.png","","","","","","","","","","",""
"image-keyboard-response","40","36901","0.0-4.0-6.0-1.0-2.2","60520f7b38610f36b366a806","6359551218e5c682346227eb","0x8awt1y35pa","null","","null","","","","","","","","./tasks/HMM-beads/Images/WhiteBeadChoiceCorrect.png","","","","","","","","","","",""
"image-keyboard-response","41","36915","0.0-4.0-6.0-1.0-0.3","60520f7b38610f36b366a806","6359551218e5c682346227eb","0x8awt1y35pa","13","","j","","","","","","","","./tasks/HMM-beads/Images/NewTrialWC.png","lowH","3","2","2","2","2","true","","","",""
"image-keyboard-response","42","37223","0.0-4.0-6.0-1.0-1.3","60520f7b38610f36b366a806","6359551218e5c682346227eb","0x8awt1y35pa","null","","null","","","","","","","","./tasks/HMM-beads/Images/WhiteBeadChoice.png","","","","","","","","","","",""
"image-keyboard-response","43","37736","0.0-4.0-6.0-1.0-2.3","60520f7b38610f36b366a806","6359551218e5c682346227eb","0x8awt1y35pa","null","","null","","","","","","","","./tasks/HMM-beads/Images/WhiteBeadChoiceCorrect.png","","","","","","","","","","",""
"image-keyboard-response","44","37895","0.0-4.0-6.0-1.0-0.4","60520f7b38610f36b366a806","6359551218e5c682346227eb","0x8awt1y35pa","158","","j","","","","","","","","./tasks/HMM-beads/Images/NewTrialWC.png","lowH","4","2","1","2","2","false","","","",""
"image-keyboard-response","45","38200","0.0-4.0-6.0-1.0-1.4","60520f7b38610f36b366a806","6359551218e5c682346227eb","0x8awt1y35pa","null","","null","","","","","","","","./tasks/HMM-beads/Images/WhiteBeadChoice.png","","","","","","","","","","",""
"image-keyboard-response","46","38711","0.0-4.0-6.0-1.0-2.4","60520f7b38610f36b366a806","6359551218e5c682346227eb","0x8awt1y35pa","null","","null","","","","","","","","./tasks/HMM-beads/Images/WhiteBeadChoiceWrong.png","","","","","","","","","","",""
"image-keyboard-response","47","38888","0.0-4.0-6.0-1.0-0.5","60520f7b38610f36b366a806","6359551218e5c682346227eb","0x8awt1y35pa","175","","j","","","","","","","","./tasks/HMM-beads/Images/NewTrialBC.png","lowH","5","2","2","1","2","true","","","",""
"image-keyboard-response","48","39194","0.0-4.0-6.0-1.0-1.5","60520f7b38610f36b366a806","6359551218e5c682346227eb","0x8awt1y35pa","null","","null","","","","","","","","./tasks/HMM-beads/Images/WhiteBeadChoice.png","","","","","","","","","","",""
"image-keyboard-response","49","39703","0.0-4.0-6.0-1.0-2.5","60520f7b38610f36b366a806","6359551218e5c682346227eb","0x8awt1y35pa","null","","null","","","","","","","","./tasks/HMM-beads/Images/WhiteBeadChoiceCorrect.png","","","","","","","","","","",""
"image-keyboard-response","50","39818","0.0-4.0-6.0-1.0-0.6","60520f7b38610f36b366a806","6359551218e5c682346227eb","0x8awt1y35pa","113","","j","","","","","","","","./tasks/HMM-beads/Images/NewTrialWC.png","lowH","6","2","2","2","2","true","","","",""
"image-keyboard-response","51","40123","0.0-4.0-6.0-1.0-1.6","60520f7b38610f36b366a806","6359551218e5c682346227eb","0x8awt1y35pa","null","","null","","","","","","","","./tasks/HMM-beads/Images/WhiteBeadChoice.png","","","","","","","","","","",""
"image-keyboard-response","52","40633","0.0-4.0-6.0-1.0-2.6","60520f7b38610f36b366a806","6359551218e5c682346227eb","0x8awt1y35pa","null","","null","","","","","","","","./tasks/HMM-beads/Images/WhiteBeadChoiceCorrect.png","","","","","","","","","","",""
"image-keyboard-response","53","40754","0.0-4.0-6.0-1.0-0.7","60520f7b38610f36b366a806","6359551218e5c682346227eb","0x8awt1y35pa","120","","j","","","","","","","","./tasks/HMM-beads/Images/NewTrialWC.png","lowH","7","2","2","2","2","true","","","",""
"image-keyboard-response","54","41066","0.0-4.0-6.0-1.0-1.7","60520f7b38610f36b366a806","6359551218e5c682346227eb","0x8awt1y35pa","null","","null","","","","","","","","./tasks/HMM-beads/Images/WhiteBeadChoice.png","","","","","","","","","","",""
"image-keyboard-response","55","41582","0.0-4.0-6.0-1.0-2.7","60520f7b38610f36b366a806","6359551218e5c682346227eb","0x8awt1y35pa","null","","null","","","","","","","","./tasks/HMM-beads/Images/WhiteBeadChoiceCorrect.png","","","","","","","","","","",""
"image-keyboard-response","56","41695","0.0-4.0-6.0-1.0-0.8","60520f7b38610f36b366a806","6359551218e5c682346227eb","0x8awt1y35pa","110","","j","","","","","","","","./tasks/HMM-beads/Images/NewTrialWC.png","lowH","8","2","2","2","2","true","","","",""
"image-keyboard-response","57","42000","0.0-4.0-6.0-1.0-1.8","60520f7b38610f36b366a806","6359551218e5c682346227eb","0x8awt1y35pa","null","","null","","","","","","","","./tasks/HMM-beads/Images/WhiteBeadChoice.png","","","","","","","","","","",""
"image-keyboard-response","58","42512","0.0-4.0-6.0-1.0-2.8","60520f7b38610f36b366a806","6359551218e5c682346227eb","0x8awt1y35pa","null","","null","","","","","","","","./tasks/HMM-beads/Images/WhiteBeadChoiceCorrect.png","","","","","","","","","","",""
"image-keyboard-response","59","42649","0.0-4.0-6.0-1.0-0.9","60520f7b38610f36b366a806","6359551218e5c682346227eb","0x8awt1y35pa","135","","j","","","","","","","","./tasks/HMM-beads/Images/NewTrialWC.png","lowH","9","2","2","2","2","true","","","",""
"image-keyboard-response","60","42962","0.0-4.0-6.0-1.0-1.9","60520f7b38610f36b366a806","6359551218e5c682346227eb","0x8awt1y35pa","null","","null","","","","","","","","./tasks/HMM-beads/Images/WhiteBeadChoice.png","","","","","","","","","","",""
"image-keyboard-response","61","43475","0.0-4.0-6.0-1.0-2.9","60520f7b38610f36b366a806","6359551218e5c682346227eb","0x8awt1y35pa","null","","null","","","","","","","","./tasks/HMM-beads/Images/WhiteBeadChoiceCorrect.png","","","","","","","","","","",""
"image-keyboard-response","62","43622","0.0-4.0-6.0-1.0-0.10","60520f7b38610f36b366a806","6359551218e5c682346227eb","0x8awt1y35pa","146","","j","","","","","","","","./tasks/HMM-beads/Images/NewTrialWC.png","lowH","10","2","2","2","2","true","","","",""
"image-keyboard-response","63","43925","0.0-4.0-6.0-1.0-1.10","60520f7b38610f36b366a806","6359551218e5c682346227eb","0x8awt1y35pa","null","","null","","","","","","","","./tasks/HMM-beads/Images/WhiteBeadChoice.png","","","","","","","","","","",""
"image-keyboard-response","64","44433","0.0-4.0-6.0-1.0-2.10","60520f7b38610f36b366a806","6359551218e5c682346227eb","0x8awt1y35pa","null","","null","","","","","","","","./tasks/HMM-beads/Images/WhiteBeadChoiceCorrect.png","","","","","","","","","","",""
"image-keyboard-response","65","44614","0.0-4.0-6.0-1.0-0.11","60520f7b38610f36b366a806","6359551218e5c682346227eb","0x8awt1y35pa","179","","j","","","","","","","","./tasks/HMM-beads/Images/NewTrialWC.png","lowH","11","2","2","2","2","true","","","",""
"image-keyboard-response","66","44930","0.0-4.0-6.0-1.0-1.11","60520f7b38610f36b366a806","6359551218e5c682346227eb","0x8awt1y35pa","null","","null","","","","","","","","./tasks/HMM-beads/Images/WhiteBeadChoice.png","","","","","","","","","","",""
"image-keyboard-response","67","45440","0.0-4.0-6.0-1.0-2.11","60520f7b38610f36b366a806","6359551218e5c682346227eb","0x8awt1y35pa","null","","null","","","","","","","","./tasks/HMM-beads/Images/WhiteBeadChoiceCorrect.png","","","","","","","","","","",""
"html-keyboard-response","68","46448","0.0-4.0-6.0-2.0","60520f7b38610f36b366a806","6359551218e5c682346227eb","0x8awt1y35pa","1007",""," ","","","","","","","","","","","","","","","","11","","",""
"instructions","69","47342","0.0-4.0-7.0","60520f7b38610f36b366a806","6359551218e5c682346227eb","0x8awt1y35pa","894","","","","[{""page_index"":0,""viewing_time"":260},{""page_index"":1,""viewing_time"":465},{""page_index"":2,""viewing_time"":169}]","","","","","","","","","","","","","","","","",""
"html-keyboard-response","70","47934","0.0-4.0-8.0-0.0","60520f7b38610f36b366a806","6359551218e5c682346227eb","0x8awt1y35pa","591",""," ","","","","","","","","<div align=center>In this block, there will be a <b>99%</b> chance that the jar on the next trial will be different from the jar on the current trial.<br><br></div>","","","","","","","","","","",""
"image-keyboard-response","71","48401","0.0-4.0-8.0-1.0-0.0","60520f7b38610f36b366a806","6359551218e5c682346227eb","0x8awt1y35pa","465","","j","","","","","","","","./tasks/HMM-beads/Images/NoChoice.png","highH","0","1","1","0","2","false","","","",""
"image-keyboard-response","72","48716","0.0-4.0-8.0-1.0-1.0","60520f7b38610f36b366a806","6359551218e5c682346227eb","0x8awt1y35pa","null","","null","","","","","","","","./tasks/HMM-beads/Images/WhiteBeadChoice.png","","","","","","","","","","",""
"image-keyboard-response","73","49229","0.0-4.0-8.0-1.0-2.0","60520f7b38610f36b366a806","6359551218e5c682346227eb","0x8awt1y35pa","null","","null","","","","","","","","./tasks/HMM-beads/Images/WhiteBeadChoiceWrong.png","","","","","","","","","","",""
"image-keyboard-response","74","49407","0.0-4.0-8.0-1.0-0.1","60520f7b38610f36b366a806","6359551218e5c682346227eb","0x8awt1y35pa","177","","j","","","","","","","","./tasks/HMM-beads/Images/NewTrialBC.png","highH","1","2","1","1","2","false","","","",""
"image-keyboard-response","75","49723","0.0-4.0-8.0-1.0-1.1","60520f7b38610f36b366a806","6359551218e5c682346227eb","0x8awt1y35pa","null","","null","","","","","","","","./tasks/HMM-beads/Images/WhiteBeadChoice.png","","","","","","","","","","",""
"image-keyboard-response","76","50238","0.0-4.0-8.0-1.0-2.1","60520f7b38610f36b366a806","6359551218e5c682346227eb","0x8awt1y35pa","null","","null","","","","","","","","./tasks/HMM-beads/Images/WhiteBeadChoiceWrong.png","","","","","","","","","","",""
"image-keyboard-response","77","50384","0.0-4.0-8.0-1.0-0.2","60520f7b38610f36b366a806","6359551218e5c682346227eb","0x8awt1y35pa","144","","j","","","","","","","","./tasks/HMM-beads/Images/NewTrialBC.png","highH","2","1","1","1","2","false","","","",""
"image-keyboard-response","78","50689","0.0-4.0-8.0-1.0-1.2","60520f7b38610f36b366a806","6359551218e5c682346227eb","0x8awt1y35pa","null","","null","","","","","","","","./tasks/HMM-beads/Images/WhiteBeadChoice.png","","","","","","","","","","",""
"image-keyboard-response","79","51204","0.0-4.0-8.0-1.0-2.2","60520f7b38610f36b366a806","6359551218e5c682346227eb","0x8awt1y35pa","null","","null","","","","","","","","./tasks/HMM-beads/Images/WhiteBeadChoiceWrong.png","","","","","","","","","","",""
"image-keyboard-response","80","51393","0.0-4.0-8.0-1.0-0.3","60520f7b38610f36b366a806","6359551218e5c682346227eb","0x8awt1y35pa","188","","j","","","","","","","","./tasks/HMM-beads/Images/NewTrialBC.png","highH","3","2","2","1","2","true","","","",""
"image-keyboard-response","81","51702","0.0-4.0-8.0-1.0-1.3","60520f7b38610f36b366a806","6359551218e5c682346227eb","0x8awt1y35pa","null","","null","","","","","","","","./tasks/HMM-beads/Images/WhiteBeadChoice.png","","","","","","","","","","",""
"image-keyboard-response","82","52208","0.0-4.0-8.0-1.0-2.3","60520f7b38610f36b366a806","6359551218e5c682346227eb","0x8awt1y35pa","null","","null","","","","","","","","./tasks/HMM-beads/Images/WhiteBeadChoiceCorrect.png","","","","","","","","","","",""
"image-keyboard-response","83","52240","0.0-4.0-8.0-1.0-0.4","60520f7b38610f36b366a806","6359551218e5c682346227eb","0x8awt1y35pa","27","","j","","","","","","","","./tasks/HMM-beads/Images/NewTrialWC.png","highH","4","1","1","2","2","false","","","",""
"image-keyboard-response","84","52551","0.0-4.0-8.0-1.0-1.4","60520f7b38610f36b366a806","6359551218e5c682346227eb","0x8awt1y35pa","null","","null","","","","","","","","./tasks/HMM-beads/Images/WhiteBeadChoice.png","","","","","","","","","","",""
"image-keyboard-response","85","53064","0.0-4.0-8.0-1.0-2.4","60520f7b38610f36b366a806","6359551218e5c682346227eb","0x8awt1y35pa","null","","null","","","","","","","","./tasks/HMM-beads/Images/WhiteBeadChoiceWrong.png","","","","","","","","","","",""
"image-keyboard-response","86","53239","0.0-4.0-8.0-1.0-0.5","60520f7b38610f36b366a806","6359551218e5c682346227eb","0x8awt1y35pa","174","","j","","","","","","","","./tasks/HMM-beads/Images/NewTrialBC.png","highH","5","2","2","1","2","true","","","",""
"image-keyboard-response","87","53546","0.0-4.0-8.0-1.0-1.5","60520f7b38610f36b366a806","6359551218e5c682346227eb","0x8awt1y35pa","null","","null","","","","","","","","./tasks/HMM-beads/Images/WhiteBeadChoice.png","","","","","","","","","","",""
"image-keyboard-response","88","54058","0.0-4.0-8.0-1.0-2.5","60520f7b38610f36b366a806","6359551218e5c682346227eb","0x8awt1y35pa","null","","null","","","","","","","","./tasks/HMM-beads/Images/WhiteBeadChoiceCorrect.png","","","","","","","","","","",""
"image-keyboard-response","89","54068","0.0-4.0-8.0-1.0-0.6","60520f7b38610f36b366a806","6359551218e5c682346227eb","0x8awt1y35pa","9","","j","","","","","","","","./tasks/HMM-beads/Images/NewTrialWC.png","highH","6","1","1","2","2","false","","","",""
"image-keyboard-response","90","54383","0.0-4.0-8.0-1.0-1.6","60520f7b38610f36b366a806","6359551218e5c682346227eb","0x8awt1y35pa","null","","null","","","","","","","","./tasks/HMM-beads/Images/WhiteBeadChoice.png","","","","","","","","","","",""
"image-keyboard-response","91","54896","0.0-4.0-8.0-1.0-2.6","60520f7b38610f36b366a806","6359551218e5c682346227eb","0x8awt1y35pa","null","","null","","","","","","","","./tasks/HMM-beads/Images/WhiteBeadChoiceWrong.png","","","","","","","","","","",""
"image-keyboard-response","92","54920","0.0-4.0-8.0-1.0-0.7","60520f7b38610f36b366a806","6359551218e5c682346227eb","0x8awt1y35pa","22","","j","","","","","","","","./tasks/HMM-beads/Images/NewTrialBC.png","highH","7","2","2","1","2","true","","","",""
"image-keyboard-response","93","55222","0.0-4.0-8.0-1.0-1.7","60520f7b38610f36b366a806","6359551218e5c682346227eb","0x8awt1y35pa","null","","null","","","","","","","","./tasks/HMM-beads/Images/WhiteBeadChoice.png","","","","","","","","","","",""
"image-keyboard-response","94","55734","0.0-4.0-8.0-1.0-2.7","60520f7b38610f36b366a806","6359551218e5c682346227eb","0x8awt1y35pa","null","","null","","","","","","","","./tasks/HMM-beads/Images/WhiteBeadChoiceCorrect.png","","","","","","","","","","",""
"image-keyboard-response","95","55785","0.0-4.0-8.0-1.0-0.8","60520f7b38610f36b366a806","6359551218e5c682346227eb","0x8awt1y35pa","49","","j","","","","","","","","./tasks/HMM-beads/Images/NewTrialWC.png","highH","8","1","1","2","2","false","","","",""
"image-keyboard-response","96","56095","0.0-4.0-8.0-1.0-1.8","60520f7b38610f36b366a806","6359551218e5c682346227eb","0x8awt1y35pa","null","","null","","","","","","","","./tasks/HMM-beads/Images/WhiteBeadChoice.png","","","","","","","","","","",""
"image-keyboard-response","97","56607","0.0-4.0-8.0-1.0-2.8","60520f7b38610f36b366a806","6359551218e5c682346227eb","0x8awt1y35pa","null","","null","","","","","","","","./tasks/HMM-beads/Images/WhiteBeadChoiceWrong.png","","","","","","","","","","",""
"image-keyboard-response","98","56681","0.0-4.0-8.0-1.0-0.9","60520f7b38610f36b366a806","6359551218e5c682346227eb","0x8awt1y35pa","70","","j","","","","","","","","./tasks/HMM-beads/Images/NewTrialBC.png","highH","9","2","2","1","2","true","","","",""
"image-keyboard-response","99","56996","0.0-4.0-8.0-1.0-1.9","60520f7b38610f36b366a806","6359551218e5c682346227eb","0x8awt1y35pa","null","","null","","","","","","","","./tasks/HMM-beads/Images/WhiteBeadChoice.png","","","","","","","","","","",""
"image-keyboard-response","100","57507","0.0-4.0-8.0-1.0-2.9","60520f7b38610f36b366a806","6359551218e5c682346227eb","0x8awt1y35pa","null","","null","","","","","","","","./tasks/HMM-beads/Images/WhiteBeadChoiceCorrect.png","","","","","","","","","","",""
"image-keyboard-response","101","57618","0.0-4.0-8.0-1.0-0.10","60520f7b38610f36b366a806","6359551218e5c682346227eb","0x8awt1y35pa","111","","j","","","","","","","","./tasks/HMM-beads/Images/NewTrialWC.png","highH","10","1","1","2","2","false","","","",""
"image-keyboard-response","102","57927","0.0-4.0-8.0-1.0-1.10","60520f7b38610f36b366a806","6359551218e5c682346227eb","0x8awt1y35pa","null","","null","","","","","","","","./tasks/HMM-beads/Images/WhiteBeadChoice.png","","","","","","","","","","",""
"image-keyboard-response","103","58442","0.0-4.0-8.0-1.0-2.10","60520f7b38610f36b366a806","6359551218e5c682346227eb","0x8awt1y35pa","null","","null","","","","","","","","./tasks/HMM-beads/Images/WhiteBeadChoiceWrong.png","","","","","","","","","","",""
"image-keyboard-response","104","58527","0.0-4.0-8.0-1.0-0.11","60520f7b38610f36b366a806","6359551218e5c682346227eb","0x8awt1y35pa","84","","j","","","","","","","","./tasks/HMM-beads/Images/NewTrialBC.png","highH","11","2","1","1","2","false","","","",""
"image-keyboard-response","105","58830","0.0-4.0-8.0-1.0-1.11","60520f7b38610f36b366a806","6359551218e5c682346227eb","0x8awt1y35pa","null","","null","","","","","","","","./tasks/HMM-beads/Images/WhiteBeadChoice.png","","","","","","","","","","",""
"image-keyboard-response","106","59342","0.0-4.0-8.0-1.0-2.11","60520f7b38610f36b366a806","6359551218e5c682346227eb","0x8awt1y35pa","null","","null","","","","","","","","./tasks/HMM-beads/Images/WhiteBeadChoiceWrong.png","","","","","","","","","","",""
"html-keyboard-response","107","60174","0.0-4.0-8.0-2.0","60520f7b38610f36b366a806","6359551218e5c682346227eb","0x8awt1y35pa","831",""," ","","","","","","","","","","","","","","","","","4","",""
"instructions","108","62200","0.0-4.0-9.0","60520f7b38610f36b366a806","6359551218e5c682346227eb","0x8awt1y35pa","2025","","","","[{""page_index"":0,""viewing_time"":2025}]","","","","","","","","","","","","","","","","",""
"instructions","109","62787","0.0-5.0","60520f7b38610f36b366a806","6359551218e5c682346227eb","0x8awt1y35pa","586","","","","[{""page_index"":0,""viewing_time"":448},{""page_index"":1,""viewing_time"":138}]","","","","","","","","","","","","","","","","",""
"instructions","110","62940","0.0-6.0","60520f7b38610f36b366a806","6359551218e5c682346227eb","0x8awt1y35pa","151","","","","[{""page_index"":0,""viewing_time"":151}]","","","","","","","","","","","","","","","","",""
"preload","111","63030","0.0-7.0-0.0","60520f7b38610f36b366a806","6359551218e5c682346227eb","0x8awt1y35pa","","","","","","true","false","[]","[]","[]","","","","","","","","","","","",""
"instructions","112","64038","0.0-7.0-1.0","60520f7b38610f36b366a806","6359551218e5c682346227eb","0x8awt1y35pa","1007","","","","[{""page_index"":0,""viewing_time"":85},{""page_index"":1,""viewing_time"":535},{""page_index"":2,""viewing_time"":119},{""page_index"":3,""viewing_time"":129},{""page_index"":4,""viewing_time"":139}]","","","","","","","","","","","","","","","","",""
"html-keyboard-response","113","64201","0.0-7.0-2.0-0.0","60520f7b38610f36b366a806","6359551218e5c682346227eb","0x8awt1y35pa","161","","j","","","","","","","","<div style=""background-image: url('./tasks/two-arm-new/img/green_planet.png')""><div id=""jspsych-space-daw-top-stim-left"" ></div><div id=""jspsych-space-daw-top-stim-middle"" ></div><div id=""jspsych-space-daw-top-stim-right"" ></div><div style=""clear:both""></div><div id=""jspsych-space-daw-bottom-stim-left"" style=""background-image: url('./tasks/two-arm-new/img/green_stim_2_deact.png')""></div><div id=""jspsych-space-daw-bottom-stim-middle"" ></div><div id=""jspsych-space-daw-bottom-stim-right"" style=""background-image: url('./tasks/two-arm-new/img/green_stim_1.png')""></div></div>","good_alien_practice","0","","","","1","","","","green","1"
"html-keyboard-response","114","64715","0.0-7.0-2.0-1.0","60520f7b38610f36b366a806","6359551218e5c682346227eb","0x8awt1y35pa","null","","null","","","","","","","","<div style=""background-image: url('./tasks/two-arm-new/img/green_planet.png')""><div id=""jspsych-space-daw-top-stim-left"" ></div><div id=""jspsych-space-daw-top-stim-middle"" ></div><div id=""jspsych-space-daw-top-stim-right"" ></div><div style=""clear:both""></div><div id=""jspsych-space-daw-bottom-stim-left"" style=""background-image: url('./tasks/two-arm-new/img/green_stim_2_deact.png')""></div><div id=""jspsych-space-daw-bottom-stim-middle"" ></div><div id=""jspsych-space-daw-bottom-stim-right"" class=""jspsych-space-daw-bottom-stim-border"" style=""background-image: url('./tasks/two-arm-new/img/green_stim_1.png')""></div></div>","","","","","","","","","","",""
"html-keyboard-response","115","65726","0.0-7.0-2.0-2.0","60520f7b38610f36b366a806","6359551218e5c682346227eb","0x8awt1y35pa","null","","null","","","","","","","","<div style=""background-image: url('./tasks/two-arm-new/img/green_planet.png')""><div id=""jspsych-space-daw-top-stim-left"" ></div><div id=""jspsych-space-daw-top-stim-middle"" ></div><div id=""jspsych-space-daw-top-stim-right"" style=""background-image: url('./tasks/two-arm-new/img/treasure.png')""></div><div style=""clear:both""></div><div id=""jspsych-space-daw-bottom-stim-left"" style=""background-image: url('./tasks/two-arm-new/img/green_stim_2_deact.png')""></div><div id=""jspsych-space-daw-bottom-stim-middle"" ></div><div id=""jspsych-space-daw-bottom-stim-right"" class=""jspsych-space-daw-bottom-stim-border"" style=""background-image: url('./tasks/two-arm-new/img/green_stim_1.png')""></div></div>","","","","","","","","","","",""
"html-keyboard-response","116","65987","0.0-7.0-2.0-0.1","60520f7b38610f36b366a806","6359551218e5c682346227eb","0x8awt1y35pa","260","","j","","","","","","","","<div style=""background-image: url('./tasks/two-arm-new/img/green_planet.png')""><div id=""jspsych-space-daw-top-stim-left"" ></div><div id=""jspsych-space-daw-top-stim-middle"" ></div><div id=""jspsych-space-daw-top-stim-right"" ></div><div style=""clear:both""></div><div id=""jspsych-space-daw-bottom-stim-left"" style=""background-image: url('./tasks/two-arm-new/img/green_stim_2_deact.png')""></div><div id=""jspsych-space-daw-bottom-stim-middle"" ></div><div id=""jspsych-space-daw-bottom-stim-right"" style=""background-image: url('./tasks/two-arm-new/img/green_stim_1.png')""></div></div>","good_alien_practice","1","","","","1","","","","green","1"
"html-keyboard-response","117","66490","0.0-7.0-2.0-1.1","60520f7b38610f36b366a806","6359551218e5c682346227eb","0x8awt1y35pa","null","","null","","","","","","","","<div style=""background-image: url('./tasks/two-arm-new/img/green_planet.png')""><div id=""jspsych-space-daw-top-stim-left"" ></div><div id=""jspsych-space-daw-top-stim-middle"" ></div><div id=""jspsych-space-daw-top-stim-right"" ></div><div style=""clear:both""></div><div id=""jspsych-space-daw-bottom-stim-left"" style=""background-image: url('./tasks/two-arm-new/img/green_stim_2_deact.png')""></div><div id=""jspsych-space-daw-bottom-stim-middle"" ></div><div id=""jspsych-space-daw-bottom-stim-right"" class=""jspsych-space-daw-bottom-stim-border"" style=""background-image: url('./tasks/two-arm-new/img/green_stim_1.png')""></div></div>","","","","","","","","","","",""
"html-keyboard-response","118","67499","0.0-7.0-2.0-2.1","60520f7b38610f36b366a806","6359551218e5c682346227eb","0x8awt1y35pa","null","","null","","","","","","","","<div style=""background-image: url('./tasks/two-arm-new/img/green_planet.png')""><div id=""jspsych-space-daw-top-stim-left"" ></div><div id=""jspsych-space-daw-top-stim-middle"" ></div><div id=""jspsych-space-daw-top-stim-right"" style=""background-image: url('./tasks/two-arm-new/img/treasure.png')""></div><div style=""clear:both""></div><div id=""jspsych-space-daw-bottom-stim-left"" style=""background-image: url('./tasks/two-arm-new/img/green_stim_2_deact.png')""></div><div id=""jspsych-space-daw-bottom-stim-middle"" ></div><div id=""jspsych-space-daw-bottom-stim-right"" class=""jspsych-space-daw-bottom-stim-border"" style=""background-image: url('./tasks/two-arm-new/img/green_stim_1.png')""></div></div>","","","","","","","","","","",""
"html-keyboard-response","119","68649","0.0-7.0-2.0-0.2","60520f7b38610f36b366a806","6359551218e5c682346227eb","0x8awt1y35pa","1149","","f","","","","","","","","<div style=""background-image: url('./tasks/two-arm-new/img/green_planet.png')""><div id=""jspsych-space-daw-top-stim-left"" ></div><div id=""jspsych-space-daw-top-stim-middle"" ></div><div id=""jspsych-space-daw-top-stim-right"" ></div><div style=""clear:both""></div><div id=""jspsych-space-daw-bottom-stim-left"" style=""background-image: url('./tasks/two-arm-new/img/green_stim_1.png')""></div><div id=""jspsych-space-daw-bottom-stim-middle"" ></div><div id=""jspsych-space-daw-bottom-stim-right"" style=""background-image: url('./tasks/two-arm-new/img/green_stim_2_deact.png')""></div></div>","good_alien_practice","2","","","","1","","","","green","1"
"html-keyboard-response","120","69165","0.0-7.0-2.0-1.2","60520f7b38610f36b366a806","6359551218e5c682346227eb","0x8awt1y35pa","null","","null","","","","","","","","<div style=""background-image: url('./tasks/two-arm-new/img/green_planet.png')""><div id=""jspsych-space-daw-top-stim-left"" ></div><div id=""jspsych-space-daw-top-stim-middle"" ></div><div id=""jspsych-space-daw-top-stim-right"" ></div><div style=""clear:both""></div><div id=""jspsych-space-daw-bottom-stim-left"" class=""jspsych-space-daw-bottom-stim-border"" style=""background-image: url('./tasks/two-arm-new/img/green_stim_1.png')""></div><div id=""jspsych-space-daw-bottom-stim-middle"" ></div><div id=""jspsych-space-daw-bottom-stim-right"" style=""background-image: url('./tasks/two-arm-new/img/green_stim_2_deact.png')""></div></div>","","","","","","","","","","",""
"html-keyboard-response","121","70174","0.0-7.0-2.0-2.2","60520f7b38610f36b366a806","6359551218e5c682346227eb","0x8awt1y35pa","null","","null","","","","","","","","<div style=""background-image: url('./tasks/two-arm-new/img/green_planet.png')""><div id=""jspsych-space-daw-top-stim-left"" style=""background-image: url('./tasks/two-arm-new/img/treasure.png')""></div><div id=""jspsych-space-daw-top-stim-middle"" ></div><div id=""jspsych-space-daw-top-stim-right"" ></div><div style=""clear:both""></div><div id=""jspsych-space-daw-bottom-stim-left"" class=""jspsych-space-daw-bottom-stim-border"" style=""background-image: url('./tasks/two-arm-new/img/green_stim_1.png')""></div><div id=""jspsych-space-daw-bottom-stim-middle"" ></div><div id=""jspsych-space-daw-bottom-stim-right"" style=""background-image: url('./tasks/two-arm-new/img/green_stim_2_deact.png')""></div></div>","","","","","","","","","","",""
"html-keyboard-response","122","88585","0.0-7.0-2.0-0.3","60520f7b38610f36b366a806","6359551218e5c682346227eb","0x8awt1y35pa","18410","","j","","","","","","","","<div style=""background-image: url('./tasks/two-arm-new/img/green_planet.png')""><div id=""jspsych-space-daw-top-stim-left"" ></div><div id=""jspsych-space-daw-top-stim-middle"" ></div><div id=""jspsych-space-daw-top-stim-right"" ></div><div style=""clear:both""></div><div id=""jspsych-space-daw-bottom-stim-left"" style=""background-image: url('./tasks/two-arm-new/img/green_stim_2_deact.png')""></div><div id=""jspsych-space-daw-bottom-stim-middle"" ></div><div id=""jspsych-space-daw-bottom-stim-right"" style=""background-image: url('./tasks/two-arm-new/img/green_stim_1.png')""></div></div>","good_alien_practice","3","","","","1","","","","green","0"
"html-keyboard-response","123","89090","0.0-7.0-2.0-1.3","60520f7b38610f36b366a806","6359551218e5c682346227eb","0x8awt1y35pa","null","","null","","","","","","","","<div style=""background-image: url('./tasks/two-arm-new/img/green_planet.png')""><div id=""jspsych-space-daw-top-stim-left"" ></div><div id=""jspsych-space-daw-top-stim-middle"" ></div><div id=""jspsych-space-daw-top-stim-right"" ></div><div style=""clear:both""></div><div id=""jspsych-space-daw-bottom-stim-left"" style=""background-image: url('./tasks/two-arm-new/img/green_stim_2_deact.png')""></div><div id=""jspsych-space-daw-bottom-stim-middle"" ></div><div id=""jspsych-space-daw-bottom-stim-right"" class=""jspsych-space-daw-bottom-stim-border"" style=""background-image: url('./tasks/two-arm-new/img/green_stim_1.png')""></div></div>","","","","","","","","","","",""
"html-keyboard-response","124","90096","0.0-7.0-2.0-2.3","60520f7b38610f36b366a806","6359551218e5c682346227eb","0x8awt1y35pa","null","","null","","","","","","","","<div style=""background-image: url('./tasks/two-arm-new/img/green_planet.png')""><div id=""jspsych-space-daw-top-stim-left"" ></div><div id=""jspsych-space-daw-top-stim-middle"" ></div><div id=""jspsych-space-daw-top-stim-right"" style=""background-image: url('./tasks/two-arm-new/img/noreward.png')""></div><div style=""clear:both""></div><div id=""jspsych-space-daw-bottom-stim-left"" style=""background-image: url('./tasks/two-arm-new/img/green_stim_2_deact.png')""></div><div id=""jspsych-space-daw-bottom-stim-middle"" ></div><div id=""jspsych-space-daw-bottom-stim-right"" class=""jspsych-space-daw-bottom-stim-border"" style=""background-image: url('./tasks/two-arm-new/img/green_stim_1_sad.png')""></div></div>","","","","","","","","","","",""
"html-keyboard-response","125","90506","0.0-7.0-2.0-0.4","60520f7b38610f36b366a806","6359551218e5c682346227eb","0x8awt1y35pa","406","","f","","","","","","","","<div style=""background-image: url('./tasks/two-arm-new/img/green_planet.png')""><div id=""jspsych-space-daw-top-stim-left"" ></div><div id=""jspsych-space-daw-top-stim-middle"" ></div><div id=""jspsych-space-daw-top-stim-right"" ></div><div style=""clear:both""></div><div id=""jspsych-space-daw-bottom-stim-left"" style=""background-image: url('./tasks/two-arm-new/img/green_stim_1.png')""></div><div id=""jspsych-space-daw-bottom-stim-middle"" ></div><div id=""jspsych-space-daw-bottom-stim-right"" style=""background-image: url('./tasks/two-arm-new/img/green_stim_2_deact.png')""></div></div>","good_alien_practice","4","","","","1","","","","green","1"
"html-keyboard-response","126","91013","0.0-7.0-2.0-1.4","60520f7b38610f36b366a806","6359551218e5c682346227eb","0x8awt1y35pa","null","","null","","","","","","","","<div style=""background-image: url('./tasks/two-arm-new/img/green_planet.png')""><div id=""jspsych-space-daw-top-stim-left"" ></div><div id=""jspsych-space-daw-top-stim-middle"" ></div><div id=""jspsych-space-daw-top-stim-right"" ></div><div style=""clear:both""></div><div id=""jspsych-space-daw-bottom-stim-left"" class=""jspsych-space-daw-bottom-stim-border"" style=""background-image: url('./tasks/two-arm-new/img/green_stim_1.png')""></div><div id=""jspsych-space-daw-bottom-stim-middle"" ></div><div id=""jspsych-space-daw-bottom-stim-right"" style=""background-image: url('./tasks/two-arm-new/img/green_stim_2_deact.png')""></div></div>","","","","","","","","","","",""
"html-keyboard-response","127","92021","0.0-7.0-2.0-2.4","60520f7b38610f36b366a806","6359551218e5c682346227eb","0x8awt1y35pa","null","","null","","","","","","","","<div style=""background-image: url('./tasks/two-arm-new/img/green_planet.png')""><div id=""jspsych-space-daw-top-stim-left"" style=""background-image: url('./tasks/two-arm-new/img/treasure.png')""></div><div id=""jspsych-space-daw-top-stim-middle"" ></div><div id=""jspsych-space-daw-top-stim-right"" ></div><div style=""clear:both""></div><div id=""jspsych-space-daw-bottom-stim-left"" class=""jspsych-space-daw-bottom-stim-border"" style=""background-image: url('./tasks/two-arm-new/img/green_stim_1.png')""></div><div id=""jspsych-space-daw-bottom-stim-middle"" ></div><div id=""jspsych-space-daw-bottom-stim-right"" style=""background-image: url('./tasks/two-arm-new/img/green_stim_2_deact.png')""></div></div>","","","","","","","","","","",""
"instructions","128","94419","0.0-7.0-3.0","60520f7b38610f36b366a806","6359551218e5c682346227eb","0x8awt1y35pa","2397","","","","[{""page_index"":0,""viewing_time"":2397}]","","","","","","","","","","","","","","","","",""
"html-keyboard-response","129","95022","0.0-7.0-4.0-0.0","60520f7b38610f36b366a806","6359551218e5c682346227eb","0x8awt1y35pa","604","","f","","","","","","","","<div style=""background-image: url('./tasks/two-arm-new/img/yellow_planet.png')""><div id=""jspsych-space-daw-top-stim-left"" ></div><div id=""jspsych-space-daw-top-stim-middle"" ></div><div id=""jspsych-space-daw-top-stim-right"" ></div><div style=""clear:both""></div><div id=""jspsych-space-daw-bottom-stim-left"" style=""background-image: url('./tasks/two-arm-new/img/yellow_stim_1.png')""></div><div id=""jspsych-space-daw-bottom-stim-middle"" ></div><div id=""jspsych-space-daw-bottom-stim-right"" style=""background-image: url('./tasks/two-arm-new/img/yellow_stim_2_deact.png')""></div></div>","bad_alien_practice","0","","","","1","","","","yellow","0"
"html-keyboard-response","130","95534","0.0-7.0-4.0-1.0","60520f7b38610f36b366a806","6359551218e5c682346227eb","0x8awt1y35pa","null","","null","","","","","","","","<div style=""background-image: url('./tasks/two-arm-new/img/yellow_planet.png')""><div id=""jspsych-space-daw-top-stim-left"" ></div><div id=""jspsych-space-daw-top-stim-middle"" ></div><div id=""jspsych-space-daw-top-stim-right"" ></div><div style=""clear:both""></div><div id=""jspsych-space-daw-bottom-stim-left"" class=""jspsych-space-daw-bottom-stim-border"" style=""background-image: url('./tasks/two-arm-new/img/yellow_stim_1.png')""></div><div id=""jspsych-space-daw-bottom-stim-middle"" ></div><div id=""jspsych-space-daw-bottom-stim-right"" style=""background-image: url('./tasks/two-arm-new/img/yellow_stim_2_deact.png')""></div></div>","","","","","","","","","","",""
"html-keyboard-response","131","96543","0.0-7.0-4.0-2.0","60520f7b38610f36b366a806","6359551218e5c682346227eb","0x8awt1y35pa","null","","null","","","","","","","","<div style=""background-image: url('./tasks/two-arm-new/img/yellow_planet.png')""><div id=""jspsych-space-daw-top-stim-left"" style=""background-image: url('./tasks/two-arm-new/img/noreward.png')""></div><div id=""jspsych-space-daw-top-stim-middle"" ></div><div id=""jspsych-space-daw-top-stim-right"" ></div><div style=""clear:both""></div><div id=""jspsych-space-daw-bottom-stim-left"" class=""jspsych-space-daw-bottom-stim-border"" style=""background-image: url('./tasks/two-arm-new/img/yellow_stim_1_sad.png')""></div><div id=""jspsych-space-daw-bottom-stim-middle"" ></div><div id=""jspsych-space-daw-bottom-stim-right"" style=""background-image: url('./tasks/two-arm-new/img/yellow_stim_2_deact.png')""></div></div>","","","","","","","","","","",""
"html-keyboard-response","132","96812","0.0-7.0-4.0-0.1","60520f7b38610f36b366a806","6359551218e5c682346227eb","0x8awt1y35pa","267","","f","","","","","","","","<div style=""background-image: url('./tasks/two-arm-new/img/yellow_planet.png')""><div id=""jspsych-space-daw-top-stim-left"" ></div><div id=""jspsych-space-daw-top-stim-middle"" ></div><div id=""jspsych-space-daw-top-stim-right"" ></div><div style=""clear:both""></div><div id=""jspsych-space-daw-bottom-stim-left"" style=""background-image: url('./tasks/two-arm-new/img/yellow_stim_1.png')""></div><div id=""jspsych-space-daw-bottom-stim-middle"" ></div><div id=""jspsych-space-daw-bottom-stim-right"" style=""background-image: url('./tasks/two-arm-new/img/yellow_stim_2_deact.png')""></div></div>","bad_alien_practice","1","","","","1","","","","yellow","1"
"html-keyboard-response","133","97322","0.0-7.0-4.0-1.1","60520f7b38610f36b366a806","6359551218e5c682346227eb","0x8awt1y35pa","null","","null","","","","","","","","<div style=""background-image: url('./tasks/two-arm-new/img/yellow_planet.png')""><div id=""jspsych-space-daw-top-stim-left"" ></div><div id=""jspsych-space-daw-top-stim-middle"" ></div><div id=""jspsych-space-daw-top-stim-right"" ></div><div style=""clear:both""></div><div id=""jspsych-space-daw-bottom-stim-left"" class=""jspsych-space-daw-bottom-stim-border"" style=""background-image: url('./tasks/two-arm-new/img/yellow_stim_1.png')""></div><div id=""jspsych-space-daw-bottom-stim-middle"" ></div><div id=""jspsych-space-daw-bottom-stim-right"" style=""background-image: url('./tasks/two-arm-new/img/yellow_stim_2_deact.png')""></div></div>","","","","","","","","","","",""
"html-keyboard-response","134","98332","0.0-7.0-4.0-2.1","60520f7b38610f36b366a806","6359551218e5c682346227eb","0x8awt1y35pa","null","","null","","","","","","","","<div style=""background-image: url('./tasks/two-arm-new/img/yellow_planet.png')""><div id=""jspsych-space-daw-top-stim-left"" style=""background-image: url('./tasks/two-arm-new/img/treasure.png')""></div><div id=""jspsych-space-daw-top-stim-middle"" ></div><div id=""jspsych-space-daw-top-stim-right"" ></div><div style=""clear:both""></div><div id=""jspsych-space-daw-bottom-stim-left"" class=""jspsych-space-daw-bottom-stim-border"" style=""background-image: url('./tasks/two-arm-new/img/yellow_stim_1.png')""></div><div id=""jspsych-space-daw-bottom-stim-middle"" ></div><div id=""jspsych-space-daw-bottom-stim-right"" style=""background-image: url('./tasks/two-arm-new/img/yellow_stim_2_deact.png')""></div></div>","","","","","","","","","","",""
"html-keyboard-response","135","98382","0.0-7.0-4.0-0.2","60520f7b38610f36b366a806","6359551218e5c682346227eb","0x8awt1y35pa","50","","f","","","","","","","","<div style=""background-image: url('./tasks/two-arm-new/img/yellow_planet.png')""><div id=""jspsych-space-daw-top-stim-left"" ></div><div id=""jspsych-space-daw-top-stim-middle"" ></div><div id=""jspsych-space-daw-top-stim-right"" ></div><div style=""clear:both""></div><div id=""jspsych-space-daw-bottom-stim-left"" style=""background-image: url('./tasks/two-arm-new/img/yellow_stim_1.png')""></div><div id=""jspsych-space-daw-bottom-stim-middle"" ></div><div id=""jspsych-space-daw-bottom-stim-right"" style=""background-image: url('./tasks/two-arm-new/img/yellow_stim_2_deact.png')""></div></div>","bad_alien_practice","2","","","","1","","","","yellow","0"
"html-keyboard-response","136","98891","0.0-7.0-4.0-1.2","60520f7b38610f36b366a806","6359551218e5c682346227eb","0x8awt1y35pa","null","","null","","","","","","","","<div style=""background-image: url('./tasks/two-arm-new/img/yellow_planet.png')""><div id=""jspsych-space-daw-top-stim-left"" ></div><div id=""jspsych-space-daw-top-stim-middle"" ></div><div id=""jspsych-space-daw-top-stim-right"" ></div><div style=""clear:both""></div><div id=""jspsych-space-daw-bottom-stim-left"" class=""jspsych-space-daw-bottom-stim-border"" style=""background-image: url('./tasks/two-arm-new/img/yellow_stim_1.png')""></div><div id=""jspsych-space-daw-bottom-stim-middle"" ></div><div id=""jspsych-space-daw-bottom-stim-right"" style=""background-image: url('./tasks/two-arm-new/img/yellow_stim_2_deact.png')""></div></div>","","","","","","","","","","",""
"html-keyboard-response","137","99900","0.0-7.0-4.0-2.2","60520f7b38610f36b366a806","6359551218e5c682346227eb","0x8awt1y35pa","null","","null","","","","","","","","<div style=""background-image: url('./tasks/two-arm-new/img/yellow_planet.png')""><div id=""jspsych-space-daw-top-stim-left"" style=""background-image: url('./tasks/two-arm-new/img/noreward.png')""></div><div id=""jspsych-space-daw-top-stim-middle"" ></div><div id=""jspsych-space-daw-top-stim-right"" ></div><div style=""clear:both""></div><div id=""jspsych-space-daw-bottom-stim-left"" class=""jspsych-space-daw-bottom-stim-border"" style=""background-image: url('./tasks/two-arm-new/img/yellow_stim_1_sad.png')""></div><div id=""jspsych-space-daw-bottom-stim-middle"" ></div><div id=""jspsych-space-daw-bottom-stim-right"" style=""background-image: url('./tasks/two-arm-new/img/yellow_stim_2_deact.png')""></div></div>","","","","","","","","","","",""
"html-keyboard-response","138","100690","0.0-7.0-4.0-0.3","60520f7b38610f36b366a806","6359551218e5c682346227eb","0x8awt1y35pa","789","","f","","","","","","","","<div style=""background-image: url('./tasks/two-arm-new/img/yellow_planet.png')""><div id=""jspsych-space-daw-top-stim-left"" ></div><div id=""jspsych-space-daw-top-stim-middle"" ></div><div id=""jspsych-space-daw-top-stim-right"" ></div><div style=""clear:both""></div><div id=""jspsych-space-daw-bottom-stim-left"" style=""background-image: url('./tasks/two-arm-new/img/yellow_stim_1.png')""></div><div id=""jspsych-space-daw-bottom-stim-middle"" ></div><div id=""jspsych-space-daw-bottom-stim-right"" style=""background-image: url('./tasks/two-arm-new/img/yellow_stim_2_deact.png')""></div></div>","bad_alien_practice","3","","","","1","","","","yellow","0"
"html-keyboard-response","139","101202","0.0-7.0-4.0-1.3","60520f7b38610f36b366a806","6359551218e5c682346227eb","0x8awt1y35pa","null","","null","","","","","","","","<div style=""background-image: url('./tasks/two-arm-new/img/yellow_planet.png')""><div id=""jspsych-space-daw-top-stim-left"" ></div><div id=""jspsych-space-daw-top-stim-middle"" ></div><div id=""jspsych-space-daw-top-stim-right"" ></div><div style=""clear:both""></div><div id=""jspsych-space-daw-bottom-stim-left"" class=""jspsych-space-daw-bottom-stim-border"" style=""background-image: url('./tasks/two-arm-new/img/yellow_stim_1.png')""></div><div id=""jspsych-space-daw-bottom-stim-middle"" ></div><div id=""jspsych-space-daw-bottom-stim-right"" style=""background-image: url('./tasks/two-arm-new/img/yellow_stim_2_deact.png')""></div></div>","","","","","","","","","","",""
"html-keyboard-response","140","102211","0.0-7.0-4.0-2.3","60520f7b38610f36b366a806","6359551218e5c682346227eb","0x8awt1y35pa","null","","null","","","","","","","","<div style=""background-image: url('./tasks/two-arm-new/img/yellow_planet.png')""><div id=""jspsych-space-daw-top-stim-left"" style=""background-image: url('./tasks/two-arm-new/img/noreward.png')""></div><div id=""jspsych-space-daw-top-stim-middle"" ></div><div id=""jspsych-space-daw-top-stim-right"" ></div><div style=""clear:both""></div><div id=""jspsych-space-daw-bottom-stim-left"" class=""jspsych-space-daw-bottom-stim-border"" style=""background-image: url('./tasks/two-arm-new/img/yellow_stim_1_sad.png')""></div><div id=""jspsych-space-daw-bottom-stim-middle"" ></div><div id=""jspsych-space-daw-bottom-stim-right"" style=""background-image: url('./tasks/two-arm-new/img/yellow_stim_2_deact.png')""></div></div>","","","","","","","","","","",""
"html-keyboard-response","141","102541","0.0-7.0-4.0-0.4","60520f7b38610f36b366a806","6359551218e5c682346227eb","0x8awt1y35pa","331","","j","","","","","","","","<div style=""background-image: url('./tasks/two-arm-new/img/yellow_planet.png')""><div id=""jspsych-space-daw-top-stim-left"" ></div><div id=""jspsych-space-daw-top-stim-middle"" ></div><div id=""jspsych-space-daw-top-stim-right"" ></div><div style=""clear:both""></div><div id=""jspsych-space-daw-bottom-stim-left"" style=""background-image: url('./tasks/two-arm-new/img/yellow_stim_2_deact.png')""></div><div id=""jspsych-space-daw-bottom-stim-middle"" ></div><div id=""jspsych-space-daw-bottom-stim-right"" style=""background-image: url('./tasks/two-arm-new/img/yellow_stim_1.png')""></div></div>","bad_alien_practice","4","","","","1","","","","yellow","0"
"html-keyboard-response","142","103050","0.0-7.0-4.0-1.4","60520f7b38610f36b366a806","6359551218e5c682346227eb","0x8awt1y35pa","null","","null","","","","","","","","<div style=""background-image: url('./tasks/two-arm-new/img/yellow_planet.png')""><div id=""jspsych-space-daw-top-stim-left"" ></div><div id=""jspsych-space-daw-top-stim-middle"" ></div><div id=""jspsych-space-daw-top-stim-right"" ></div><div style=""clear:both""></div><div id=""jspsych-space-daw-bottom-stim-left"" style=""background-image: url('./tasks/two-arm-new/img/yellow_stim_2_deact.png')""></div><div id=""jspsych-space-daw-bottom-stim-middle"" ></div><div id=""jspsych-space-daw-bottom-stim-right"" class=""jspsych-space-daw-bottom-stim-border"" style=""background-image: url('./tasks/two-arm-new/img/yellow_stim_1.png')""></div></div>","","","","","","","","","","",""
"html-keyboard-response","143","104058","0.0-7.0-4.0-2.4","60520f7b38610f36b366a806","6359551218e5c682346227eb","0x8awt1y35pa","null","","null","","","","","","","","<div style=""background-image: url('./tasks/two-arm-new/img/yellow_planet.png')""><div id=""jspsych-space-daw-top-stim-left"" ></div><div id=""jspsych-space-daw-top-stim-middle"" ></div><div id=""jspsych-space-daw-top-stim-right"" style=""background-image: url('./tasks/two-arm-new/img/noreward.png')""></div><div style=""clear:both""></div><div id=""jspsych-space-daw-bottom-stim-left"" style=""background-image: url('./tasks/two-arm-new/img/yellow_stim_2_deact.png')""></div><div id=""jspsych-space-daw-bottom-stim-middle"" ></div><div id=""jspsych-space-daw-bottom-stim-right"" class=""jspsych-space-daw-bottom-stim-border"" style=""background-image: url('./tasks/two-arm-new/img/yellow_stim_1_sad.png')""></div></div>","","","","","","","","","","",""
"instructions","144","153373","0.0-7.0-5.0","60520f7b38610f36b366a806","6359551218e5c682346227eb","0x8awt1y35pa","49315","","","","[{""page_index"":0,""viewing_time"":49315}]","","","","","","","","","","","","","","","","",""
"html-keyboard-response","145","153591","0.0-7.0-6.0-0.0","60520f7b38610f36b366a806","6359551218e5c682346227eb","0x8awt1y35pa","217","","j","","","","","","","","<div style=""background-image: url('./tasks/two-arm-new/img/green_planet.png')""><div id=""jspsych-space-daw-top-stim-left"" ></div><div id=""jspsych-space-daw-top-stim-middle"" ></div><div id=""jspsych-space-daw-top-stim-right"" ></div><div style=""clear:both""></div><div id=""jspsych-space-daw-bottom-stim-left"" style=""background-image: url('./tasks/two-arm-new/img/green_stim_2.png')""></div><div id=""jspsych-space-daw-bottom-stim-middle"" ></div><div id=""jspsych-space-daw-bottom-stim-right"" style=""background-image: url('./tasks/two-arm-new/img/green_stim_1.png')""></div></div>","aliens_practice","0","","","","1","","","","green","0"
"html-keyboard-response","146","154098","0.0-7.0-6.0-1.0","60520f7b38610f36b366a806","6359551218e5c682346227eb","0x8awt1y35pa","null","","null","","","","","","","","<div style=""background-image: url('./tasks/two-arm-new/img/green_planet.png')""><div id=""jspsych-space-daw-top-stim-left"" ></div><div id=""jspsych-space-daw-top-stim-middle"" ></div><div id=""jspsych-space-daw-top-stim-right"" ></div><div style=""clear:both""></div><div id=""jspsych-space-daw-bottom-stim-left"" style=""background-image: url('./tasks/two-arm-new/img/green_stim_2.png')""></div><div id=""jspsych-space-daw-bottom-stim-middle"" ></div><div id=""jspsych-space-daw-bottom-stim-right"" class=""jspsych-space-daw-bottom-stim-border"" style=""background-image: url('./tasks/two-arm-new/img/green_stim_1.png')""></div></div>","","","","","","","","","","",""
"html-keyboard-response","147","155104","0.0-7.0-6.0-2.0","60520f7b38610f36b366a806","6359551218e5c682346227eb","0x8awt1y35pa","null","","null","","","","","","","","<div style=""background-image: url('./tasks/two-arm-new/img/green_planet.png')""><div id=""jspsych-space-daw-top-stim-left"" ></div><div id=""jspsych-space-daw-top-stim-middle"" ></div><div id=""jspsych-space-daw-top-stim-right"" style=""background-image: url('./tasks/two-arm-new/img/noreward.png')""></div><div style=""clear:both""></div><div id=""jspsych-space-daw-bottom-stim-left"" style=""background-image: url('./tasks/two-arm-new/img/green_stim_2.png')""></div><div id=""jspsych-space-daw-bottom-stim-middle"" ></div><div id=""jspsych-space-daw-bottom-stim-right"" class=""jspsych-space-daw-bottom-stim-border"" style=""background-image: url('./tasks/two-arm-new/img/green_stim_1_sad.png')""></div></div>","","","","","","","","","","",""
"html-keyboard-response","148","155268","0.0-7.0-6.0-0.1","60520f7b38610f36b366a806","6359551218e5c682346227eb","0x8awt1y35pa","164","","j","","","","","","","","<div style=""background-image: url('./tasks/two-arm-new/img/green_planet.png')""><div id=""jspsych-space-daw-top-stim-left"" ></div><div id=""jspsych-space-daw-top-stim-middle"" ></div><div id=""jspsych-space-daw-top-stim-right"" ></div><div style=""clear:both""></div><div id=""jspsych-space-daw-bottom-stim-left"" style=""background-image: url('./tasks/two-arm-new/img/green_stim_1.png')""></div><div id=""jspsych-space-daw-bottom-stim-middle"" ></div><div id=""jspsych-space-daw-bottom-stim-right"" style=""background-image: url('./tasks/two-arm-new/img/green_stim_2.png')""></div></div>","aliens_practice","1","","","","2","","","","green","1"
"html-keyboard-response","149","155782","0.0-7.0-6.0-1.1","60520f7b38610f36b366a806","6359551218e5c682346227eb","0x8awt1y35pa","null","","null","","","","","","","","<div style=""background-image: url('./tasks/two-arm-new/img/green_planet.png')""><div id=""jspsych-space-daw-top-stim-left"" ></div><div id=""jspsych-space-daw-top-stim-middle"" ></div><div id=""jspsych-space-daw-top-stim-right"" ></div><div style=""clear:both""></div><div id=""jspsych-space-daw-bottom-stim-left"" style=""background-image: url('./tasks/two-arm-new/img/green_stim_1.png')""></div><div id=""jspsych-space-daw-bottom-stim-middle"" ></div><div id=""jspsych-space-daw-bottom-stim-right"" class=""jspsych-space-daw-bottom-stim-border"" style=""background-image: url('./tasks/two-arm-new/img/green_stim_2.png')""></div></div>","","","","","","","","","","",""
"html-keyboard-response","150","156794","0.0-7.0-6.0-2.1","60520f7b38610f36b366a806","6359551218e5c682346227eb","0x8awt1y35pa","null","","null","","","","","","","","<div style=""background-image: url('./tasks/two-arm-new/img/green_planet.png')""><div id=""jspsych-space-daw-top-stim-left"" ></div><div id=""jspsych-space-daw-top-stim-middle"" ></div><div id=""jspsych-space-daw-top-stim-right"" style=""background-image: url('./tasks/two-arm-new/img/treasure.png')""></div><div style=""clear:both""></div><div id=""jspsych-space-daw-bottom-stim-left"" style=""background-image: url('./tasks/two-arm-new/img/green_stim_1.png')""></div><div id=""jspsych-space-daw-bottom-stim-middle"" ></div><div id=""jspsych-space-daw-bottom-stim-right"" class=""jspsych-space-daw-bottom-stim-border"" style=""background-image: url('./tasks/two-arm-new/img/green_stim_2.png')""></div></div>","","","","","","","","","","",""
"html-keyboard-response","151","156843","0.0-7.0-6.0-0.2","60520f7b38610f36b366a806","6359551218e5c682346227eb","0x8awt1y35pa","49","","j","","","","","","","","<div style=""background-image: url('./tasks/two-arm-new/img/green_planet.png')""><div id=""jspsych-space-daw-top-stim-left"" ></div><div id=""jspsych-space-daw-top-stim-middle"" ></div><div id=""jspsych-space-daw-top-stim-right"" ></div><div style=""clear:both""></div><div id=""jspsych-space-daw-bottom-stim-left"" style=""background-image: url('./tasks/two-arm-new/img/green_stim_2.png')""></div><div id=""jspsych-space-daw-bottom-stim-middle"" ></div><div id=""jspsych-space-daw-bottom-stim-right"" style=""background-image: url('./tasks/two-arm-new/img/green_stim_1.png')""></div></div>","aliens_practice","2","","","","1","","","","green","1"
"html-keyboard-response","152","157352","0.0-7.0-6.0-1.2","60520f7b38610f36b366a806","6359551218e5c682346227eb","0x8awt1y35pa","null","","null","","","","","","","","<div style=""background-image: url('./tasks/two-arm-new/img/green_planet.png')""><div id=""jspsych-space-daw-top-stim-left"" ></div><div id=""jspsych-space-daw-top-stim-middle"" ></div><div id=""jspsych-space-daw-top-stim-right"" ></div><div style=""clear:both""></div><div id=""jspsych-space-daw-bottom-stim-left"" style=""background-image: url('./tasks/two-arm-new/img/green_stim_2.png')""></div><div id=""jspsych-space-daw-bottom-stim-middle"" ></div><div id=""jspsych-space-daw-bottom-stim-right"" class=""jspsych-space-daw-bottom-stim-border"" style=""background-image: url('./tasks/two-arm-new/img/green_stim_1.png')""></div></div>","","","","","","","","","","",""
"html-keyboard-response","153","158365","0.0-7.0-6.0-2.2","60520f7b38610f36b366a806","6359551218e5c682346227eb","0x8awt1y35pa","null","","null","","","","","","","","<div style=""background-image: url('./tasks/two-arm-new/img/green_planet.png')""><div id=""jspsych-space-daw-top-stim-left"" ></div><div id=""jspsych-space-daw-top-stim-middle"" ></div><div id=""jspsych-space-daw-top-stim-right"" style=""background-image: url('./tasks/two-arm-new/img/treasure.png')""></div><div style=""clear:both""></div><div id=""jspsych-space-daw-bottom-stim-left"" style=""background-image: url('./tasks/two-arm-new/img/green_stim_2.png')""></div><div id=""jspsych-space-daw-bottom-stim-middle"" ></div><div id=""jspsych-space-daw-bottom-stim-right"" class=""jspsych-space-daw-bottom-stim-border"" style=""background-image: url('./tasks/two-arm-new/img/green_stim_1.png')""></div></div>","","","","","","","","","","",""
"html-keyboard-response","154","158532","0.0-7.0-6.0-0.3","60520f7b38610f36b366a806","6359551218e5c682346227eb","0x8awt1y35pa","167","","j","","","","","","","","<div style=""background-image: url('./tasks/two-arm-new/img/green_planet.png')""><div id=""jspsych-space-daw-top-stim-left"" ></div><div id=""jspsych-space-daw-top-stim-middle"" ></div><div id=""jspsych-space-daw-top-stim-right"" ></div><div style=""clear:both""></div><div id=""jspsych-space-daw-bottom-stim-left"" style=""background-image: url('./tasks/two-arm-new/img/green_stim_1.png')""></div><div id=""jspsych-space-daw-bottom-stim-middle"" ></div><div id=""jspsych-space-daw-bottom-stim-right"" style=""background-image: url('./tasks/two-arm-new/img/green_stim_2.png')""></div></div>","aliens_practice","3","","","","2","","","","green","0"
"html-keyboard-response","155","159032","0.0-7.0-6.0-1.3","60520f7b38610f36b366a806","6359551218e5c682346227eb","0x8awt1y35pa","null","","null","","","","","","","","<div style=""background-image: url('./tasks/two-arm-new/img/green_planet.png')""><div id=""jspsych-space-daw-top-stim-left"" ></div><div id=""jspsych-space-daw-top-stim-middle"" ></div><div id=""jspsych-space-daw-top-stim-right"" ></div><div style=""clear:both""></div><div id=""jspsych-space-daw-bottom-stim-left"" style=""background-image: url('./tasks/two-arm-new/img/green_stim_1.png')""></div><div id=""jspsych-space-daw-bottom-stim-middle"" ></div><div id=""jspsych-space-daw-bottom-stim-right"" class=""jspsych-space-daw-bottom-stim-border"" style=""background-image: url('./tasks/two-arm-new/img/green_stim_2.png')""></div></div>","","","","","","","","","","",""
"html-keyboard-response","156","160041","0.0-7.0-6.0-2.3","60520f7b38610f36b366a806","6359551218e5c682346227eb","0x8awt1y35pa","null","","null","","","","","","","","<div style=""background-image: url('./tasks/two-arm-new/img/green_planet.png')""><div id=""jspsych-space-daw-top-stim-left"" ></div><div id=""jspsych-space-daw-top-stim-middle"" ></div><div id=""jspsych-space-daw-top-stim-right"" style=""background-image: url('./tasks/two-arm-new/img/noreward.png')""></div><div style=""clear:both""></div><div id=""jspsych-space-daw-bottom-stim-left"" style=""background-image: url('./tasks/two-arm-new/img/green_stim_1.png')""></div><div id=""jspsych-space-daw-bottom-stim-middle"" ></div><div id=""jspsych-space-daw-bottom-stim-right"" class=""jspsych-space-daw-bottom-stim-border"" style=""background-image: url('./tasks/two-arm-new/img/green_stim_2_sad.png')""></div></div>","","","","","","","","","","",""
"html-keyboard-response","157","160137","0.0-7.0-6.0-0.4","60520f7b38610f36b366a806","6359551218e5c682346227eb","0x8awt1y35pa","96","","j","","","","","","","","<div style=""background-image: url('./tasks/two-arm-new/img/green_planet.png')""><div id=""jspsych-space-daw-top-stim-left"" ></div><div id=""jspsych-space-daw-top-stim-middle"" ></div><div id=""jspsych-space-daw-top-stim-right"" ></div><div style=""clear:both""></div><div id=""jspsych-space-daw-bottom-stim-left"" style=""background-image: url('./tasks/two-arm-new/img/green_stim_2.png')""></div><div id=""jspsych-space-daw-bottom-stim-middle"" ></div><div id=""jspsych-space-daw-bottom-stim-right"" style=""background-image: url('./tasks/two-arm-new/img/green_stim_1.png')""></div></div>","aliens_practice","4","","","","1","","","","green","0"
"html-keyboard-response","158","160649","0.0-7.0-6.0-1.4","60520f7b38610f36b366a806","6359551218e5c682346227eb","0x8awt1y35pa","null","","null","","","","","","","","<div style=""background-image: url('./tasks/two-arm-new/img/green_planet.png')""><div id=""jspsych-space-daw-top-stim-left"" ></div><div id=""jspsych-space-daw-top-stim-middle"" ></div><div id=""jspsych-space-daw-top-stim-right"" ></div><div style=""clear:both""></div><div id=""jspsych-space-daw-bottom-stim-left"" style=""background-image: url('./tasks/two-arm-new/img/green_stim_2.png')""></div><div id=""jspsych-space-daw-bottom-stim-middle"" ></div><div id=""jspsych-space-daw-bottom-stim-right"" class=""jspsych-space-daw-bottom-stim-border"" style=""background-image: url('./tasks/two-arm-new/img/green_stim_1.png')""></div></div>","","","","","","","","","","",""
"html-keyboard-response","159","161661","0.0-7.0-6.0-2.4","60520f7b38610f36b366a806","6359551218e5c682346227eb","0x8awt1y35pa","null","","null","","","","","","","","<div style=""background-image: url('./tasks/two-arm-new/img/green_planet.png')""><div id=""jspsych-space-daw-top-stim-left"" ></div><div id=""jspsych-space-daw-top-stim-middle"" ></div><div id=""jspsych-space-daw-top-stim-right"" style=""background-image: url('./tasks/two-arm-new/img/noreward.png')""></div><div style=""clear:both""></div><div id=""jspsych-space-daw-bottom-stim-left"" style=""background-image: url('./tasks/two-arm-new/img/green_stim_2.png')""></div><div id=""jspsych-space-daw-bottom-stim-middle"" ></div><div id=""jspsych-space-daw-bottom-stim-right"" class=""jspsych-space-daw-bottom-stim-border"" style=""background-image: url('./tasks/two-arm-new/img/green_stim_1_sad.png')""></div></div>","","","","","","","","","","",""
