"trial_type","trial_index","time_elapsed","internal_node_id","subject_id","study_id","session_id","rt","url","response","question_order","view_history","success","timeout","failed_images","failed_audio","failed_video","stimulus","block","trial_number","state","choice","rewarded","state1_action","state2_visited","state1_key","state2_key","state1_rt","state2_rt","two_arm_score_block1","block_num","seq_file","trial_seq_info","two_arm_score_block2","two_arm_score_total","jar","bead","previous_bead","correct","lowH_score","highH_score","total_bonus"
"pavlovia","0","1297","0.0-0.0","57bfc1beef05670001ee84c2","63690f60c96a0a9a64b48fbc","63691ee35f372d705b0c692b","","","","","","","","","","","","","","","","","","","","","","","","","","","","","","","","","","",""
"external-html","1","8894","0.0-1.0-0.0","57bfc1beef05670001ee84c2","63690f60c96a0a9a64b48fbc","63691ee35f372d705b0c692b","6063","new_consent.html","","","","","","","","","","","","","","","","","","","","","","","","","","","","","","","","",""
"survey-multi-choice","2","12707","0.0-1.0-1.0","57bfc1beef05670001ee84c2","63690f60c96a0a9a64b48fbc","63691ee35f372d705b0c692b","3803","","{""Q0"":""Male"",""Q1"":""White""}","[0,1]","","","","","","","","","","","","","","","","","","","","","","","","","","","","","","",""
"survey-text","3","15621","0.0-1.0-2.0","57bfc1beef05670001ee84c2","63690f60c96a0a9a64b48fbc","63691ee35f372d705b0c692b","2888","","{""Q0"":""28""}","","","","","","","","","","","","","","","","","","","","","","","","","","","","","","","",""
"instructions","4","19073","0.0-2.0","57bfc1beef05670001ee84c2","63690f60c96a0a9a64b48fbc","63691ee35f372d705b0c692b","3337","","","","[{""page_index"":0,""viewing_time"":2003},{""page_index"":1,""viewing_time"":1332}]","","","","","","","","","","","","","","","","","","","","","","","","","","","","","",""
"instructions","5","20138","0.0-3.0","57bfc1beef05670001ee84c2","63690f60c96a0a9a64b48fbc","63691ee35f372d705b0c692b","1062","","","","[{""page_index"":0,""viewing_time"":1062}]","","","","","","","","","","","","","","","","","","","","","","","","","","","","","",""
"preload","6","21684","0.0-4.0-0.0","57bfc1beef05670001ee84c2","63690f60c96a0a9a64b48fbc","63691ee35f372d705b0c692b","","","","","","true","false","[]","[]","[]","","","","","","","","","","","","","","","","","","","","","","","","",""
"instructions","7","65958","0.0-4.0-1.0","57bfc1beef05670001ee84c2","63690f60c96a0a9a64b48fbc","63691ee35f372d705b0c692b","44276","","","","[{""page_index"":0,""viewing_time"":3760},{""page_index"":1,""viewing_time"":9644},{""page_index"":2,""viewing_time"":7160},{""page_index"":3,""viewing_time"":16026},{""page_index"":4,""viewing_time"":7684}]","","","","","","","","","","","","","","","","","","","","","","","","","","","","","",""
"html-keyboard-response","8","69688","0.0-4.0-2.0-0.0","57bfc1beef05670001ee84c2","63690f60c96a0a9a64b48fbc","63691ee35f372d705b0c692b","3725","","j","","","","","","","","<div style=""background-image: url('./tasks/two-arm-new/img/green_planet.png')""><div id=""jspsych-space-daw-top-stim-left"" ></div><div id=""jspsych-space-daw-top-stim-middle"" ></div><div id=""jspsych-space-daw-top-stim-right"" ></div><div style=""clear:both""></div><div id=""jspsych-space-daw-bottom-stim-left"" style=""background-image: url('./tasks/two-arm-new/img/green_stim_2_deact.png')""></div><div id=""jspsych-space-daw-bottom-stim-middle"" ></div><div id=""jspsych-space-daw-bottom-stim-right"" style=""background-image: url('./tasks/two-arm-new/img/green_stim_1.png')""></div></div>","good_alien_practice","0","green","1","1","","","","","","","","","","","","","","","","","","",""
"html-keyboard-response","9","70208","0.0-4.0-2.0-1.0","57bfc1beef05670001ee84c2","63690f60c96a0a9a64b48fbc","63691ee35f372d705b0c692b","null","","null","","","","","","","","<div style=""background-image: url('./tasks/two-arm-new/img/green_planet.png')""><div id=""jspsych-space-daw-top-stim-left"" ></div><div id=""jspsych-space-daw-top-stim-middle"" ></div><div id=""jspsych-space-daw-top-stim-right"" ></div><div style=""clear:both""></div><div id=""jspsych-space-daw-bottom-stim-left"" style=""background-image: url('./tasks/two-arm-new/img/green_stim_2_deact.png')""></div><div id=""jspsych-space-daw-bottom-stim-middle"" ></div><div id=""jspsych-space-daw-bottom-stim-right"" class=""jspsych-space-daw-bottom-stim-border"" style=""background-image: url('./tasks/two-arm-new/img/green_stim_1.png')""></div></div>","","","","","","","","","","","","","","","","","","","","","","","",""
"html-keyboard-response","10","71223","0.0-4.0-2.0-2.0","57bfc1beef05670001ee84c2","63690f60c96a0a9a64b48fbc","63691ee35f372d705b0c692b","null","","null","","","","","","","","<div style=""background-image: url('./tasks/two-arm-new/img/green_planet.png')""><div id=""jspsych-space-daw-top-stim-left"" ></div><div id=""jspsych-space-daw-top-stim-middle"" ></div><div id=""jspsych-space-daw-top-stim-right"" style=""background-image: url('./tasks/two-arm-new/img/treasure.png')""></div><div style=""clear:both""></div><div id=""jspsych-space-daw-bottom-stim-left"" style=""background-image: url('./tasks/two-arm-new/img/green_stim_2_deact.png')""></div><div id=""jspsych-space-daw-bottom-stim-middle"" ></div><div id=""jspsych-space-daw-bottom-stim-right"" class=""jspsych-space-daw-bottom-stim-border"" style=""background-image: url('./tasks/two-arm-new/img/green_stim_1.png')""></div></div>","","","","","","","","","","","","","","","","","","","","","","","",""
"html-keyboard-response","11","71897","0.0-4.0-2.0-0.1","57bfc1beef05670001ee84c2","63690f60c96a0a9a64b48fbc","63691ee35f372d705b0c692b","671","","f","","","","","","","","<div style=""background-image: url('./tasks/two-arm-new/img/green_planet.png')""><div id=""jspsych-space-daw-top-stim-left"" ></div><div id=""jspsych-space-daw-top-stim-middle"" ></div><div id=""jspsych-space-daw-top-stim-right"" ></div><div style=""clear:both""></div><div id=""jspsych-space-daw-bottom-stim-left"" style=""background-image: url('./tasks/two-arm-new/img/green_stim_1.png')""></div><div id=""jspsych-space-daw-bottom-stim-middle"" ></div><div id=""jspsych-space-daw-bottom-stim-right"" style=""background-image: url('./tasks/two-arm-new/img/green_stim_2_deact.png')""></div></div>","good_alien_practice","1","green","1","1","","","","","","","","","","","","","","","","","","",""
"html-keyboard-response","12","72406","0.0-4.0-2.0-1.1","57bfc1beef05670001ee84c2","63690f60c96a0a9a64b48fbc","63691ee35f372d705b0c692b","null","","null","","","","","","","","<div style=""background-image: url('./tasks/two-arm-new/img/green_planet.png')""><div id=""jspsych-space-daw-top-stim-left"" ></div><div id=""jspsych-space-daw-top-stim-middle"" ></div><div id=""jspsych-space-daw-top-stim-right"" ></div><div style=""clear:both""></div><div id=""jspsych-space-daw-bottom-stim-left"" class=""jspsych-space-daw-bottom-stim-border"" style=""background-image: url('./tasks/two-arm-new/img/green_stim_1.png')""></div><div id=""jspsych-space-daw-bottom-stim-middle"" ></div><div id=""jspsych-space-daw-bottom-stim-right"" style=""background-image: url('./tasks/two-arm-new/img/green_stim_2_deact.png')""></div></div>","","","","","","","","","","","","","","","","","","","","","","","",""
"html-keyboard-response","13","73421","0.0-4.0-2.0-2.1","57bfc1beef05670001ee84c2","63690f60c96a0a9a64b48fbc","63691ee35f372d705b0c692b","null","","null","","","","","","","","<div style=""background-image: url('./tasks/two-arm-new/img/green_planet.png')""><div id=""jspsych-space-daw-top-stim-left"" style=""background-image: url('./tasks/two-arm-new/img/treasure.png')""></div><div id=""jspsych-space-daw-top-stim-middle"" ></div><div id=""jspsych-space-daw-top-stim-right"" ></div><div style=""clear:both""></div><div id=""jspsych-space-daw-bottom-stim-left"" class=""jspsych-space-daw-bottom-stim-border"" style=""background-image: url('./tasks/two-arm-new/img/green_stim_1.png')""></div><div id=""jspsych-space-daw-bottom-stim-middle"" ></div><div id=""jspsych-space-daw-bottom-stim-right"" style=""background-image: url('./tasks/two-arm-new/img/green_stim_2_deact.png')""></div></div>","","","","","","","","","","","","","","","","","","","","","","","",""
"html-keyboard-response","14","73948","0.0-4.0-2.0-0.2","57bfc1beef05670001ee84c2","63690f60c96a0a9a64b48fbc","63691ee35f372d705b0c692b","524","","j","","","","","","","","<div style=""background-image: url('./tasks/two-arm-new/img/green_planet.png')""><div id=""jspsych-space-daw-top-stim-left"" ></div><div id=""jspsych-space-daw-top-stim-middle"" ></div><div id=""jspsych-space-daw-top-stim-right"" ></div><div style=""clear:both""></div><div id=""jspsych-space-daw-bottom-stim-left"" style=""background-image: url('./tasks/two-arm-new/img/green_stim_2_deact.png')""></div><div id=""jspsych-space-daw-bottom-stim-middle"" ></div><div id=""jspsych-space-daw-bottom-stim-right"" style=""background-image: url('./tasks/two-arm-new/img/green_stim_1.png')""></div></div>","good_alien_practice","2","green","1","1","","","","","","","","","","","","","","","","","","",""
"html-keyboard-response","15","74453","0.0-4.0-2.0-1.2","57bfc1beef05670001ee84c2","63690f60c96a0a9a64b48fbc","63691ee35f372d705b0c692b","null","","null","","","","","","","","<div style=""background-image: url('./tasks/two-arm-new/img/green_planet.png')""><div id=""jspsych-space-daw-top-stim-left"" ></div><div id=""jspsych-space-daw-top-stim-middle"" ></div><div id=""jspsych-space-daw-top-stim-right"" ></div><div style=""clear:both""></div><div id=""jspsych-space-daw-bottom-stim-left"" style=""background-image: url('./tasks/two-arm-new/img/green_stim_2_deact.png')""></div><div id=""jspsych-space-daw-bottom-stim-middle"" ></div><div id=""jspsych-space-daw-bottom-stim-right"" class=""jspsych-space-daw-bottom-stim-border"" style=""background-image: url('./tasks/two-arm-new/img/green_stim_1.png')""></div></div>","","","","","","","","","","","","","","","","","","","","","","","",""
"html-keyboard-response","16","75469","0.0-4.0-2.0-2.2","57bfc1beef05670001ee84c2","63690f60c96a0a9a64b48fbc","63691ee35f372d705b0c692b","null","","null","","","","","","","","<div style=""background-image: url('./tasks/two-arm-new/img/green_planet.png')""><div id=""jspsych-space-daw-top-stim-left"" ></div><div id=""jspsych-space-daw-top-stim-middle"" ></div><div id=""jspsych-space-daw-top-stim-right"" style=""background-image: url('./tasks/two-arm-new/img/treasure.png')""></div><div style=""clear:both""></div><div id=""jspsych-space-daw-bottom-stim-left"" style=""background-image: url('./tasks/two-arm-new/img/green_stim_2_deact.png')""></div><div id=""jspsych-space-daw-bottom-stim-middle"" ></div><div id=""jspsych-space-daw-bottom-stim-right"" class=""jspsych-space-daw-bottom-stim-border"" style=""background-image: url('./tasks/two-arm-new/img/green_stim_1.png')""></div></div>","","","","","","","","","","","","","","","","","","","","","","","",""
"html-keyboard-response","17","77046","0.0-4.0-2.0-0.3","57bfc1beef05670001ee84c2","63690f60c96a0a9a64b48fbc","63691ee35f372d705b0c692b","1575","","j","","","","","","","","<div style=""background-image: url('./tasks/two-arm-new/img/green_planet.png')""><div id=""jspsych-space-daw-top-stim-left"" ></div><div id=""jspsych-space-daw-top-stim-middle"" ></div><div id=""jspsych-space-daw-top-stim-right"" ></div><div style=""clear:both""></div><div id=""jspsych-space-daw-bottom-stim-left"" style=""background-image: url('./tasks/two-arm-new/img/green_stim_2_deact.png')""></div><div id=""jspsych-space-daw-bottom-stim-middle"" ></div><div id=""jspsych-space-daw-bottom-stim-right"" style=""background-image: url('./tasks/two-arm-new/img/green_stim_1.png')""></div></div>","good_alien_practice","3","green","1","0","","","","","","","","","","","","","","","","","","",""
"html-keyboard-response","18","77550","0.0-4.0-2.0-1.3","57bfc1beef05670001ee84c2","63690f60c96a0a9a64b48fbc","63691ee35f372d705b0c692b","null","","null","","","","","","","","<div style=""background-image: url('./tasks/two-arm-new/img/green_planet.png')""><div id=""jspsych-space-daw-top-stim-left"" ></div><div id=""jspsych-space-daw-top-stim-middle"" ></div><div id=""jspsych-space-daw-top-stim-right"" ></div><div style=""clear:both""></div><div id=""jspsych-space-daw-bottom-stim-left"" style=""background-image: url('./tasks/two-arm-new/img/green_stim_2_deact.png')""></div><div id=""jspsych-space-daw-bottom-stim-middle"" ></div><div id=""jspsych-space-daw-bottom-stim-right"" class=""jspsych-space-daw-bottom-stim-border"" style=""background-image: url('./tasks/two-arm-new/img/green_stim_1.png')""></div></div>","","","","","","","","","","","","","","","","","","","","","","","",""
"html-keyboard-response","19","78565","0.0-4.0-2.0-2.3","57bfc1beef05670001ee84c2","63690f60c96a0a9a64b48fbc","63691ee35f372d705b0c692b","null","","null","","","","","","","","<div style=""background-image: url('./tasks/two-arm-new/img/green_planet.png')""><div id=""jspsych-space-daw-top-stim-left"" ></div><div id=""jspsych-space-daw-top-stim-middle"" ></div><div id=""jspsych-space-daw-top-stim-right"" style=""background-image: url('./tasks/two-arm-new/img/noreward.png')""></div><div style=""clear:both""></div><div id=""jspsych-space-daw-bottom-stim-left"" style=""background-image: url('./tasks/two-arm-new/img/green_stim_2_deact.png')""></div><div id=""jspsych-space-daw-bottom-stim-middle"" ></div><div id=""jspsych-space-daw-bottom-stim-right"" class=""jspsych-space-daw-bottom-stim-border"" style=""background-image: url('./tasks/two-arm-new/img/green_stim_1_sad.png')""></div></div>","","","","","","","","","","","","","","","","","","","","","","","",""
"html-keyboard-response","20","79057","0.0-4.0-2.0-0.4","57bfc1beef05670001ee84c2","63690f60c96a0a9a64b48fbc","63691ee35f372d705b0c692b","489","","f","","","","","","","","<div style=""background-image: url('./tasks/two-arm-new/img/green_planet.png')""><div id=""jspsych-space-daw-top-stim-left"" ></div><div id=""jspsych-space-daw-top-stim-middle"" ></div><div id=""jspsych-space-daw-top-stim-right"" ></div><div style=""clear:both""></div><div id=""jspsych-space-daw-bottom-stim-left"" style=""background-image: url('./tasks/two-arm-new/img/green_stim_1.png')""></div><div id=""jspsych-space-daw-bottom-stim-middle"" ></div><div id=""jspsych-space-daw-bottom-stim-right"" style=""background-image: url('./tasks/two-arm-new/img/green_stim_2_deact.png')""></div></div>","good_alien_practice","4","green","1","1","","","","","","","","","","","","","","","","","","",""
"html-keyboard-response","21","79563","0.0-4.0-2.0-1.4","57bfc1beef05670001ee84c2","63690f60c96a0a9a64b48fbc","63691ee35f372d705b0c692b","null","","null","","","","","","","","<div style=""background-image: url('./tasks/two-arm-new/img/green_planet.png')""><div id=""jspsych-space-daw-top-stim-left"" ></div><div id=""jspsych-space-daw-top-stim-middle"" ></div><div id=""jspsych-space-daw-top-stim-right"" ></div><div style=""clear:both""></div><div id=""jspsych-space-daw-bottom-stim-left"" class=""jspsych-space-daw-bottom-stim-border"" style=""background-image: url('./tasks/two-arm-new/img/green_stim_1.png')""></div><div id=""jspsych-space-daw-bottom-stim-middle"" ></div><div id=""jspsych-space-daw-bottom-stim-right"" style=""background-image: url('./tasks/two-arm-new/img/green_stim_2_deact.png')""></div></div>","","","","","","","","","","","","","","","","","","","","","","","",""
"html-keyboard-response","22","80580","0.0-4.0-2.0-2.4","57bfc1beef05670001ee84c2","63690f60c96a0a9a64b48fbc","63691ee35f372d705b0c692b","null","","null","","","","","","","","<div style=""background-image: url('./tasks/two-arm-new/img/green_planet.png')""><div id=""jspsych-space-daw-top-stim-left"" style=""background-image: url('./tasks/two-arm-new/img/treasure.png')""></div><div id=""jspsych-space-daw-top-stim-middle"" ></div><div id=""jspsych-space-daw-top-stim-right"" ></div><div style=""clear:both""></div><div id=""jspsych-space-daw-bottom-stim-left"" class=""jspsych-space-daw-bottom-stim-border"" style=""background-image: url('./tasks/two-arm-new/img/green_stim_1.png')""></div><div id=""jspsych-space-daw-bottom-stim-middle"" ></div><div id=""jspsych-space-daw-bottom-stim-right"" style=""background-image: url('./tasks/two-arm-new/img/green_stim_2_deact.png')""></div></div>","","","","","","","","","","","","","","","","","","","","","","","",""
"instructions","23","85156","0.0-4.0-3.0","57bfc1beef05670001ee84c2","63690f60c96a0a9a64b48fbc","63691ee35f372d705b0c692b","4575","","","","[{""page_index"":0,""viewing_time"":4574}]","","","","","","","","","","","","","","","","","","","","","","","","","","","","","",""
"html-keyboard-response","24","87250","0.0-4.0-4.0-0.0","57bfc1beef05670001ee84c2","63690f60c96a0a9a64b48fbc","63691ee35f372d705b0c692b","2091","","f","","","","","","","","<div style=""background-image: url('./tasks/two-arm-new/img/yellow_planet.png')""><div id=""jspsych-space-daw-top-stim-left"" ></div><div id=""jspsych-space-daw-top-stim-middle"" ></div><div id=""jspsych-space-daw-top-stim-right"" ></div><div style=""clear:both""></div><div id=""jspsych-space-daw-bottom-stim-left"" style=""background-image: url('./tasks/two-arm-new/img/yellow_stim_1.png')""></div><div id=""jspsych-space-daw-bottom-stim-middle"" ></div><div id=""jspsych-space-daw-bottom-stim-right"" style=""background-image: url('./tasks/two-arm-new/img/yellow_stim_2_deact.png')""></div></div>","bad_alien_practice","0","yellow","1","0","","","","","","","","","","","","","","","","","","",""
"html-keyboard-response","25","87756","0.0-4.0-4.0-1.0","57bfc1beef05670001ee84c2","63690f60c96a0a9a64b48fbc","63691ee35f372d705b0c692b","null","","null","","","","","","","","<div style=""background-image: url('./tasks/two-arm-new/img/yellow_planet.png')""><div id=""jspsych-space-daw-top-stim-left"" ></div><div id=""jspsych-space-daw-top-stim-middle"" ></div><div id=""jspsych-space-daw-top-stim-right"" ></div><div style=""clear:both""></div><div id=""jspsych-space-daw-bottom-stim-left"" class=""jspsych-space-daw-bottom-stim-border"" style=""background-image: url('./tasks/two-arm-new/img/yellow_stim_1.png')""></div><div id=""jspsych-space-daw-bottom-stim-middle"" ></div><div id=""jspsych-space-daw-bottom-stim-right"" style=""background-image: url('./tasks/two-arm-new/img/yellow_stim_2_deact.png')""></div></div>","","","","","","","","","","","","","","","","","","","","","","","",""
"html-keyboard-response","26","88770","0.0-4.0-4.0-2.0","57bfc1beef05670001ee84c2","63690f60c96a0a9a64b48fbc","63691ee35f372d705b0c692b","null","","null","","","","","","","","<div style=""background-image: url('./tasks/two-arm-new/img/yellow_planet.png')""><div id=""jspsych-space-daw-top-stim-left"" style=""background-image: url('./tasks/two-arm-new/img/noreward.png')""></div><div id=""jspsych-space-daw-top-stim-middle"" ></div><div id=""jspsych-space-daw-top-stim-right"" ></div><div style=""clear:both""></div><div id=""jspsych-space-daw-bottom-stim-left"" class=""jspsych-space-daw-bottom-stim-border"" style=""background-image: url('./tasks/two-arm-new/img/yellow_stim_1_sad.png')""></div><div id=""jspsych-space-daw-bottom-stim-middle"" ></div><div id=""jspsych-space-daw-bottom-stim-right"" style=""background-image: url('./tasks/two-arm-new/img/yellow_stim_2_deact.png')""></div></div>","","","","","","","","","","","","","","","","","","","","","","","",""
"html-keyboard-response","27","89202","0.0-4.0-4.0-0.1","57bfc1beef05670001ee84c2","63690f60c96a0a9a64b48fbc","63691ee35f372d705b0c692b","429","","f","","","","","","","","<div style=""background-image: url('./tasks/two-arm-new/img/yellow_planet.png')""><div id=""jspsych-space-daw-top-stim-left"" ></div><div id=""jspsych-space-daw-top-stim-middle"" ></div><div id=""jspsych-space-daw-top-stim-right"" ></div><div style=""clear:both""></div><div id=""jspsych-space-daw-bottom-stim-left"" style=""background-image: url('./tasks/two-arm-new/img/yellow_stim_1.png')""></div><div id=""jspsych-space-daw-bottom-stim-middle"" ></div><div id=""jspsych-space-daw-bottom-stim-right"" style=""background-image: url('./tasks/two-arm-new/img/yellow_stim_2_deact.png')""></div></div>","bad_alien_practice","1","yellow","1","1","","","","","","","","","","","","","","","","","","",""
"html-keyboard-response","28","89718","0.0-4.0-4.0-1.1","57bfc1beef05670001ee84c2","63690f60c96a0a9a64b48fbc","63691ee35f372d705b0c692b","null","","null","","","","","","","","<div style=""background-image: url('./tasks/two-arm-new/img/yellow_planet.png')""><div id=""jspsych-space-daw-top-stim-left"" ></div><div id=""jspsych-space-daw-top-stim-middle"" ></div><div id=""jspsych-space-daw-top-stim-right"" ></div><div style=""clear:both""></div><div id=""jspsych-space-daw-bottom-stim-left"" class=""jspsych-space-daw-bottom-stim-border"" style=""background-image: url('./tasks/two-arm-new/img/yellow_stim_1.png')""></div><div id=""jspsych-space-daw-bottom-stim-middle"" ></div><div id=""jspsych-space-daw-bottom-stim-right"" style=""background-image: url('./tasks/two-arm-new/img/yellow_stim_2_deact.png')""></div></div>","","","","","","","","","","","","","","","","","","","","","","","",""
"html-keyboard-response","29","90734","0.0-4.0-4.0-2.1","57bfc1beef05670001ee84c2","63690f60c96a0a9a64b48fbc","63691ee35f372d705b0c692b","null","","null","","","","","","","","<div style=""background-image: url('./tasks/two-arm-new/img/yellow_planet.png')""><div id=""jspsych-space-daw-top-stim-left"" style=""background-image: url('./tasks/two-arm-new/img/treasure.png')""></div><div id=""jspsych-space-daw-top-stim-middle"" ></div><div id=""jspsych-space-daw-top-stim-right"" ></div><div style=""clear:both""></div><div id=""jspsych-space-daw-bottom-stim-left"" class=""jspsych-space-daw-bottom-stim-border"" style=""background-image: url('./tasks/two-arm-new/img/yellow_stim_1.png')""></div><div id=""jspsych-space-daw-bottom-stim-middle"" ></div><div id=""jspsych-space-daw-bottom-stim-right"" style=""background-image: url('./tasks/two-arm-new/img/yellow_stim_2_deact.png')""></div></div>","","","","","","","","","","","","","","","","","","","","","","","",""
"html-keyboard-response","30","91175","0.0-4.0-4.0-0.2","57bfc1beef05670001ee84c2","63690f60c96a0a9a64b48fbc","63691ee35f372d705b0c692b","438","","f","","","","","","","","<div style=""background-image: url('./tasks/two-arm-new/img/yellow_planet.png')""><div id=""jspsych-space-daw-top-stim-left"" ></div><div id=""jspsych-space-daw-top-stim-middle"" ></div><div id=""jspsych-space-daw-top-stim-right"" ></div><div style=""clear:both""></div><div id=""jspsych-space-daw-bottom-stim-left"" style=""background-image: url('./tasks/two-arm-new/img/yellow_stim_1.png')""></div><div id=""jspsych-space-daw-bottom-stim-middle"" ></div><div id=""jspsych-space-daw-bottom-stim-right"" style=""background-image: url('./tasks/two-arm-new/img/yellow_stim_2_deact.png')""></div></div>","bad_alien_practice","2","yellow","1","0","","","","","","","","","","","","","","","","","","",""
"html-keyboard-response","31","91682","0.0-4.0-4.0-1.2","57bfc1beef05670001ee84c2","63690f60c96a0a9a64b48fbc","63691ee35f372d705b0c692b","null","","null","","","","","","","","<div style=""background-image: url('./tasks/two-arm-new/img/yellow_planet.png')""><div id=""jspsych-space-daw-top-stim-left"" ></div><div id=""jspsych-space-daw-top-stim-middle"" ></div><div id=""jspsych-space-daw-top-stim-right"" ></div><div style=""clear:both""></div><div id=""jspsych-space-daw-bottom-stim-left"" class=""jspsych-space-daw-bottom-stim-border"" style=""background-image: url('./tasks/two-arm-new/img/yellow_stim_1.png')""></div><div id=""jspsych-space-daw-bottom-stim-middle"" ></div><div id=""jspsych-space-daw-bottom-stim-right"" style=""background-image: url('./tasks/two-arm-new/img/yellow_stim_2_deact.png')""></div></div>","","","","","","","","","","","","","","","","","","","","","","","",""
"html-keyboard-response","32","92698","0.0-4.0-4.0-2.2","57bfc1beef05670001ee84c2","63690f60c96a0a9a64b48fbc","63691ee35f372d705b0c692b","null","","null","","","","","","","","<div style=""background-image: url('./tasks/two-arm-new/img/yellow_planet.png')""><div id=""jspsych-space-daw-top-stim-left"" style=""background-image: url('./tasks/two-arm-new/img/noreward.png')""></div><div id=""jspsych-space-daw-top-stim-middle"" ></div><div id=""jspsych-space-daw-top-stim-right"" ></div><div style=""clear:both""></div><div id=""jspsych-space-daw-bottom-stim-left"" class=""jspsych-space-daw-bottom-stim-border"" style=""background-image: url('./tasks/two-arm-new/img/yellow_stim_1_sad.png')""></div><div id=""jspsych-space-daw-bottom-stim-middle"" ></div><div id=""jspsych-space-daw-bottom-stim-right"" style=""background-image: url('./tasks/two-arm-new/img/yellow_stim_2_deact.png')""></div></div>","","","","","","","","","","","","","","","","","","","","","","","",""
"html-keyboard-response","33","93200","0.0-4.0-4.0-0.3","57bfc1beef05670001ee84c2","63690f60c96a0a9a64b48fbc","63691ee35f372d705b0c692b","499","","j","","","","","","","","<div style=""background-image: url('./tasks/two-arm-new/img/yellow_planet.png')""><div id=""jspsych-space-daw-top-stim-left"" ></div><div id=""jspsych-space-daw-top-stim-middle"" ></div><div id=""jspsych-space-daw-top-stim-right"" ></div><div style=""clear:both""></div><div id=""jspsych-space-daw-bottom-stim-left"" style=""background-image: url('./tasks/two-arm-new/img/yellow_stim_2_deact.png')""></div><div id=""jspsych-space-daw-bottom-stim-middle"" ></div><div id=""jspsych-space-daw-bottom-stim-right"" style=""background-image: url('./tasks/two-arm-new/img/yellow_stim_1.png')""></div></div>","bad_alien_practice","3","yellow","1","0","","","","","","","","","","","","","","","","","","",""
"html-keyboard-response","34","93714","0.0-4.0-4.0-1.3","57bfc1beef05670001ee84c2","63690f60c96a0a9a64b48fbc","63691ee35f372d705b0c692b","null","","null","","","","","","","","<div style=""background-image: url('./tasks/two-arm-new/img/yellow_planet.png')""><div id=""jspsych-space-daw-top-stim-left"" ></div><div id=""jspsych-space-daw-top-stim-middle"" ></div><div id=""jspsych-space-daw-top-stim-right"" ></div><div style=""clear:both""></div><div id=""jspsych-space-daw-bottom-stim-left"" style=""background-image: url('./tasks/two-arm-new/img/yellow_stim_2_deact.png')""></div><div id=""jspsych-space-daw-bottom-stim-middle"" ></div><div id=""jspsych-space-daw-bottom-stim-right"" class=""jspsych-space-daw-bottom-stim-border"" style=""background-image: url('./tasks/two-arm-new/img/yellow_stim_1.png')""></div></div>","","","","","","","","","","","","","","","","","","","","","","","",""
"html-keyboard-response","35","94730","0.0-4.0-4.0-2.3","57bfc1beef05670001ee84c2","63690f60c96a0a9a64b48fbc","63691ee35f372d705b0c692b","null","","null","","","","","","","","<div style=""background-image: url('./tasks/two-arm-new/img/yellow_planet.png')""><div id=""jspsych-space-daw-top-stim-left"" ></div><div id=""jspsych-space-daw-top-stim-middle"" ></div><div id=""jspsych-space-daw-top-stim-right"" style=""background-image: url('./tasks/two-arm-new/img/noreward.png')""></div><div style=""clear:both""></div><div id=""jspsych-space-daw-bottom-stim-left"" style=""background-image: url('./tasks/two-arm-new/img/yellow_stim_2_deact.png')""></div><div id=""jspsych-space-daw-bottom-stim-middle"" ></div><div id=""jspsych-space-daw-bottom-stim-right"" class=""jspsych-space-daw-bottom-stim-border"" style=""background-image: url('./tasks/two-arm-new/img/yellow_stim_1_sad.png')""></div></div>","","","","","","","","","","","","","","","","","","","","","","","",""
"html-keyboard-response","36","95195","0.0-4.0-4.0-0.4","57bfc1beef05670001ee84c2","63690f60c96a0a9a64b48fbc","63691ee35f372d705b0c692b","462","","j","","","","","","","","<div style=""background-image: url('./tasks/two-arm-new/img/yellow_planet.png')""><div id=""jspsych-space-daw-top-stim-left"" ></div><div id=""jspsych-space-daw-top-stim-middle"" ></div><div id=""jspsych-space-daw-top-stim-right"" ></div><div style=""clear:both""></div><div id=""jspsych-space-daw-bottom-stim-left"" style=""background-image: url('./tasks/two-arm-new/img/yellow_stim_2_deact.png')""></div><div id=""jspsych-space-daw-bottom-stim-middle"" ></div><div id=""jspsych-space-daw-bottom-stim-right"" style=""background-image: url('./tasks/two-arm-new/img/yellow_stim_1.png')""></div></div>","bad_alien_practice","4","yellow","1","0","","","","","","","","","","","","","","","","","","",""
"html-keyboard-response","37","95712","0.0-4.0-4.0-1.4","57bfc1beef05670001ee84c2","63690f60c96a0a9a64b48fbc","63691ee35f372d705b0c692b","null","","null","","","","","","","","<div style=""background-image: url('./tasks/two-arm-new/img/yellow_planet.png')""><div id=""jspsych-space-daw-top-stim-left"" ></div><div id=""jspsych-space-daw-top-stim-middle"" ></div><div id=""jspsych-space-daw-top-stim-right"" ></div><div style=""clear:both""></div><div id=""jspsych-space-daw-bottom-stim-left"" style=""background-image: url('./tasks/two-arm-new/img/yellow_stim_2_deact.png')""></div><div id=""jspsych-space-daw-bottom-stim-middle"" ></div><div id=""jspsych-space-daw-bottom-stim-right"" class=""jspsych-space-daw-bottom-stim-border"" style=""background-image: url('./tasks/two-arm-new/img/yellow_stim_1.png')""></div></div>","","","","","","","","","","","","","","","","","","","","","","","",""
"html-keyboard-response","38","96728","0.0-4.0-4.0-2.4","57bfc1beef05670001ee84c2","63690f60c96a0a9a64b48fbc","63691ee35f372d705b0c692b","null","","null","","","","","","","","<div style=""background-image: url('./tasks/two-arm-new/img/yellow_planet.png')""><div id=""jspsych-space-daw-top-stim-left"" ></div><div id=""jspsych-space-daw-top-stim-middle"" ></div><div id=""jspsych-space-daw-top-stim-right"" style=""background-image: url('./tasks/two-arm-new/img/noreward.png')""></div><div style=""clear:both""></div><div id=""jspsych-space-daw-bottom-stim-left"" style=""background-image: url('./tasks/two-arm-new/img/yellow_stim_2_deact.png')""></div><div id=""jspsych-space-daw-bottom-stim-middle"" ></div><div id=""jspsych-space-daw-bottom-stim-right"" class=""jspsych-space-daw-bottom-stim-border"" style=""background-image: url('./tasks/two-arm-new/img/yellow_stim_1_sad.png')""></div></div>","","","","","","","","","","","","","","","","","","","","","","","",""
"instructions","39","104969","0.0-4.0-5.0","57bfc1beef05670001ee84c2","63690f60c96a0a9a64b48fbc","63691ee35f372d705b0c692b","8241","","","","[{""page_index"":0,""viewing_time"":8240}]","","","","","","","","","","","","","","","","","","","","","","","","","","","","","",""
"html-keyboard-response","40","106583","0.0-4.0-6.0-0.0","57bfc1beef05670001ee84c2","63690f60c96a0a9a64b48fbc","63691ee35f372d705b0c692b","1611","","j","","","","","","","","<div style=""background-image: url('./tasks/two-arm-new/img/green_planet.png')""><div id=""jspsych-space-daw-top-stim-left"" ></div><div id=""jspsych-space-daw-top-stim-middle"" ></div><div id=""jspsych-space-daw-top-stim-right"" ></div><div style=""clear:both""></div><div id=""jspsych-space-daw-bottom-stim-left"" style=""background-image: url('./tasks/two-arm-new/img/green_stim_2.png')""></div><div id=""jspsych-space-daw-bottom-stim-middle"" ></div><div id=""jspsych-space-daw-bottom-stim-right"" style=""background-image: url('./tasks/two-arm-new/img/green_stim_1.png')""></div></div>","aliens_practice","0","green","1","0","","","","","","","","","","","","","","","","","","",""
"html-keyboard-response","41","107098","0.0-4.0-6.0-1.0","57bfc1beef05670001ee84c2","63690f60c96a0a9a64b48fbc","63691ee35f372d705b0c692b","null","","null","","","","","","","","<div style=""background-image: url('./tasks/two-arm-new/img/green_planet.png')""><div id=""jspsych-space-daw-top-stim-left"" ></div><div id=""jspsych-space-daw-top-stim-middle"" ></div><div id=""jspsych-space-daw-top-stim-right"" ></div><div style=""clear:both""></div><div id=""jspsych-space-daw-bottom-stim-left"" style=""background-image: url('./tasks/two-arm-new/img/green_stim_2.png')""></div><div id=""jspsych-space-daw-bottom-stim-middle"" ></div><div id=""jspsych-space-daw-bottom-stim-right"" class=""jspsych-space-daw-bottom-stim-border"" style=""background-image: url('./tasks/two-arm-new/img/green_stim_1.png')""></div></div>","","","","","","","","","","","","","","","","","","","","","","","",""
"html-keyboard-response","42","108114","0.0-4.0-6.0-2.0","57bfc1beef05670001ee84c2","63690f60c96a0a9a64b48fbc","63691ee35f372d705b0c692b","null","","null","","","","","","","","<div style=""background-image: url('./tasks/two-arm-new/img/green_planet.png')""><div id=""jspsych-space-daw-top-stim-left"" ></div><div id=""jspsych-space-daw-top-stim-middle"" ></div><div id=""jspsych-space-daw-top-stim-right"" style=""background-image: url('./tasks/two-arm-new/img/noreward.png')""></div><div style=""clear:both""></div><div id=""jspsych-space-daw-bottom-stim-left"" style=""background-image: url('./tasks/two-arm-new/img/green_stim_2.png')""></div><div id=""jspsych-space-daw-bottom-stim-middle"" ></div><div id=""jspsych-space-daw-bottom-stim-right"" class=""jspsych-space-daw-bottom-stim-border"" style=""background-image: url('./tasks/two-arm-new/img/green_stim_1_sad.png')""></div></div>","","","","","","","","","","","","","","","","","","","","","","","",""
"html-keyboard-response","43","108955","0.0-4.0-6.0-0.1","57bfc1beef05670001ee84c2","63690f60c96a0a9a64b48fbc","63691ee35f372d705b0c692b","838","","j","","","","","","","","<div style=""background-image: url('./tasks/two-arm-new/img/green_planet.png')""><div id=""jspsych-space-daw-top-stim-left"" ></div><div id=""jspsych-space-daw-top-stim-middle"" ></div><div id=""jspsych-space-daw-top-stim-right"" ></div><div style=""clear:both""></div><div id=""jspsych-space-daw-bottom-stim-left"" style=""background-image: url('./tasks/two-arm-new/img/green_stim_2.png')""></div><div id=""jspsych-space-daw-bottom-stim-middle"" ></div><div id=""jspsych-space-daw-bottom-stim-right"" style=""background-image: url('./tasks/two-arm-new/img/green_stim_1.png')""></div></div>","aliens_practice","1","green","1","0","","","","","","","","","","","","","","","","","","",""
"html-keyboard-response","44","109469","0.0-4.0-6.0-1.1","57bfc1beef05670001ee84c2","63690f60c96a0a9a64b48fbc","63691ee35f372d705b0c692b","null","","null","","","","","","","","<div style=""background-image: url('./tasks/two-arm-new/img/green_planet.png')""><div id=""jspsych-space-daw-top-stim-left"" ></div><div id=""jspsych-space-daw-top-stim-middle"" ></div><div id=""jspsych-space-daw-top-stim-right"" ></div><div style=""clear:both""></div><div id=""jspsych-space-daw-bottom-stim-left"" style=""background-image: url('./tasks/two-arm-new/img/green_stim_2.png')""></div><div id=""jspsych-space-daw-bottom-stim-middle"" ></div><div id=""jspsych-space-daw-bottom-stim-right"" class=""jspsych-space-daw-bottom-stim-border"" style=""background-image: url('./tasks/two-arm-new/img/green_stim_1.png')""></div></div>","","","","","","","","","","","","","","","","","","","","","","","",""
"html-keyboard-response","45","110479","0.0-4.0-6.0-2.1","57bfc1beef05670001ee84c2","63690f60c96a0a9a64b48fbc","63691ee35f372d705b0c692b","null","","null","","","","","","","","<div style=""background-image: url('./tasks/two-arm-new/img/green_planet.png')""><div id=""jspsych-space-daw-top-stim-left"" ></div><div id=""jspsych-space-daw-top-stim-middle"" ></div><div id=""jspsych-space-daw-top-stim-right"" style=""background-image: url('./tasks/two-arm-new/img/noreward.png')""></div><div style=""clear:both""></div><div id=""jspsych-space-daw-bottom-stim-left"" style=""background-image: url('./tasks/two-arm-new/img/green_stim_2.png')""></div><div id=""jspsych-space-daw-bottom-stim-middle"" ></div><div id=""jspsych-space-daw-bottom-stim-right"" class=""jspsych-space-daw-bottom-stim-border"" style=""background-image: url('./tasks/two-arm-new/img/green_stim_1_sad.png')""></div></div>","","","","","","","","","","","","","","","","","","","","","","","",""
"html-keyboard-response","46","110862","0.0-4.0-6.0-0.2","57bfc1beef05670001ee84c2","63690f60c96a0a9a64b48fbc","63691ee35f372d705b0c692b","380","","f","","","","","","","","<div style=""background-image: url('./tasks/two-arm-new/img/green_planet.png')""><div id=""jspsych-space-daw-top-stim-left"" ></div><div id=""jspsych-space-daw-top-stim-middle"" ></div><div id=""jspsych-space-daw-top-stim-right"" ></div><div style=""clear:both""></div><div id=""jspsych-space-daw-bottom-stim-left"" style=""background-image: url('./tasks/two-arm-new/img/green_stim_2.png')""></div><div id=""jspsych-space-daw-bottom-stim-middle"" ></div><div id=""jspsych-space-daw-bottom-stim-right"" style=""background-image: url('./tasks/two-arm-new/img/green_stim_1.png')""></div></div>","aliens_practice","2","green","2","1","","","","","","","","","","","","","","","","","","",""
"html-keyboard-response","47","111378","0.0-4.0-6.0-1.2","57bfc1beef05670001ee84c2","63690f60c96a0a9a64b48fbc","63691ee35f372d705b0c692b","null","","null","","","","","","","","<div style=""background-image: url('./tasks/two-arm-new/img/green_planet.png')""><div id=""jspsych-space-daw-top-stim-left"" ></div><div id=""jspsych-space-daw-top-stim-middle"" ></div><div id=""jspsych-space-daw-top-stim-right"" ></div><div style=""clear:both""></div><div id=""jspsych-space-daw-bottom-stim-left"" class=""jspsych-space-daw-bottom-stim-border"" style=""background-image: url('./tasks/two-arm-new/img/green_stim_2.png')""></div><div id=""jspsych-space-daw-bottom-stim-middle"" ></div><div id=""jspsych-space-daw-bottom-stim-right"" style=""background-image: url('./tasks/two-arm-new/img/green_stim_1.png')""></div></div>","","","","","","","","","","","","","","","","","","","","","","","",""
"html-keyboard-response","48","112393","0.0-4.0-6.0-2.2","57bfc1beef05670001ee84c2","63690f60c96a0a9a64b48fbc","63691ee35f372d705b0c692b","null","","null","","","","","","","","<div style=""background-image: url('./tasks/two-arm-new/img/green_planet.png')""><div id=""jspsych-space-daw-top-stim-left"" style=""background-image: url('./tasks/two-arm-new/img/treasure.png')""></div><div id=""jspsych-space-daw-top-stim-middle"" ></div><div id=""jspsych-space-daw-top-stim-right"" ></div><div style=""clear:both""></div><div id=""jspsych-space-daw-bottom-stim-left"" class=""jspsych-space-daw-bottom-stim-border"" style=""background-image: url('./tasks/two-arm-new/img/green_stim_2.png')""></div><div id=""jspsych-space-daw-bottom-stim-middle"" ></div><div id=""jspsych-space-daw-bottom-stim-right"" style=""background-image: url('./tasks/two-arm-new/img/green_stim_1.png')""></div></div>","","","","","","","","","","","","","","","","","","","","","","","",""
"html-keyboard-response","49","112999","0.0-4.0-6.0-0.3","57bfc1beef05670001ee84c2","63690f60c96a0a9a64b48fbc","63691ee35f372d705b0c692b","603","","j","","","","","","","","<div style=""background-image: url('./tasks/two-arm-new/img/green_planet.png')""><div id=""jspsych-space-daw-top-stim-left"" ></div><div id=""jspsych-space-daw-top-stim-middle"" ></div><div id=""jspsych-space-daw-top-stim-right"" ></div><div style=""clear:both""></div><div id=""jspsych-space-daw-bottom-stim-left"" style=""background-image: url('./tasks/two-arm-new/img/green_stim_1.png')""></div><div id=""jspsych-space-daw-bottom-stim-middle"" ></div><div id=""jspsych-space-daw-bottom-stim-right"" style=""background-image: url('./tasks/two-arm-new/img/green_stim_2.png')""></div></div>","aliens_practice","3","green","2","0","","","","","","","","","","","","","","","","","","",""
"html-keyboard-response","50","113512","0.0-4.0-6.0-1.3","57bfc1beef05670001ee84c2","63690f60c96a0a9a64b48fbc","63691ee35f372d705b0c692b","null","","null","","","","","","","","<div style=""background-image: url('./tasks/two-arm-new/img/green_planet.png')""><div id=""jspsych-space-daw-top-stim-left"" ></div><div id=""jspsych-space-daw-top-stim-middle"" ></div><div id=""jspsych-space-daw-top-stim-right"" ></div><div style=""clear:both""></div><div id=""jspsych-space-daw-bottom-stim-left"" style=""background-image: url('./tasks/two-arm-new/img/green_stim_1.png')""></div><div id=""jspsych-space-daw-bottom-stim-middle"" ></div><div id=""jspsych-space-daw-bottom-stim-right"" class=""jspsych-space-daw-bottom-stim-border"" style=""background-image: url('./tasks/two-arm-new/img/green_stim_2.png')""></div></div>","","","","","","","","","","","","","","","","","","","","","","","",""
"html-keyboard-response","51","114524","0.0-4.0-6.0-2.3","57bfc1beef05670001ee84c2","63690f60c96a0a9a64b48fbc","63691ee35f372d705b0c692b","null","","null","","","","","","","","<div style=""background-image: url('./tasks/two-arm-new/img/green_planet.png')""><div id=""jspsych-space-daw-top-stim-left"" ></div><div id=""jspsych-space-daw-top-stim-middle"" ></div><div id=""jspsych-space-daw-top-stim-right"" style=""background-image: url('./tasks/two-arm-new/img/noreward.png')""></div><div style=""clear:both""></div><div id=""jspsych-space-daw-bottom-stim-left"" style=""background-image: url('./tasks/two-arm-new/img/green_stim_1.png')""></div><div id=""jspsych-space-daw-bottom-stim-middle"" ></div><div id=""jspsych-space-daw-bottom-stim-right"" class=""jspsych-space-daw-bottom-stim-border"" style=""background-image: url('./tasks/two-arm-new/img/green_stim_2_sad.png')""></div></div>","","","","","","","","","","","","","","","","","","","","","","","",""
"html-keyboard-response","52","115095","0.0-4.0-6.0-0.4","57bfc1beef05670001ee84c2","63690f60c96a0a9a64b48fbc","63691ee35f372d705b0c692b","569","","j","","","","","","","","<div style=""background-image: url('./tasks/two-arm-new/img/green_planet.png')""><div id=""jspsych-space-daw-top-stim-left"" ></div><div id=""jspsych-space-daw-top-stim-middle"" ></div><div id=""jspsych-space-daw-top-stim-right"" ></div><div style=""clear:both""></div><div id=""jspsych-space-daw-bottom-stim-left"" style=""background-image: url('./tasks/two-arm-new/img/green_stim_1.png')""></div><div id=""jspsych-space-daw-bottom-stim-middle"" ></div><div id=""jspsych-space-daw-bottom-stim-right"" style=""background-image: url('./tasks/two-arm-new/img/green_stim_2.png')""></div></div>","aliens_practice","4","green","2","1","","","","","","","","","","","","","","","","","","",""
"html-keyboard-response","53","115605","0.0-4.0-6.0-1.4","57bfc1beef05670001ee84c2","63690f60c96a0a9a64b48fbc","63691ee35f372d705b0c692b","null","","null","","","","","","","","<div style=""background-image: url('./tasks/two-arm-new/img/green_planet.png')""><div id=""jspsych-space-daw-top-stim-left"" ></div><div id=""jspsych-space-daw-top-stim-middle"" ></div><div id=""jspsych-space-daw-top-stim-right"" ></div><div style=""clear:both""></div><div id=""jspsych-space-daw-bottom-stim-left"" style=""background-image: url('./tasks/two-arm-new/img/green_stim_1.png')""></div><div id=""jspsych-space-daw-bottom-stim-middle"" ></div><div id=""jspsych-space-daw-bottom-stim-right"" class=""jspsych-space-daw-bottom-stim-border"" style=""background-image: url('./tasks/two-arm-new/img/green_stim_2.png')""></div></div>","","","","","","","","","","","","","","","","","","","","","","","",""
"html-keyboard-response","54","116622","0.0-4.0-6.0-2.4","57bfc1beef05670001ee84c2","63690f60c96a0a9a64b48fbc","63691ee35f372d705b0c692b","null","","null","","","","","","","","<div style=""background-image: url('./tasks/two-arm-new/img/green_planet.png')""><div id=""jspsych-space-daw-top-stim-left"" ></div><div id=""jspsych-space-daw-top-stim-middle"" ></div><div id=""jspsych-space-daw-top-stim-right"" style=""background-image: url('./tasks/two-arm-new/img/treasure.png')""></div><div style=""clear:both""></div><div id=""jspsych-space-daw-bottom-stim-left"" style=""background-image: url('./tasks/two-arm-new/img/green_stim_1.png')""></div><div id=""jspsych-space-daw-bottom-stim-middle"" ></div><div id=""jspsych-space-daw-bottom-stim-right"" class=""jspsych-space-daw-bottom-stim-border"" style=""background-image: url('./tasks/two-arm-new/img/green_stim_2.png')""></div></div>","","","","","","","","","","","","","","","","","","","","","","","",""
"html-keyboard-response","55","117121","0.0-4.0-6.0-0.5","57bfc1beef05670001ee84c2","63690f60c96a0a9a64b48fbc","63691ee35f372d705b0c692b","496","","f","","","","","","","","<div style=""background-image: url('./tasks/two-arm-new/img/green_planet.png')""><div id=""jspsych-space-daw-top-stim-left"" ></div><div id=""jspsych-space-daw-top-stim-middle"" ></div><div id=""jspsych-space-daw-top-stim-right"" ></div><div style=""clear:both""></div><div id=""jspsych-space-daw-bottom-stim-left"" style=""background-image: url('./tasks/two-arm-new/img/green_stim_2.png')""></div><div id=""jspsych-space-daw-bottom-stim-middle"" ></div><div id=""jspsych-space-daw-bottom-stim-right"" style=""background-image: url('./tasks/two-arm-new/img/green_stim_1.png')""></div></div>","aliens_practice","5","green","2","1","","","","","","","","","","","","","","","","","","",""
"html-keyboard-response","56","117635","0.0-4.0-6.0-1.5","57bfc1beef05670001ee84c2","63690f60c96a0a9a64b48fbc","63691ee35f372d705b0c692b","null","","null","","","","","","","","<div style=""background-image: url('./tasks/two-arm-new/img/green_planet.png')""><div id=""jspsych-space-daw-top-stim-left"" ></div><div id=""jspsych-space-daw-top-stim-middle"" ></div><div id=""jspsych-space-daw-top-stim-right"" ></div><div style=""clear:both""></div><div id=""jspsych-space-daw-bottom-stim-left"" class=""jspsych-space-daw-bottom-stim-border"" style=""background-image: url('./tasks/two-arm-new/img/green_stim_2.png')""></div><div id=""jspsych-space-daw-bottom-stim-middle"" ></div><div id=""jspsych-space-daw-bottom-stim-right"" style=""background-image: url('./tasks/two-arm-new/img/green_stim_1.png')""></div></div>","","","","","","","","","","","","","","","","","","","","","","","",""
"html-keyboard-response","57","118652","0.0-4.0-6.0-2.5","57bfc1beef05670001ee84c2","63690f60c96a0a9a64b48fbc","63691ee35f372d705b0c692b","null","","null","","","","","","","","<div style=""background-image: url('./tasks/two-arm-new/img/green_planet.png')""><div id=""jspsych-space-daw-top-stim-left"" style=""background-image: url('./tasks/two-arm-new/img/treasure.png')""></div><div id=""jspsych-space-daw-top-stim-middle"" ></div><div id=""jspsych-space-daw-top-stim-right"" ></div><div style=""clear:both""></div><div id=""jspsych-space-daw-bottom-stim-left"" class=""jspsych-space-daw-bottom-stim-border"" style=""background-image: url('./tasks/two-arm-new/img/green_stim_2.png')""></div><div id=""jspsych-space-daw-bottom-stim-middle"" ></div><div id=""jspsych-space-daw-bottom-stim-right"" style=""background-image: url('./tasks/two-arm-new/img/green_stim_1.png')""></div></div>","","","","","","","","","","","","","","","","","","","","","","","",""
"html-keyboard-response","58","119079","0.0-4.0-6.0-0.6","57bfc1beef05670001ee84c2","63690f60c96a0a9a64b48fbc","63691ee35f372d705b0c692b","424","","j","","","","","","","","<div style=""background-image: url('./tasks/two-arm-new/img/green_planet.png')""><div id=""jspsych-space-daw-top-stim-left"" ></div><div id=""jspsych-space-daw-top-stim-middle"" ></div><div id=""jspsych-space-daw-top-stim-right"" ></div><div style=""clear:both""></div><div id=""jspsych-space-daw-bottom-stim-left"" style=""background-image: url('./tasks/two-arm-new/img/green_stim_1.png')""></div><div id=""jspsych-space-daw-bottom-stim-middle"" ></div><div id=""jspsych-space-daw-bottom-stim-right"" style=""background-image: url('./tasks/two-arm-new/img/green_stim_2.png')""></div></div>","aliens_practice","6","green","2","1","","","","","","","","","","","","","","","","","","",""
"html-keyboard-response","59","119583","0.0-4.0-6.0-1.6","57bfc1beef05670001ee84c2","63690f60c96a0a9a64b48fbc","63691ee35f372d705b0c692b","null","","null","","","","","","","","<div style=""background-image: url('./tasks/two-arm-new/img/green_planet.png')""><div id=""jspsych-space-daw-top-stim-left"" ></div><div id=""jspsych-space-daw-top-stim-middle"" ></div><div id=""jspsych-space-daw-top-stim-right"" ></div><div style=""clear:both""></div><div id=""jspsych-space-daw-bottom-stim-left"" style=""background-image: url('./tasks/two-arm-new/img/green_stim_1.png')""></div><div id=""jspsych-space-daw-bottom-stim-middle"" ></div><div id=""jspsych-space-daw-bottom-stim-right"" class=""jspsych-space-daw-bottom-stim-border"" style=""background-image: url('./tasks/two-arm-new/img/green_stim_2.png')""></div></div>","","","","","","","","","","","","","","","","","","","","","","","",""
"html-keyboard-response","60","120598","0.0-4.0-6.0-2.6","57bfc1beef05670001ee84c2","63690f60c96a0a9a64b48fbc","63691ee35f372d705b0c692b","null","","null","","","","","","","","<div style=""background-image: url('./tasks/two-arm-new/img/green_planet.png')""><div id=""jspsych-space-daw-top-stim-left"" ></div><div id=""jspsych-space-daw-top-stim-middle"" ></div><div id=""jspsych-space-daw-top-stim-right"" style=""background-image: url('./tasks/two-arm-new/img/treasure.png')""></div><div style=""clear:both""></div><div id=""jspsych-space-daw-bottom-stim-left"" style=""background-image: url('./tasks/two-arm-new/img/green_stim_1.png')""></div><div id=""jspsych-space-daw-bottom-stim-middle"" ></div><div id=""jspsych-space-daw-bottom-stim-right"" class=""jspsych-space-daw-bottom-stim-border"" style=""background-image: url('./tasks/two-arm-new/img/green_stim_2.png')""></div></div>","","","","","","","","","","","","","","","","","","","","","","","",""
"html-keyboard-response","61","121045","0.0-4.0-6.0-0.7","57bfc1beef05670001ee84c2","63690f60c96a0a9a64b48fbc","63691ee35f372d705b0c692b","444","","f","","","","","","","","<div style=""background-image: url('./tasks/two-arm-new/img/green_planet.png')""><div id=""jspsych-space-daw-top-stim-left"" ></div><div id=""jspsych-space-daw-top-stim-middle"" ></div><div id=""jspsych-space-daw-top-stim-right"" ></div><div style=""clear:both""></div><div id=""jspsych-space-daw-bottom-stim-left"" style=""background-image: url('./tasks/two-arm-new/img/green_stim_2.png')""></div><div id=""jspsych-space-daw-bottom-stim-middle"" ></div><div id=""jspsych-space-daw-bottom-stim-right"" style=""background-image: url('./tasks/two-arm-new/img/green_stim_1.png')""></div></div>","aliens_practice","7","green","2","1","","","","","","","","","","","","","","","","","","",""
"html-keyboard-response","62","121563","0.0-4.0-6.0-1.7","57bfc1beef05670001ee84c2","63690f60c96a0a9a64b48fbc","63691ee35f372d705b0c692b","null","","null","","","","","","","","<div style=""background-image: url('./tasks/two-arm-new/img/green_planet.png')""><div id=""jspsych-space-daw-top-stim-left"" ></div><div id=""jspsych-space-daw-top-stim-middle"" ></div><div id=""jspsych-space-daw-top-stim-right"" ></div><div style=""clear:both""></div><div id=""jspsych-space-daw-bottom-stim-left"" class=""jspsych-space-daw-bottom-stim-border"" style=""background-image: url('./tasks/two-arm-new/img/green_stim_2.png')""></div><div id=""jspsych-space-daw-bottom-stim-middle"" ></div><div id=""jspsych-space-daw-bottom-stim-right"" style=""background-image: url('./tasks/two-arm-new/img/green_stim_1.png')""></div></div>","","","","","","","","","","","","","","","","","","","","","","","",""
"html-keyboard-response","63","122580","0.0-4.0-6.0-2.7","57bfc1beef05670001ee84c2","63690f60c96a0a9a64b48fbc","63691ee35f372d705b0c692b","null","","null","","","","","","","","<div style=""background-image: url('./tasks/two-arm-new/img/green_planet.png')""><div id=""jspsych-space-daw-top-stim-left"" style=""background-image: url('./tasks/two-arm-new/img/treasure.png')""></div><div id=""jspsych-space-daw-top-stim-middle"" ></div><div id=""jspsych-space-daw-top-stim-right"" ></div><div style=""clear:both""></div><div id=""jspsych-space-daw-bottom-stim-left"" class=""jspsych-space-daw-bottom-stim-border"" style=""background-image: url('./tasks/two-arm-new/img/green_stim_2.png')""></div><div id=""jspsych-space-daw-bottom-stim-middle"" ></div><div id=""jspsych-space-daw-bottom-stim-right"" style=""background-image: url('./tasks/two-arm-new/img/green_stim_1.png')""></div></div>","","","","","","","","","","","","","","","","","","","","","","","",""
"html-keyboard-response","64","123001","0.0-4.0-6.0-0.8","57bfc1beef05670001ee84c2","63690f60c96a0a9a64b48fbc","63691ee35f372d705b0c692b","418","","j","","","","","","","","<div style=""background-image: url('./tasks/two-arm-new/img/green_planet.png')""><div id=""jspsych-space-daw-top-stim-left"" ></div><div id=""jspsych-space-daw-top-stim-middle"" ></div><div id=""jspsych-space-daw-top-stim-right"" ></div><div style=""clear:both""></div><div id=""jspsych-space-daw-bottom-stim-left"" style=""background-image: url('./tasks/two-arm-new/img/green_stim_1.png')""></div><div id=""jspsych-space-daw-bottom-stim-middle"" ></div><div id=""jspsych-space-daw-bottom-stim-right"" style=""background-image: url('./tasks/two-arm-new/img/green_stim_2.png')""></div></div>","aliens_practice","8","green","2","1","","","","","","","","","","","","","","","","","","",""
"html-keyboard-response","65","123512","0.0-4.0-6.0-1.8","57bfc1beef05670001ee84c2","63690f60c96a0a9a64b48fbc","63691ee35f372d705b0c692b","null","","null","","","","","","","","<div style=""background-image: url('./tasks/two-arm-new/img/green_planet.png')""><div id=""jspsych-space-daw-top-stim-left"" ></div><div id=""jspsych-space-daw-top-stim-middle"" ></div><div id=""jspsych-space-daw-top-stim-right"" ></div><div style=""clear:both""></div><div id=""jspsych-space-daw-bottom-stim-left"" style=""background-image: url('./tasks/two-arm-new/img/green_stim_1.png')""></div><div id=""jspsych-space-daw-bottom-stim-middle"" ></div><div id=""jspsych-space-daw-bottom-stim-right"" class=""jspsych-space-daw-bottom-stim-border"" style=""background-image: url('./tasks/two-arm-new/img/green_stim_2.png')""></div></div>","","","","","","","","","","","","","","","","","","","","","","","",""
"html-keyboard-response","66","124527","0.0-4.0-6.0-2.8","57bfc1beef05670001ee84c2","63690f60c96a0a9a64b48fbc","63691ee35f372d705b0c692b","null","","null","","","","","","","","<div style=""background-image: url('./tasks/two-arm-new/img/green_planet.png')""><div id=""jspsych-space-daw-top-stim-left"" ></div><div id=""jspsych-space-daw-top-stim-middle"" ></div><div id=""jspsych-space-daw-top-stim-right"" style=""background-image: url('./tasks/two-arm-new/img/treasure.png')""></div><div style=""clear:both""></div><div id=""jspsych-space-daw-bottom-stim-left"" style=""background-image: url('./tasks/two-arm-new/img/green_stim_1.png')""></div><div id=""jspsych-space-daw-bottom-stim-middle"" ></div><div id=""jspsych-space-daw-bottom-stim-right"" class=""jspsych-space-daw-bottom-stim-border"" style=""background-image: url('./tasks/two-arm-new/img/green_stim_2.png')""></div></div>","","","","","","","","","","","","","","","","","","","","","","","",""
"html-keyboard-response","67","124916","0.0-4.0-6.0-0.9","57bfc1beef05670001ee84c2","63690f60c96a0a9a64b48fbc","63691ee35f372d705b0c692b","387","","f","","","","","","","","<div style=""background-image: url('./tasks/two-arm-new/img/green_planet.png')""><div id=""jspsych-space-daw-top-stim-left"" ></div><div id=""jspsych-space-daw-top-stim-middle"" ></div><div id=""jspsych-space-daw-top-stim-right"" ></div><div style=""clear:both""></div><div id=""jspsych-space-daw-bottom-stim-left"" style=""background-image: url('./tasks/two-arm-new/img/green_stim_2.png')""></div><div id=""jspsych-space-daw-bottom-stim-middle"" ></div><div id=""jspsych-space-daw-bottom-stim-right"" style=""background-image: url('./tasks/two-arm-new/img/green_stim_1.png')""></div></div>","aliens_practice","9","green","2","0","","","","","","","","","","","","","","","","","","",""
"html-keyboard-response","68","125425","0.0-4.0-6.0-1.9","57bfc1beef05670001ee84c2","63690f60c96a0a9a64b48fbc","63691ee35f372d705b0c692b","null","","null","","","","","","","","<div style=""background-image: url('./tasks/two-arm-new/img/green_planet.png')""><div id=""jspsych-space-daw-top-stim-left"" ></div><div id=""jspsych-space-daw-top-stim-middle"" ></div><div id=""jspsych-space-daw-top-stim-right"" ></div><div style=""clear:both""></div><div id=""jspsych-space-daw-bottom-stim-left"" class=""jspsych-space-daw-bottom-stim-border"" style=""background-image: url('./tasks/two-arm-new/img/green_stim_2.png')""></div><div id=""jspsych-space-daw-bottom-stim-middle"" ></div><div id=""jspsych-space-daw-bottom-stim-right"" style=""background-image: url('./tasks/two-arm-new/img/green_stim_1.png')""></div></div>","","","","","","","","","","","","","","","","","","","","","","","",""
"html-keyboard-response","69","126441","0.0-4.0-6.0-2.9","57bfc1beef05670001ee84c2","63690f60c96a0a9a64b48fbc","63691ee35f372d705b0c692b","null","","null","","","","","","","","<div style=""background-image: url('./tasks/two-arm-new/img/green_planet.png')""><div id=""jspsych-space-daw-top-stim-left"" style=""background-image: url('./tasks/two-arm-new/img/noreward.png')""></div><div id=""jspsych-space-daw-top-stim-middle"" ></div><div id=""jspsych-space-daw-top-stim-right"" ></div><div style=""clear:both""></div><div id=""jspsych-space-daw-bottom-stim-left"" class=""jspsych-space-daw-bottom-stim-border"" style=""background-image: url('./tasks/two-arm-new/img/green_stim_2_sad.png')""></div><div id=""jspsych-space-daw-bottom-stim-middle"" ></div><div id=""jspsych-space-daw-bottom-stim-right"" style=""background-image: url('./tasks/two-arm-new/img/green_stim_1.png')""></div></div>","","","","","","","","","","","","","","","","","","","","","","","",""
"html-keyboard-response","70","126870","0.0-4.0-6.0-0.10","57bfc1beef05670001ee84c2","63690f60c96a0a9a64b48fbc","63691ee35f372d705b0c692b","427","","j","","","","","","","","<div style=""background-image: url('./tasks/two-arm-new/img/green_planet.png')""><div id=""jspsych-space-daw-top-stim-left"" ></div><div id=""jspsych-space-daw-top-stim-middle"" ></div><div id=""jspsych-space-daw-top-stim-right"" ></div><div style=""clear:both""></div><div id=""jspsych-space-daw-bottom-stim-left"" style=""background-image: url('./tasks/two-arm-new/img/green_stim_1.png')""></div><div id=""jspsych-space-daw-bottom-stim-middle"" ></div><div id=""jspsych-space-daw-bottom-stim-right"" style=""background-image: url('./tasks/two-arm-new/img/green_stim_2.png')""></div></div>","aliens_practice","10","green","2","1","","","","","","","","","","","","","","","","","","",""
"html-keyboard-response","71","127375","0.0-4.0-6.0-1.10","57bfc1beef05670001ee84c2","63690f60c96a0a9a64b48fbc","63691ee35f372d705b0c692b","null","","null","","","","","","","","<div style=""background-image: url('./tasks/two-arm-new/img/green_planet.png')""><div id=""jspsych-space-daw-top-stim-left"" ></div><div id=""jspsych-space-daw-top-stim-middle"" ></div><div id=""jspsych-space-daw-top-stim-right"" ></div><div style=""clear:both""></div><div id=""jspsych-space-daw-bottom-stim-left"" style=""background-image: url('./tasks/two-arm-new/img/green_stim_1.png')""></div><div id=""jspsych-space-daw-bottom-stim-middle"" ></div><div id=""jspsych-space-daw-bottom-stim-right"" class=""jspsych-space-daw-bottom-stim-border"" style=""background-image: url('./tasks/two-arm-new/img/green_stim_2.png')""></div></div>","","","","","","","","","","","","","","","","","","","","","","","",""
"html-keyboard-response","72","128389","0.0-4.0-6.0-2.10","57bfc1beef05670001ee84c2","63690f60c96a0a9a64b48fbc","63691ee35f372d705b0c692b","null","","null","","","","","","","","<div style=""background-image: url('./tasks/two-arm-new/img/green_planet.png')""><div id=""jspsych-space-daw-top-stim-left"" ></div><div id=""jspsych-space-daw-top-stim-middle"" ></div><div id=""jspsych-space-daw-top-stim-right"" style=""background-image: url('./tasks/two-arm-new/img/treasure.png')""></div><div style=""clear:both""></div><div id=""jspsych-space-daw-bottom-stim-left"" style=""background-image: url('./tasks/two-arm-new/img/green_stim_1.png')""></div><div id=""jspsych-space-daw-bottom-stim-middle"" ></div><div id=""jspsych-space-daw-bottom-stim-right"" class=""jspsych-space-daw-bottom-stim-border"" style=""background-image: url('./tasks/two-arm-new/img/green_stim_2.png')""></div></div>","","","","","","","","","","","","","","","","","","","","","","","",""
"html-keyboard-response","73","128888","0.0-4.0-6.0-0.11","57bfc1beef05670001ee84c2","63690f60c96a0a9a64b48fbc","63691ee35f372d705b0c692b","496","","j","","","","","","","","<div style=""background-image: url('./tasks/two-arm-new/img/green_planet.png')""><div id=""jspsych-space-daw-top-stim-left"" ></div><div id=""jspsych-space-daw-top-stim-middle"" ></div><div id=""jspsych-space-daw-top-stim-right"" ></div><div style=""clear:both""></div><div id=""jspsych-space-daw-bottom-stim-left"" style=""background-image: url('./tasks/two-arm-new/img/green_stim_1.png')""></div><div id=""jspsych-space-daw-bottom-stim-middle"" ></div><div id=""jspsych-space-daw-bottom-stim-right"" style=""background-image: url('./tasks/two-arm-new/img/green_stim_2.png')""></div></div>","aliens_practice","11","green","2","0","","","","","","","","","","","","","","","","","","",""
"html-keyboard-response","74","129404","0.0-4.0-6.0-1.11","57bfc1beef05670001ee84c2","63690f60c96a0a9a64b48fbc","63691ee35f372d705b0c692b","null","","null","","","","","","","","<div style=""background-image: url('./tasks/two-arm-new/img/green_planet.png')""><div id=""jspsych-space-daw-top-stim-left"" ></div><div id=""jspsych-space-daw-top-stim-middle"" ></div><div id=""jspsych-space-daw-top-stim-right"" ></div><div style=""clear:both""></div><div id=""jspsych-space-daw-bottom-stim-left"" style=""background-image: url('./tasks/two-arm-new/img/green_stim_1.png')""></div><div id=""jspsych-space-daw-bottom-stim-middle"" ></div><div id=""jspsych-space-daw-bottom-stim-right"" class=""jspsych-space-daw-bottom-stim-border"" style=""background-image: url('./tasks/two-arm-new/img/green_stim_2.png')""></div></div>","","","","","","","","","","","","","","","","","","","","","","","",""
"html-keyboard-response","75","130420","0.0-4.0-6.0-2.11","57bfc1beef05670001ee84c2","63690f60c96a0a9a64b48fbc","63691ee35f372d705b0c692b","null","","null","","","","","","","","<div style=""background-image: url('./tasks/two-arm-new/img/green_planet.png')""><div id=""jspsych-space-daw-top-stim-left"" ></div><div id=""jspsych-space-daw-top-stim-middle"" ></div><div id=""jspsych-space-daw-top-stim-right"" style=""background-image: url('./tasks/two-arm-new/img/noreward.png')""></div><div style=""clear:both""></div><div id=""jspsych-space-daw-bottom-stim-left"" style=""background-image: url('./tasks/two-arm-new/img/green_stim_1.png')""></div><div id=""jspsych-space-daw-bottom-stim-middle"" ></div><div id=""jspsych-space-daw-bottom-stim-right"" class=""jspsych-space-daw-bottom-stim-border"" style=""background-image: url('./tasks/two-arm-new/img/green_stim_2_sad.png')""></div></div>","","","","","","","","","","","","","","","","","","","","","","","",""
"html-keyboard-response","76","130874","0.0-4.0-6.0-0.12","57bfc1beef05670001ee84c2","63690f60c96a0a9a64b48fbc","63691ee35f372d705b0c692b","451","","f","","","","","","","","<div style=""background-image: url('./tasks/two-arm-new/img/green_planet.png')""><div id=""jspsych-space-daw-top-stim-left"" ></div><div id=""jspsych-space-daw-top-stim-middle"" ></div><div id=""jspsych-space-daw-top-stim-right"" ></div><div style=""clear:both""></div><div id=""jspsych-space-daw-bottom-stim-left"" style=""background-image: url('./tasks/two-arm-new/img/green_stim_2.png')""></div><div id=""jspsych-space-daw-bottom-stim-middle"" ></div><div id=""jspsych-space-daw-bottom-stim-right"" style=""background-image: url('./tasks/two-arm-new/img/green_stim_1.png')""></div></div>","aliens_practice","12","green","2","1","","","","","","","","","","","","","","","","","","",""
"html-keyboard-response","77","131386","0.0-4.0-6.0-1.12","57bfc1beef05670001ee84c2","63690f60c96a0a9a64b48fbc","63691ee35f372d705b0c692b","null","","null","","","","","","","","<div style=""background-image: url('./tasks/two-arm-new/img/green_planet.png')""><div id=""jspsych-space-daw-top-stim-left"" ></div><div id=""jspsych-space-daw-top-stim-middle"" ></div><div id=""jspsych-space-daw-top-stim-right"" ></div><div style=""clear:both""></div><div id=""jspsych-space-daw-bottom-stim-left"" class=""jspsych-space-daw-bottom-stim-border"" style=""background-image: url('./tasks/two-arm-new/img/green_stim_2.png')""></div><div id=""jspsych-space-daw-bottom-stim-middle"" ></div><div id=""jspsych-space-daw-bottom-stim-right"" style=""background-image: url('./tasks/two-arm-new/img/green_stim_1.png')""></div></div>","","","","","","","","","","","","","","","","","","","","","","","",""
"html-keyboard-response","78","132401","0.0-4.0-6.0-2.12","57bfc1beef05670001ee84c2","63690f60c96a0a9a64b48fbc","63691ee35f372d705b0c692b","null","","null","","","","","","","","<div style=""background-image: url('./tasks/two-arm-new/img/green_planet.png')""><div id=""jspsych-space-daw-top-stim-left"" style=""background-image: url('./tasks/two-arm-new/img/treasure.png')""></div><div id=""jspsych-space-daw-top-stim-middle"" ></div><div id=""jspsych-space-daw-top-stim-right"" ></div><div style=""clear:both""></div><div id=""jspsych-space-daw-bottom-stim-left"" class=""jspsych-space-daw-bottom-stim-border"" style=""background-image: url('./tasks/two-arm-new/img/green_stim_2.png')""></div><div id=""jspsych-space-daw-bottom-stim-middle"" ></div><div id=""jspsych-space-daw-bottom-stim-right"" style=""background-image: url('./tasks/two-arm-new/img/green_stim_1.png')""></div></div>","","","","","","","","","","","","","","","","","","","","","","","",""
"html-keyboard-response","79","132869","0.0-4.0-6.0-0.13","57bfc1beef05670001ee84c2","63690f60c96a0a9a64b48fbc","63691ee35f372d705b0c692b","466","","f","","","","","","","","<div style=""background-image: url('./tasks/two-arm-new/img/green_planet.png')""><div id=""jspsych-space-daw-top-stim-left"" ></div><div id=""jspsych-space-daw-top-stim-middle"" ></div><div id=""jspsych-space-daw-top-stim-right"" ></div><div style=""clear:both""></div><div id=""jspsych-space-daw-bottom-stim-left"" style=""background-image: url('./tasks/two-arm-new/img/green_stim_2.png')""></div><div id=""jspsych-space-daw-bottom-stim-middle"" ></div><div id=""jspsych-space-daw-bottom-stim-right"" style=""background-image: url('./tasks/two-arm-new/img/green_stim_1.png')""></div></div>","aliens_practice","13","green","2","1","","","","","","","","","","","","","","","","","","",""
"html-keyboard-response","80","133384","0.0-4.0-6.0-1.13","57bfc1beef05670001ee84c2","63690f60c96a0a9a64b48fbc","63691ee35f372d705b0c692b","null","","null","","","","","","","","<div style=""background-image: url('./tasks/two-arm-new/img/green_planet.png')""><div id=""jspsych-space-daw-top-stim-left"" ></div><div id=""jspsych-space-daw-top-stim-middle"" ></div><div id=""jspsych-space-daw-top-stim-right"" ></div><div style=""clear:both""></div><div id=""jspsych-space-daw-bottom-stim-left"" class=""jspsych-space-daw-bottom-stim-border"" style=""background-image: url('./tasks/two-arm-new/img/green_stim_2.png')""></div><div id=""jspsych-space-daw-bottom-stim-middle"" ></div><div id=""jspsych-space-daw-bottom-stim-right"" style=""background-image: url('./tasks/two-arm-new/img/green_stim_1.png')""></div></div>","","","","","","","","","","","","","","","","","","","","","","","",""
"html-keyboard-response","81","134400","0.0-4.0-6.0-2.13","57bfc1beef05670001ee84c2","63690f60c96a0a9a64b48fbc","63691ee35f372d705b0c692b","null","","null","","","","","","","","<div style=""background-image: url('./tasks/two-arm-new/img/green_planet.png')""><div id=""jspsych-space-daw-top-stim-left"" style=""background-image: url('./tasks/two-arm-new/img/treasure.png')""></div><div id=""jspsych-space-daw-top-stim-middle"" ></div><div id=""jspsych-space-daw-top-stim-right"" ></div><div style=""clear:both""></div><div id=""jspsych-space-daw-bottom-stim-left"" class=""jspsych-space-daw-bottom-stim-border"" style=""background-image: url('./tasks/two-arm-new/img/green_stim_2.png')""></div><div id=""jspsych-space-daw-bottom-stim-middle"" ></div><div id=""jspsych-space-daw-bottom-stim-right"" style=""background-image: url('./tasks/two-arm-new/img/green_stim_1.png')""></div></div>","","","","","","","","","","","","","","","","","","","","","","","",""
"html-keyboard-response","82","134796","0.0-4.0-6.0-0.14","57bfc1beef05670001ee84c2","63690f60c96a0a9a64b48fbc","63691ee35f372d705b0c692b","394","","f","","","","","","","","<div style=""background-image: url('./tasks/two-arm-new/img/green_planet.png')""><div id=""jspsych-space-daw-top-stim-left"" ></div><div id=""jspsych-space-daw-top-stim-middle"" ></div><div id=""jspsych-space-daw-top-stim-right"" ></div><div style=""clear:both""></div><div id=""jspsych-space-daw-bottom-stim-left"" style=""background-image: url('./tasks/two-arm-new/img/green_stim_2.png')""></div><div id=""jspsych-space-daw-bottom-stim-middle"" ></div><div id=""jspsych-space-daw-bottom-stim-right"" style=""background-image: url('./tasks/two-arm-new/img/green_stim_1.png')""></div></div>","aliens_practice","14","green","2","1","","","","","","","","","","","","","","","","","","",""
"html-keyboard-response","83","135314","0.0-4.0-6.0-1.14","57bfc1beef05670001ee84c2","63690f60c96a0a9a64b48fbc","63691ee35f372d705b0c692b","null","","null","","","","","","","","<div style=""background-image: url('./tasks/two-arm-new/img/green_planet.png')""><div id=""jspsych-space-daw-top-stim-left"" ></div><div id=""jspsych-space-daw-top-stim-middle"" ></div><div id=""jspsych-space-daw-top-stim-right"" ></div><div style=""clear:both""></div><div id=""jspsych-space-daw-bottom-stim-left"" class=""jspsych-space-daw-bottom-stim-border"" style=""background-image: url('./tasks/two-arm-new/img/green_stim_2.png')""></div><div id=""jspsych-space-daw-bottom-stim-middle"" ></div><div id=""jspsych-space-daw-bottom-stim-right"" style=""background-image: url('./tasks/two-arm-new/img/green_stim_1.png')""></div></div>","","","","","","","","","","","","","","","","","","","","","","","",""
"html-keyboard-response","84","136330","0.0-4.0-6.0-2.14","57bfc1beef05670001ee84c2","63690f60c96a0a9a64b48fbc","63691ee35f372d705b0c692b","null","","null","","","","","","","","<div style=""background-image: url('./tasks/two-arm-new/img/green_planet.png')""><div id=""jspsych-space-daw-top-stim-left"" style=""background-image: url('./tasks/two-arm-new/img/treasure.png')""></div><div id=""jspsych-space-daw-top-stim-middle"" ></div><div id=""jspsych-space-daw-top-stim-right"" ></div><div style=""clear:both""></div><div id=""jspsych-space-daw-bottom-stim-left"" class=""jspsych-space-daw-bottom-stim-border"" style=""background-image: url('./tasks/two-arm-new/img/green_stim_2.png')""></div><div id=""jspsych-space-daw-bottom-stim-middle"" ></div><div id=""jspsych-space-daw-bottom-stim-right"" style=""background-image: url('./tasks/two-arm-new/img/green_stim_1.png')""></div></div>","","","","","","","","","","","","","","","","","","","","","","","",""
"html-keyboard-response","85","137044","0.0-4.0-6.0-0.15","57bfc1beef05670001ee84c2","63690f60c96a0a9a64b48fbc","63691ee35f372d705b0c692b","711","","j","","","","","","","","<div style=""background-image: url('./tasks/two-arm-new/img/green_planet.png')""><div id=""jspsych-space-daw-top-stim-left"" ></div><div id=""jspsych-space-daw-top-stim-middle"" ></div><div id=""jspsych-space-daw-top-stim-right"" ></div><div style=""clear:both""></div><div id=""jspsych-space-daw-bottom-stim-left"" style=""background-image: url('./tasks/two-arm-new/img/green_stim_1.png')""></div><div id=""jspsych-space-daw-bottom-stim-middle"" ></div><div id=""jspsych-space-daw-bottom-stim-right"" style=""background-image: url('./tasks/two-arm-new/img/green_stim_2.png')""></div></div>","aliens_practice","15","green","2","0","","","","","","","","","","","","","","","","","","",""
"html-keyboard-response","86","137561","0.0-4.0-6.0-1.15","57bfc1beef05670001ee84c2","63690f60c96a0a9a64b48fbc","63691ee35f372d705b0c692b","null","","null","","","","","","","","<div style=""background-image: url('./tasks/two-arm-new/img/green_planet.png')""><div id=""jspsych-space-daw-top-stim-left"" ></div><div id=""jspsych-space-daw-top-stim-middle"" ></div><div id=""jspsych-space-daw-top-stim-right"" ></div><div style=""clear:both""></div><div id=""jspsych-space-daw-bottom-stim-left"" style=""background-image: url('./tasks/two-arm-new/img/green_stim_1.png')""></div><div id=""jspsych-space-daw-bottom-stim-middle"" ></div><div id=""jspsych-space-daw-bottom-stim-right"" class=""jspsych-space-daw-bottom-stim-border"" style=""background-image: url('./tasks/two-arm-new/img/green_stim_2.png')""></div></div>","","","","","","","","","","","","","","","","","","","","","","","",""
"html-keyboard-response","87","138577","0.0-4.0-6.0-2.15","57bfc1beef05670001ee84c2","63690f60c96a0a9a64b48fbc","63691ee35f372d705b0c692b","null","","null","","","","","","","","<div style=""background-image: url('./tasks/two-arm-new/img/green_planet.png')""><div id=""jspsych-space-daw-top-stim-left"" ></div><div id=""jspsych-space-daw-top-stim-middle"" ></div><div id=""jspsych-space-daw-top-stim-right"" style=""background-image: url('./tasks/two-arm-new/img/noreward.png')""></div><div style=""clear:both""></div><div id=""jspsych-space-daw-bottom-stim-left"" style=""background-image: url('./tasks/two-arm-new/img/green_stim_1.png')""></div><div id=""jspsych-space-daw-bottom-stim-middle"" ></div><div id=""jspsych-space-daw-bottom-stim-right"" class=""jspsych-space-daw-bottom-stim-border"" style=""background-image: url('./tasks/two-arm-new/img/green_stim_2_sad.png')""></div></div>","","","","","","","","","","","","","","","","","","","","","","","",""
"html-keyboard-response","88","138994","0.0-4.0-6.0-0.16","57bfc1beef05670001ee84c2","63690f60c96a0a9a64b48fbc","63691ee35f372d705b0c692b","414","","j","","","","","","","","<div style=""background-image: url('./tasks/two-arm-new/img/green_planet.png')""><div id=""jspsych-space-daw-top-stim-left"" ></div><div id=""jspsych-space-daw-top-stim-middle"" ></div><div id=""jspsych-space-daw-top-stim-right"" ></div><div style=""clear:both""></div><div id=""jspsych-space-daw-bottom-stim-left"" style=""background-image: url('./tasks/two-arm-new/img/green_stim_1.png')""></div><div id=""jspsych-space-daw-bottom-stim-middle"" ></div><div id=""jspsych-space-daw-bottom-stim-right"" style=""background-image: url('./tasks/two-arm-new/img/green_stim_2.png')""></div></div>","aliens_practice","16","green","2","1","","","","","","","","","","","","","","","","","","",""
"html-keyboard-response","89","139510","0.0-4.0-6.0-1.16","57bfc1beef05670001ee84c2","63690f60c96a0a9a64b48fbc","63691ee35f372d705b0c692b","null","","null","","","","","","","","<div style=""background-image: url('./tasks/two-arm-new/img/green_planet.png')""><div id=""jspsych-space-daw-top-stim-left"" ></div><div id=""jspsych-space-daw-top-stim-middle"" ></div><div id=""jspsych-space-daw-top-stim-right"" ></div><div style=""clear:both""></div><div id=""jspsych-space-daw-bottom-stim-left"" style=""background-image: url('./tasks/two-arm-new/img/green_stim_1.png')""></div><div id=""jspsych-space-daw-bottom-stim-middle"" ></div><div id=""jspsych-space-daw-bottom-stim-right"" class=""jspsych-space-daw-bottom-stim-border"" style=""background-image: url('./tasks/two-arm-new/img/green_stim_2.png')""></div></div>","","","","","","","","","","","","","","","","","","","","","","","",""
"html-keyboard-response","90","140525","0.0-4.0-6.0-2.16","57bfc1beef05670001ee84c2","63690f60c96a0a9a64b48fbc","63691ee35f372d705b0c692b","null","","null","","","","","","","","<div style=""background-image: url('./tasks/two-arm-new/img/green_planet.png')""><div id=""jspsych-space-daw-top-stim-left"" ></div><div id=""jspsych-space-daw-top-stim-middle"" ></div><div id=""jspsych-space-daw-top-stim-right"" style=""background-image: url('./tasks/two-arm-new/img/treasure.png')""></div><div style=""clear:both""></div><div id=""jspsych-space-daw-bottom-stim-left"" style=""background-image: url('./tasks/two-arm-new/img/green_stim_1.png')""></div><div id=""jspsych-space-daw-bottom-stim-middle"" ></div><div id=""jspsych-space-daw-bottom-stim-right"" class=""jspsych-space-daw-bottom-stim-border"" style=""background-image: url('./tasks/two-arm-new/img/green_stim_2.png')""></div></div>","","","","","","","","","","","","","","","","","","","","","","","",""
"html-keyboard-response","91","140936","0.0-4.0-6.0-0.17","57bfc1beef05670001ee84c2","63690f60c96a0a9a64b48fbc","63691ee35f372d705b0c692b","409","","j","","","","","","","","<div style=""background-image: url('./tasks/two-arm-new/img/green_planet.png')""><div id=""jspsych-space-daw-top-stim-left"" ></div><div id=""jspsych-space-daw-top-stim-middle"" ></div><div id=""jspsych-space-daw-top-stim-right"" ></div><div style=""clear:both""></div><div id=""jspsych-space-daw-bottom-stim-left"" style=""background-image: url('./tasks/two-arm-new/img/green_stim_1.png')""></div><div id=""jspsych-space-daw-bottom-stim-middle"" ></div><div id=""jspsych-space-daw-bottom-stim-right"" style=""background-image: url('./tasks/two-arm-new/img/green_stim_2.png')""></div></div>","aliens_practice","17","green","2","1","","","","","","","","","","","","","","","","","","",""
"html-keyboard-response","92","141441","0.0-4.0-6.0-1.17","57bfc1beef05670001ee84c2","63690f60c96a0a9a64b48fbc","63691ee35f372d705b0c692b","null","","null","","","","","","","","<div style=""background-image: url('./tasks/two-arm-new/img/green_planet.png')""><div id=""jspsych-space-daw-top-stim-left"" ></div><div id=""jspsych-space-daw-top-stim-middle"" ></div><div id=""jspsych-space-daw-top-stim-right"" ></div><div style=""clear:both""></div><div id=""jspsych-space-daw-bottom-stim-left"" style=""background-image: url('./tasks/two-arm-new/img/green_stim_1.png')""></div><div id=""jspsych-space-daw-bottom-stim-middle"" ></div><div id=""jspsych-space-daw-bottom-stim-right"" class=""jspsych-space-daw-bottom-stim-border"" style=""background-image: url('./tasks/two-arm-new/img/green_stim_2.png')""></div></div>","","","","","","","","","","","","","","","","","","","","","","","",""
"html-keyboard-response","93","142456","0.0-4.0-6.0-2.17","57bfc1beef05670001ee84c2","63690f60c96a0a9a64b48fbc","63691ee35f372d705b0c692b","null","","null","","","","","","","","<div style=""background-image: url('./tasks/two-arm-new/img/green_planet.png')""><div id=""jspsych-space-daw-top-stim-left"" ></div><div id=""jspsych-space-daw-top-stim-middle"" ></div><div id=""jspsych-space-daw-top-stim-right"" style=""background-image: url('./tasks/two-arm-new/img/treasure.png')""></div><div style=""clear:both""></div><div id=""jspsych-space-daw-bottom-stim-left"" style=""background-image: url('./tasks/two-arm-new/img/green_stim_1.png')""></div><div id=""jspsych-space-daw-bottom-stim-middle"" ></div><div id=""jspsych-space-daw-bottom-stim-right"" class=""jspsych-space-daw-bottom-stim-border"" style=""background-image: url('./tasks/two-arm-new/img/green_stim_2.png')""></div></div>","","","","","","","","","","","","","","","","","","","","","","","",""
"html-keyboard-response","94","142921","0.0-4.0-6.0-0.18","57bfc1beef05670001ee84c2","63690f60c96a0a9a64b48fbc","63691ee35f372d705b0c692b","462","","j","","","","","","","","<div style=""background-image: url('./tasks/two-arm-new/img/green_planet.png')""><div id=""jspsych-space-daw-top-stim-left"" ></div><div id=""jspsych-space-daw-top-stim-middle"" ></div><div id=""jspsych-space-daw-top-stim-right"" ></div><div style=""clear:both""></div><div id=""jspsych-space-daw-bottom-stim-left"" style=""background-image: url('./tasks/two-arm-new/img/green_stim_1.png')""></div><div id=""jspsych-space-daw-bottom-stim-middle"" ></div><div id=""jspsych-space-daw-bottom-stim-right"" style=""background-image: url('./tasks/two-arm-new/img/green_stim_2.png')""></div></div>","aliens_practice","18","green","2","1","","","","","","","","","","","","","","","","","","",""
"html-keyboard-response","95","143438","0.0-4.0-6.0-1.18","57bfc1beef05670001ee84c2","63690f60c96a0a9a64b48fbc","63691ee35f372d705b0c692b","null","","null","","","","","","","","<div style=""background-image: url('./tasks/two-arm-new/img/green_planet.png')""><div id=""jspsych-space-daw-top-stim-left"" ></div><div id=""jspsych-space-daw-top-stim-middle"" ></div><div id=""jspsych-space-daw-top-stim-right"" ></div><div style=""clear:both""></div><div id=""jspsych-space-daw-bottom-stim-left"" style=""background-image: url('./tasks/two-arm-new/img/green_stim_1.png')""></div><div id=""jspsych-space-daw-bottom-stim-middle"" ></div><div id=""jspsych-space-daw-bottom-stim-right"" class=""jspsych-space-daw-bottom-stim-border"" style=""background-image: url('./tasks/two-arm-new/img/green_stim_2.png')""></div></div>","","","","","","","","","","","","","","","","","","","","","","","",""
"html-keyboard-response","96","144449","0.0-4.0-6.0-2.18","57bfc1beef05670001ee84c2","63690f60c96a0a9a64b48fbc","63691ee35f372d705b0c692b","null","","null","","","","","","","","<div style=""background-image: url('./tasks/two-arm-new/img/green_planet.png')""><div id=""jspsych-space-daw-top-stim-left"" ></div><div id=""jspsych-space-daw-top-stim-middle"" ></div><div id=""jspsych-space-daw-top-stim-right"" style=""background-image: url('./tasks/two-arm-new/img/treasure.png')""></div><div style=""clear:both""></div><div id=""jspsych-space-daw-bottom-stim-left"" style=""background-image: url('./tasks/two-arm-new/img/green_stim_1.png')""></div><div id=""jspsych-space-daw-bottom-stim-middle"" ></div><div id=""jspsych-space-daw-bottom-stim-right"" class=""jspsych-space-daw-bottom-stim-border"" style=""background-image: url('./tasks/two-arm-new/img/green_stim_2.png')""></div></div>","","","","","","","","","","","","","","","","","","","","","","","",""
"html-keyboard-response","97","144868","0.0-4.0-6.0-0.19","57bfc1beef05670001ee84c2","63690f60c96a0a9a64b48fbc","63691ee35f372d705b0c692b","416","","f","","","","","","","","<div style=""background-image: url('./tasks/two-arm-new/img/green_planet.png')""><div id=""jspsych-space-daw-top-stim-left"" ></div><div id=""jspsych-space-daw-top-stim-middle"" ></div><div id=""jspsych-space-daw-top-stim-right"" ></div><div style=""clear:both""></div><div id=""jspsych-space-daw-bottom-stim-left"" style=""background-image: url('./tasks/two-arm-new/img/green_stim_2.png')""></div><div id=""jspsych-space-daw-bottom-stim-middle"" ></div><div id=""jspsych-space-daw-bottom-stim-right"" style=""background-image: url('./tasks/two-arm-new/img/green_stim_1.png')""></div></div>","aliens_practice","19","green","2","1","","","","","","","","","","","","","","","","","","",""
"html-keyboard-response","98","145386","0.0-4.0-6.0-1.19","57bfc1beef05670001ee84c2","63690f60c96a0a9a64b48fbc","63691ee35f372d705b0c692b","null","","null","","","","","","","","<div style=""background-image: url('./tasks/two-arm-new/img/green_planet.png')""><div id=""jspsych-space-daw-top-stim-left"" ></div><div id=""jspsych-space-daw-top-stim-middle"" ></div><div id=""jspsych-space-daw-top-stim-right"" ></div><div style=""clear:both""></div><div id=""jspsych-space-daw-bottom-stim-left"" class=""jspsych-space-daw-bottom-stim-border"" style=""background-image: url('./tasks/two-arm-new/img/green_stim_2.png')""></div><div id=""jspsych-space-daw-bottom-stim-middle"" ></div><div id=""jspsych-space-daw-bottom-stim-right"" style=""background-image: url('./tasks/two-arm-new/img/green_stim_1.png')""></div></div>","","","","","","","","","","","","","","","","","","","","","","","",""
"html-keyboard-response","99","146402","0.0-4.0-6.0-2.19","57bfc1beef05670001ee84c2","63690f60c96a0a9a64b48fbc","63691ee35f372d705b0c692b","null","","null","","","","","","","","<div style=""background-image: url('./tasks/two-arm-new/img/green_planet.png')""><div id=""jspsych-space-daw-top-stim-left"" style=""background-image: url('./tasks/two-arm-new/img/treasure.png')""></div><div id=""jspsych-space-daw-top-stim-middle"" ></div><div id=""jspsych-space-daw-top-stim-right"" ></div><div style=""clear:both""></div><div id=""jspsych-space-daw-bottom-stim-left"" class=""jspsych-space-daw-bottom-stim-border"" style=""background-image: url('./tasks/two-arm-new/img/green_stim_2.png')""></div><div id=""jspsych-space-daw-bottom-stim-middle"" ></div><div id=""jspsych-space-daw-bottom-stim-right"" style=""background-image: url('./tasks/two-arm-new/img/green_stim_1.png')""></div></div>","","","","","","","","","","","","","","","","","","","","","","","",""
"html-keyboard-response","100","146803","0.0-4.0-6.0-0.20","57bfc1beef05670001ee84c2","63690f60c96a0a9a64b48fbc","63691ee35f372d705b0c692b","397","","f","","","","","","","","<div style=""background-image: url('./tasks/two-arm-new/img/green_planet.png')""><div id=""jspsych-space-daw-top-stim-left"" ></div><div id=""jspsych-space-daw-top-stim-middle"" ></div><div id=""jspsych-space-daw-top-stim-right"" ></div><div style=""clear:both""></div><div id=""jspsych-space-daw-bottom-stim-left"" style=""background-image: url('./tasks/two-arm-new/img/green_stim_2.png')""></div><div id=""jspsych-space-daw-bottom-stim-middle"" ></div><div id=""jspsych-space-daw-bottom-stim-right"" style=""background-image: url('./tasks/two-arm-new/img/green_stim_1.png')""></div></div>","aliens_practice","20","green","2","1","","","","","","","","","","","","","","","","","","",""
"html-keyboard-response","101","147317","0.0-4.0-6.0-1.20","57bfc1beef05670001ee84c2","63690f60c96a0a9a64b48fbc","63691ee35f372d705b0c692b","null","","null","","","","","","","","<div style=""background-image: url('./tasks/two-arm-new/img/green_planet.png')""><div id=""jspsych-space-daw-top-stim-left"" ></div><div id=""jspsych-space-daw-top-stim-middle"" ></div><div id=""jspsych-space-daw-top-stim-right"" ></div><div style=""clear:both""></div><div id=""jspsych-space-daw-bottom-stim-left"" class=""jspsych-space-daw-bottom-stim-border"" style=""background-image: url('./tasks/two-arm-new/img/green_stim_2.png')""></div><div id=""jspsych-space-daw-bottom-stim-middle"" ></div><div id=""jspsych-space-daw-bottom-stim-right"" style=""background-image: url('./tasks/two-arm-new/img/green_stim_1.png')""></div></div>","","","","","","","","","","","","","","","","","","","","","","","",""
"html-keyboard-response","102","148334","0.0-4.0-6.0-2.20","57bfc1beef05670001ee84c2","63690f60c96a0a9a64b48fbc","63691ee35f372d705b0c692b","null","","null","","","","","","","","<div style=""background-image: url('./tasks/two-arm-new/img/green_planet.png')""><div id=""jspsych-space-daw-top-stim-left"" style=""background-image: url('./tasks/two-arm-new/img/treasure.png')""></div><div id=""jspsych-space-daw-top-stim-middle"" ></div><div id=""jspsych-space-daw-top-stim-right"" ></div><div style=""clear:both""></div><div id=""jspsych-space-daw-bottom-stim-left"" class=""jspsych-space-daw-bottom-stim-border"" style=""background-image: url('./tasks/two-arm-new/img/green_stim_2.png')""></div><div id=""jspsych-space-daw-bottom-stim-middle"" ></div><div id=""jspsych-space-daw-bottom-stim-right"" style=""background-image: url('./tasks/two-arm-new/img/green_stim_1.png')""></div></div>","","","","","","","","","","","","","","","","","","","","","","","",""
"html-keyboard-response","103","148752","0.0-4.0-6.0-0.21","57bfc1beef05670001ee84c2","63690f60c96a0a9a64b48fbc","63691ee35f372d705b0c692b","415","","f","","","","","","","","<div style=""background-image: url('./tasks/two-arm-new/img/green_planet.png')""><div id=""jspsych-space-daw-top-stim-left"" ></div><div id=""jspsych-space-daw-top-stim-middle"" ></div><div id=""jspsych-space-daw-top-stim-right"" ></div><div style=""clear:both""></div><div id=""jspsych-space-daw-bottom-stim-left"" style=""background-image: url('./tasks/two-arm-new/img/green_stim_2.png')""></div><div id=""jspsych-space-daw-bottom-stim-middle"" ></div><div id=""jspsych-space-daw-bottom-stim-right"" style=""background-image: url('./tasks/two-arm-new/img/green_stim_1.png')""></div></div>","aliens_practice","21","green","2","1","","","","","","","","","","","","","","","","","","",""
"html-keyboard-response","104","149265","0.0-4.0-6.0-1.21","57bfc1beef05670001ee84c2","63690f60c96a0a9a64b48fbc","63691ee35f372d705b0c692b","null","","null","","","","","","","","<div style=""background-image: url('./tasks/two-arm-new/img/green_planet.png')""><div id=""jspsych-space-daw-top-stim-left"" ></div><div id=""jspsych-space-daw-top-stim-middle"" ></div><div id=""jspsych-space-daw-top-stim-right"" ></div><div style=""clear:both""></div><div id=""jspsych-space-daw-bottom-stim-left"" class=""jspsych-space-daw-bottom-stim-border"" style=""background-image: url('./tasks/two-arm-new/img/green_stim_2.png')""></div><div id=""jspsych-space-daw-bottom-stim-middle"" ></div><div id=""jspsych-space-daw-bottom-stim-right"" style=""background-image: url('./tasks/two-arm-new/img/green_stim_1.png')""></div></div>","","","","","","","","","","","","","","","","","","","","","","","",""
"html-keyboard-response","105","150281","0.0-4.0-6.0-2.21","57bfc1beef05670001ee84c2","63690f60c96a0a9a64b48fbc","63691ee35f372d705b0c692b","null","","null","","","","","","","","<div style=""background-image: url('./tasks/two-arm-new/img/green_planet.png')""><div id=""jspsych-space-daw-top-stim-left"" style=""background-image: url('./tasks/two-arm-new/img/treasure.png')""></div><div id=""jspsych-space-daw-top-stim-middle"" ></div><div id=""jspsych-space-daw-top-stim-right"" ></div><div style=""clear:both""></div><div id=""jspsych-space-daw-bottom-stim-left"" class=""jspsych-space-daw-bottom-stim-border"" style=""background-image: url('./tasks/two-arm-new/img/green_stim_2.png')""></div><div id=""jspsych-space-daw-bottom-stim-middle"" ></div><div id=""jspsych-space-daw-bottom-stim-right"" style=""background-image: url('./tasks/two-arm-new/img/green_stim_1.png')""></div></div>","","","","","","","","","","","","","","","","","","","","","","","",""
"html-keyboard-response","106","150648","0.0-4.0-6.0-0.22","57bfc1beef05670001ee84c2","63690f60c96a0a9a64b48fbc","63691ee35f372d705b0c692b","365","","f","","","","","","","","<div style=""background-image: url('./tasks/two-arm-new/img/green_planet.png')""><div id=""jspsych-space-daw-top-stim-left"" ></div><div id=""jspsych-space-daw-top-stim-middle"" ></div><div id=""jspsych-space-daw-top-stim-right"" ></div><div style=""clear:both""></div><div id=""jspsych-space-daw-bottom-stim-left"" style=""background-image: url('./tasks/two-arm-new/img/green_stim_1.png')""></div><div id=""jspsych-space-daw-bottom-stim-middle"" ></div><div id=""jspsych-space-daw-bottom-stim-right"" style=""background-image: url('./tasks/two-arm-new/img/green_stim_2.png')""></div></div>","aliens_practice","22","green","1","0","","","","","","","","","","","","","","","","","","",""
"html-keyboard-response","107","151163","0.0-4.0-6.0-1.22","57bfc1beef05670001ee84c2","63690f60c96a0a9a64b48fbc","63691ee35f372d705b0c692b","null","","null","","","","","","","","<div style=""background-image: url('./tasks/two-arm-new/img/green_planet.png')""><div id=""jspsych-space-daw-top-stim-left"" ></div><div id=""jspsych-space-daw-top-stim-middle"" ></div><div id=""jspsych-space-daw-top-stim-right"" ></div><div style=""clear:both""></div><div id=""jspsych-space-daw-bottom-stim-left"" class=""jspsych-space-daw-bottom-stim-border"" style=""background-image: url('./tasks/two-arm-new/img/green_stim_1.png')""></div><div id=""jspsych-space-daw-bottom-stim-middle"" ></div><div id=""jspsych-space-daw-bottom-stim-right"" style=""background-image: url('./tasks/two-arm-new/img/green_stim_2.png')""></div></div>","","","","","","","","","","","","","","","","","","","","","","","",""
"html-keyboard-response","108","152178","0.0-4.0-6.0-2.22","57bfc1beef05670001ee84c2","63690f60c96a0a9a64b48fbc","63691ee35f372d705b0c692b","null","","null","","","","","","","","<div style=""background-image: url('./tasks/two-arm-new/img/green_planet.png')""><div id=""jspsych-space-daw-top-stim-left"" style=""background-image: url('./tasks/two-arm-new/img/noreward.png')""></div><div id=""jspsych-space-daw-top-stim-middle"" ></div><div id=""jspsych-space-daw-top-stim-right"" ></div><div style=""clear:both""></div><div id=""jspsych-space-daw-bottom-stim-left"" class=""jspsych-space-daw-bottom-stim-border"" style=""background-image: url('./tasks/two-arm-new/img/green_stim_1_sad.png')""></div><div id=""jspsych-space-daw-bottom-stim-middle"" ></div><div id=""jspsych-space-daw-bottom-stim-right"" style=""background-image: url('./tasks/two-arm-new/img/green_stim_2.png')""></div></div>","","","","","","","","","","","","","","","","","","","","","","","",""
"html-keyboard-response","109","152634","0.0-4.0-6.0-0.23","57bfc1beef05670001ee84c2","63690f60c96a0a9a64b48fbc","63691ee35f372d705b0c692b","453","","j","","","","","","","","<div style=""background-image: url('./tasks/two-arm-new/img/green_planet.png')""><div id=""jspsych-space-daw-top-stim-left"" ></div><div id=""jspsych-space-daw-top-stim-middle"" ></div><div id=""jspsych-space-daw-top-stim-right"" ></div><div style=""clear:both""></div><div id=""jspsych-space-daw-bottom-stim-left"" style=""background-image: url('./tasks/two-arm-new/img/green_stim_1.png')""></div><div id=""jspsych-space-daw-bottom-stim-middle"" ></div><div id=""jspsych-space-daw-bottom-stim-right"" style=""background-image: url('./tasks/two-arm-new/img/green_stim_2.png')""></div></div>","aliens_practice","23","green","2","1","","","","","","","","","","","","","","","","","","",""
"html-keyboard-response","110","153144","0.0-4.0-6.0-1.23","57bfc1beef05670001ee84c2","63690f60c96a0a9a64b48fbc","63691ee35f372d705b0c692b","null","","null","","","","","","","","<div style=""background-image: url('./tasks/two-arm-new/img/green_planet.png')""><div id=""jspsych-space-daw-top-stim-left"" ></div><div id=""jspsych-space-daw-top-stim-middle"" ></div><div id=""jspsych-space-daw-top-stim-right"" ></div><div style=""clear:both""></div><div id=""jspsych-space-daw-bottom-stim-left"" style=""background-image: url('./tasks/two-arm-new/img/green_stim_1.png')""></div><div id=""jspsych-space-daw-bottom-stim-middle"" ></div><div id=""jspsych-space-daw-bottom-stim-right"" class=""jspsych-space-daw-bottom-stim-border"" style=""background-image: url('./tasks/two-arm-new/img/green_stim_2.png')""></div></div>","","","","","","","","","","","","","","","","","","","","","","","",""
"html-keyboard-response","111","154159","0.0-4.0-6.0-2.23","57bfc1beef05670001ee84c2","63690f60c96a0a9a64b48fbc","63691ee35f372d705b0c692b","null","","null","","","","","","","","<div style=""background-image: url('./tasks/two-arm-new/img/green_planet.png')""><div id=""jspsych-space-daw-top-stim-left"" ></div><div id=""jspsych-space-daw-top-stim-middle"" ></div><div id=""jspsych-space-daw-top-stim-right"" style=""background-image: url('./tasks/two-arm-new/img/treasure.png')""></div><div style=""clear:both""></div><div id=""jspsych-space-daw-bottom-stim-left"" style=""background-image: url('./tasks/two-arm-new/img/green_stim_1.png')""></div><div id=""jspsych-space-daw-bottom-stim-middle"" ></div><div id=""jspsych-space-daw-bottom-stim-right"" class=""jspsych-space-daw-bottom-stim-border"" style=""background-image: url('./tasks/two-arm-new/img/green_stim_2.png')""></div></div>","","","","","","","","","","","","","","","","","","","","","","","",""
"html-keyboard-response","112","154691","0.0-4.0-6.0-0.24","57bfc1beef05670001ee84c2","63690f60c96a0a9a64b48fbc","63691ee35f372d705b0c692b","530","","j","","","","","","","","<div style=""background-image: url('./tasks/two-arm-new/img/green_planet.png')""><div id=""jspsych-space-daw-top-stim-left"" ></div><div id=""jspsych-space-daw-top-stim-middle"" ></div><div id=""jspsych-space-daw-top-stim-right"" ></div><div style=""clear:both""></div><div id=""jspsych-space-daw-bottom-stim-left"" style=""background-image: url('./tasks/two-arm-new/img/green_stim_1.png')""></div><div id=""jspsych-space-daw-bottom-stim-middle"" ></div><div id=""jspsych-space-daw-bottom-stim-right"" style=""background-image: url('./tasks/two-arm-new/img/green_stim_2.png')""></div></div>","aliens_practice","24","green","2","1","","","","","","","","","","","","","","","","","","",""
"html-keyboard-response","113","155207","0.0-4.0-6.0-1.24","57bfc1beef05670001ee84c2","63690f60c96a0a9a64b48fbc","63691ee35f372d705b0c692b","null","","null","","","","","","","","<div style=""background-image: url('./tasks/two-arm-new/img/green_planet.png')""><div id=""jspsych-space-daw-top-stim-left"" ></div><div id=""jspsych-space-daw-top-stim-middle"" ></div><div id=""jspsych-space-daw-top-stim-right"" ></div><div style=""clear:both""></div><div id=""jspsych-space-daw-bottom-stim-left"" style=""background-image: url('./tasks/two-arm-new/img/green_stim_1.png')""></div><div id=""jspsych-space-daw-bottom-stim-middle"" ></div><div id=""jspsych-space-daw-bottom-stim-right"" class=""jspsych-space-daw-bottom-stim-border"" style=""background-image: url('./tasks/two-arm-new/img/green_stim_2.png')""></div></div>","","","","","","","","","","","","","","","","","","","","","","","",""
"html-keyboard-response","114","156223","0.0-4.0-6.0-2.24","57bfc1beef05670001ee84c2","63690f60c96a0a9a64b48fbc","63691ee35f372d705b0c692b","null","","null","","","","","","","","<div style=""background-image: url('./tasks/two-arm-new/img/green_planet.png')""><div id=""jspsych-space-daw-top-stim-left"" ></div><div id=""jspsych-space-daw-top-stim-middle"" ></div><div id=""jspsych-space-daw-top-stim-right"" style=""background-image: url('./tasks/two-arm-new/img/treasure.png')""></div><div style=""clear:both""></div><div id=""jspsych-space-daw-bottom-stim-left"" style=""background-image: url('./tasks/two-arm-new/img/green_stim_1.png')""></div><div id=""jspsych-space-daw-bottom-stim-middle"" ></div><div id=""jspsych-space-daw-bottom-stim-right"" class=""jspsych-space-daw-bottom-stim-border"" style=""background-image: url('./tasks/two-arm-new/img/green_stim_2.png')""></div></div>","","","","","","","","","","","","","","","","","","","","","","","",""
"instructions","115","219212","0.0-4.0-7.0","57bfc1beef05670001ee84c2","63690f60c96a0a9a64b48fbc","63691ee35f372d705b0c692b","62991","","","","[{""page_index"":0,""viewing_time"":5980},{""page_index"":1,""viewing_time"":8972},{""page_index"":2,""viewing_time"":5692},{""page_index"":3,""viewing_time"":15083},{""page_index"":4,""viewing_time"":16391},{""page_index"":5,""viewing_time"":10872}]","","","","","","","","","","","","","","","","","","","","","","","","","","","","","",""
"html-keyboard-response","116","221433","0.0-4.0-8.0-0.0","57bfc1beef05670001ee84c2","63690f60c96a0a9a64b48fbc","63691ee35f372d705b0c692b","2218","","f","","","","","","","","<div style=""background-image: url('./tasks/two-arm-new/img/earth_planet.png')""><div id=""jspsych-space-daw-top-stim-left"" ></div><div id=""jspsych-space-daw-top-stim-middle"" ></div><div id=""jspsych-space-daw-top-stim-right"" ></div><div style=""clear:both""></div><div id=""jspsych-space-daw-bottom-stim-left"" style=""background-image: url('./tasks/two-arm-new/img/earth_stim_2.png')""></div><div id=""jspsych-space-daw-bottom-stim-middle"" ></div><div id=""jspsych-space-daw-bottom-stim-right"" style=""background-image: url('./tasks/two-arm-new/img/earth_stim_1.png')""></div></div><p>Score: 0</p>","","","","","","","","","","","","","","","","","","","","","","","",""
