"trial_type","trial_index","time_elapsed","internal_node_id","subject_id","study_id","session_id","rt","url","response","question_order","view_history","success","timeout","failed_images","failed_audio","failed_video","stimulus","block","trial_number","jar","bead","previous_bead","choice","correct","lowH_score","highH_score","state","rewarded","state1_action","state2_visited","state1_key","state2_key","state1_rt","state2_rt","two_arm_score_block1","block_num","seq_file","trial_seq_info","two_arm_score_block2","two_arm_score_total","total_bonus"
"pavlovia","0","3114","0.0-0.0","63639d3bbd810ed5c307efc3","63690f60c96a0a9a64b48fbc","63691908923e988ada92a34a","","","","","","","","","","","","","","","","","","","","","","","","","","","","","","","","","","",""
"external-html","1","19311","0.0-1.0-0.0","63639d3bbd810ed5c307efc3","63690f60c96a0a9a64b48fbc","63691908923e988ada92a34a","15657","new_consent.html","","","","","","","","","","","","","","","","","","","","","","","","","","","","","","","","",""
"survey-multi-choice","2","26361","0.0-1.0-1.0","63639d3bbd810ed5c307efc3","63690f60c96a0a9a64b48fbc","63691908923e988ada92a34a","7046","","{""Q0"":""Male"",""Q1"":""Black or African American""}","[0,1]","","","","","","","","","","","","","","","","","","","","","","","","","","","","","","",""
"survey-text","3","31502","0.0-1.0-2.0","63639d3bbd810ed5c307efc3","63690f60c96a0a9a64b48fbc","63691908923e988ada92a34a","5134","","{""Q0"":""31""}","","","","","","","","","","","","","","","","","","","","","","","","","","","","","","","",""
"instructions","4","43175","0.0-2.0","63639d3bbd810ed5c307efc3","63690f60c96a0a9a64b48fbc","63691908923e988ada92a34a","11564","","","","[{""page_index"":0,""viewing_time"":8339},{""page_index"":1,""viewing_time"":3224}]","","","","","","","","","","","","","","","","","","","","","","","","","","","","","",""
"instructions","5","46006","0.0-3.0","63639d3bbd810ed5c307efc3","63690f60c96a0a9a64b48fbc","63691908923e988ada92a34a","2830","","","","[{""page_index"":0,""viewing_time"":2830}]","","","","","","","","","","","","","","","","","","","","","","","","","","","","","",""
"preload","6","58734","0.0-4.0-0.0","63639d3bbd810ed5c307efc3","63690f60c96a0a9a64b48fbc","63691908923e988ada92a34a","","","","","","true","false","[]","[]","[]","","","","","","","","","","","","","","","","","","","","","","","","",""
"instructions","7","170205","0.0-4.0-1.0","63639d3bbd810ed5c307efc3","63690f60c96a0a9a64b48fbc","63691908923e988ada92a34a","111470","","","","[{""page_index"":0,""viewing_time"":28391},{""page_index"":1,""viewing_time"":11728},{""page_index"":2,""viewing_time"":7856},{""page_index"":3,""viewing_time"":6392},{""page_index"":4,""viewing_time"":19920},{""page_index"":5,""viewing_time"":2288},{""page_index"":6,""viewing_time"":1672},{""page_index"":7,""viewing_time"":7800},{""page_index"":8,""viewing_time"":6712},{""page_index"":9,""viewing_time"":2432},{""page_index"":10,""viewing_time"":10872},{""page_index"":11,""viewing_time"":5408}]","","","","","","","","","","","","","","","","","","","","","","","","","","","","","",""
"html-button-response","8","183933","0.0-4.0-2.0-0.0-0.0","63639d3bbd810ed5c307efc3","63690f60c96a0a9a64b48fbc","63691908923e988ada92a34a","13726","","1","","","","","","","","<div align=center>Your goal is to predict…?<br><br></div>","","","","","","","","","","","","","","","","","","","","","","","",""
"html-button-response","9","196460","0.0-4.0-2.0-1.0-0.0","63639d3bbd810ed5c307efc3","63690f60c96a0a9a64b48fbc","63691908923e988ada92a34a","9622","","2","","","","","","","","<div align=center>In the jar with mostly white beads, there are ___% white beads and ___% black beads?<br><br></div>","","","","","","","","","","","","","","","","","","","","","","","",""
"html-button-response","10","211308","0.0-4.0-2.0-2.0-0.0","63639d3bbd810ed5c307efc3","63690f60c96a0a9a64b48fbc","63691908923e988ada92a34a","13431","","0","","","","","","","","<div align=center>When there is a 1% probability that the jars will switch, the next bead will most likely be drawn from the…<br><br></div>","","","","","","","","","","","","","","","","","","","","","","","",""
"html-button-response","11","221412","0.0-4.0-2.0-3.0-0.0","63639d3bbd810ed5c307efc3","63690f60c96a0a9a64b48fbc","63691908923e988ada92a34a","8150","","1","","","","","","","","<div align=center>When there is a 99% probability that the jars will switch, the next bead will most likely be drawn from the…<br><br></div>","","","","","","","","","","","","","","","","","","","","","","","",""
"instructions","12","253556","0.0-4.0-3.0","63639d3bbd810ed5c307efc3","63690f60c96a0a9a64b48fbc","63691908923e988ada92a34a","30704","","","","[{""page_index"":0,""viewing_time"":30703}]","","","","","","","","","","","","","","","","","","","","","","","","","","","","","",""
"html-keyboard-response","13","256004","0.0-4.0-4.0-0.0","63639d3bbd810ed5c307efc3","63690f60c96a0a9a64b48fbc","63691908923e988ada92a34a","2446",""," ","","","","","","","","<div align=center>In this practice block, there will be a <b>10% chance</b> that the jar on the next trial will be different from the jar on the current trial.<br><br></div>","","","","","","","","","","","","","","","","","","","","","","","",""
"image-keyboard-response","14","265559","0.0-4.0-4.0-1.0-0.0","63639d3bbd810ed5c307efc3","63690f60c96a0a9a64b48fbc","63691908923e988ada92a34a","9497","","f","","","","","","","","./tasks/HMM-beads/Images/NoChoice.png","practice","0","1","1","0","1","true","","","","","","","","","","","","","","","","",""
"image-keyboard-response","15","265878","0.0-4.0-4.0-1.0-1.0","63639d3bbd810ed5c307efc3","63690f60c96a0a9a64b48fbc","63691908923e988ada92a34a","null","","null","","","","","","","","./tasks/HMM-beads/Images/BlackBeadChoice.png","","","","","","","","","","","","","","","","","","","","","","","",""
"image-keyboard-response","16","266394","0.0-4.0-4.0-1.0-2.0","63639d3bbd810ed5c307efc3","63690f60c96a0a9a64b48fbc","63691908923e988ada92a34a","null","","null","","","","","","","","./tasks/HMM-beads/Images/BlackBeadChoiceCorrect.png","","","","","","","","","","","","","","","","","","","","","","","",""
"image-keyboard-response","17","276086","0.0-4.0-4.0-1.0-0.1","63639d3bbd810ed5c307efc3","63690f60c96a0a9a64b48fbc","63691908923e988ada92a34a","9689","","j","","","","","","","","./tasks/HMM-beads/Images/NewTrialBC.png","practice","1","1","1","1","2","false","","","","","","","","","","","","","","","","",""
"image-keyboard-response","18","276403","0.0-4.0-4.0-1.0-1.1","63639d3bbd810ed5c307efc3","63690f60c96a0a9a64b48fbc","63691908923e988ada92a34a","null","","null","","","","","","","","./tasks/HMM-beads/Images/WhiteBeadChoice.png","","","","","","","","","","","","","","","","","","","","","","","",""
"image-keyboard-response","19","276924","0.0-4.0-4.0-1.0-2.1","63639d3bbd810ed5c307efc3","63690f60c96a0a9a64b48fbc","63691908923e988ada92a34a","null","","null","","","","","","","","./tasks/HMM-beads/Images/WhiteBeadChoiceWrong.png","","","","","","","","","","","","","","","","","","","","","","","",""
"image-keyboard-response","20","279463","0.0-4.0-4.0-1.0-0.2","63639d3bbd810ed5c307efc3","63690f60c96a0a9a64b48fbc","63691908923e988ada92a34a","2536","","f","","","","","","","","./tasks/HMM-beads/Images/NewTrialBC.png","practice","2","1","2","1","1","false","","","","","","","","","","","","","","","","",""
"image-keyboard-response","21","279773","0.0-4.0-4.0-1.0-1.2","63639d3bbd810ed5c307efc3","63690f60c96a0a9a64b48fbc","63691908923e988ada92a34a","null","","null","","","","","","","","./tasks/HMM-beads/Images/BlackBeadChoice.png","","","","","","","","","","","","","","","","","","","","","","","",""
"image-keyboard-response","22","280292","0.0-4.0-4.0-1.0-2.2","63639d3bbd810ed5c307efc3","63690f60c96a0a9a64b48fbc","63691908923e988ada92a34a","null","","null","","","","","","","","./tasks/HMM-beads/Images/BlackBeadChoiceWrong.png","","","","","","","","","","","","","","","","","","","","","","","",""
"image-keyboard-response","23","282907","0.0-4.0-4.0-1.0-0.3","63639d3bbd810ed5c307efc3","63690f60c96a0a9a64b48fbc","63691908923e988ada92a34a","2613","","f","","","","","","","","./tasks/HMM-beads/Images/NewTrialWC.png","practice","3","1","1","2","1","true","","","","","","","","","","","","","","","","",""
"image-keyboard-response","24","283223","0.0-4.0-4.0-1.0-1.3","63639d3bbd810ed5c307efc3","63690f60c96a0a9a64b48fbc","63691908923e988ada92a34a","null","","null","","","","","","","","./tasks/HMM-beads/Images/BlackBeadChoice.png","","","","","","","","","","","","","","","","","","","","","","","",""
"image-keyboard-response","25","283733","0.0-4.0-4.0-1.0-2.3","63639d3bbd810ed5c307efc3","63690f60c96a0a9a64b48fbc","63691908923e988ada92a34a","null","","null","","","","","","","","./tasks/HMM-beads/Images/BlackBeadChoiceCorrect.png","","","","","","","","","","","","","","","","","","","","","","","",""
"image-keyboard-response","26","284454","0.0-4.0-4.0-1.0-0.4","63639d3bbd810ed5c307efc3","63690f60c96a0a9a64b48fbc","63691908923e988ada92a34a","718","","j","","","","","","","","./tasks/HMM-beads/Images/NewTrialBC.png","practice","4","1","2","1","2","true","","","","","","","","","","","","","","","","",""
"image-keyboard-response","27","284765","0.0-4.0-4.0-1.0-1.4","63639d3bbd810ed5c307efc3","63690f60c96a0a9a64b48fbc","63691908923e988ada92a34a","null","","null","","","","","","","","./tasks/HMM-beads/Images/WhiteBeadChoice.png","","","","","","","","","","","","","","","","","","","","","","","",""
"image-keyboard-response","28","285274","0.0-4.0-4.0-1.0-2.4","63639d3bbd810ed5c307efc3","63690f60c96a0a9a64b48fbc","63691908923e988ada92a34a","null","","null","","","","","","","","./tasks/HMM-beads/Images/WhiteBeadChoiceCorrect.png","","","","","","","","","","","","","","","","","","","","","","","",""
"image-keyboard-response","29","290674","0.0-4.0-4.0-1.0-0.5","63639d3bbd810ed5c307efc3","63690f60c96a0a9a64b48fbc","63691908923e988ada92a34a","5396","","j","","","","","","","","./tasks/HMM-beads/Images/NewTrialWC.png","practice","5","1","1","2","2","false","","","","","","","","","","","","","","","","",""
"image-keyboard-response","30","290988","0.0-4.0-4.0-1.0-1.5","63639d3bbd810ed5c307efc3","63690f60c96a0a9a64b48fbc","63691908923e988ada92a34a","null","","null","","","","","","","","./tasks/HMM-beads/Images/WhiteBeadChoice.png","","","","","","","","","","","","","","","","","","","","","","","",""
"image-keyboard-response","31","291508","0.0-4.0-4.0-1.0-2.5","63639d3bbd810ed5c307efc3","63690f60c96a0a9a64b48fbc","63691908923e988ada92a34a","null","","null","","","","","","","","./tasks/HMM-beads/Images/WhiteBeadChoiceWrong.png","","","","","","","","","","","","","","","","","","","","","","","",""
"image-keyboard-response","32","296645","0.0-4.0-4.0-1.0-0.6","63639d3bbd810ed5c307efc3","63690f60c96a0a9a64b48fbc","63691908923e988ada92a34a","5135","","j","","","","","","","","./tasks/HMM-beads/Images/NewTrialBC.png","practice","6","1","2","1","2","true","","","","","","","","","","","","","","","","",""
"image-keyboard-response","33","296955","0.0-4.0-4.0-1.0-1.6","63639d3bbd810ed5c307efc3","63690f60c96a0a9a64b48fbc","63691908923e988ada92a34a","null","","null","","","","","","","","./tasks/HMM-beads/Images/WhiteBeadChoice.png","","","","","","","","","","","","","","","","","","","","","","","",""
"image-keyboard-response","34","297467","0.0-4.0-4.0-1.0-2.6","63639d3bbd810ed5c307efc3","63690f60c96a0a9a64b48fbc","63691908923e988ada92a34a","null","","null","","","","","","","","./tasks/HMM-beads/Images/WhiteBeadChoiceCorrect.png","","","","","","","","","","","","","","","","","","","","","","","",""
"image-keyboard-response","35","300121","0.0-4.0-4.0-1.0-0.7","63639d3bbd810ed5c307efc3","63690f60c96a0a9a64b48fbc","63691908923e988ada92a34a","2652","","j","","","","","","","","./tasks/HMM-beads/Images/NewTrialWC.png","practice","7","1","1","2","2","false","","","","","","","","","","","","","","","","",""
"image-keyboard-response","36","300444","0.0-4.0-4.0-1.0-1.7","63639d3bbd810ed5c307efc3","63690f60c96a0a9a64b48fbc","63691908923e988ada92a34a","null","","null","","","","","","","","./tasks/HMM-beads/Images/WhiteBeadChoice.png","","","","","","","","","","","","","","","","","","","","","","","",""
"image-keyboard-response","37","300953","0.0-4.0-4.0-1.0-2.7","63639d3bbd810ed5c307efc3","63690f60c96a0a9a64b48fbc","63691908923e988ada92a34a","null","","null","","","","","","","","./tasks/HMM-beads/Images/WhiteBeadChoiceWrong.png","","","","","","","","","","","","","","","","","","","","","","","",""
"image-keyboard-response","38","302231","0.0-4.0-4.0-1.0-0.8","63639d3bbd810ed5c307efc3","63690f60c96a0a9a64b48fbc","63691908923e988ada92a34a","1276","","j","","","","","","","","./tasks/HMM-beads/Images/NewTrialBC.png","practice","8","1","1","1","2","false","","","","","","","","","","","","","","","","",""
"image-keyboard-response","39","302544","0.0-4.0-4.0-1.0-1.8","63639d3bbd810ed5c307efc3","63690f60c96a0a9a64b48fbc","63691908923e988ada92a34a","null","","null","","","","","","","","./tasks/HMM-beads/Images/WhiteBeadChoice.png","","","","","","","","","","","","","","","","","","","","","","","",""
"image-keyboard-response","40","303050","0.0-4.0-4.0-1.0-2.8","63639d3bbd810ed5c307efc3","63690f60c96a0a9a64b48fbc","63691908923e988ada92a34a","null","","null","","","","","","","","./tasks/HMM-beads/Images/WhiteBeadChoiceWrong.png","","","","","","","","","","","","","","","","","","","","","","","",""
"image-keyboard-response","41","304390","0.0-4.0-4.0-1.0-0.9","63639d3bbd810ed5c307efc3","63690f60c96a0a9a64b48fbc","63691908923e988ada92a34a","1339","","j","","","","","","","","./tasks/HMM-beads/Images/NewTrialBC.png","practice","9","2","2","1","2","true","","","","","","","","","","","","","","","","",""
"image-keyboard-response","42","304703","0.0-4.0-4.0-1.0-1.9","63639d3bbd810ed5c307efc3","63690f60c96a0a9a64b48fbc","63691908923e988ada92a34a","null","","null","","","","","","","","./tasks/HMM-beads/Images/WhiteBeadChoice.png","","","","","","","","","","","","","","","","","","","","","","","",""
"image-keyboard-response","43","305213","0.0-4.0-4.0-1.0-2.9","63639d3bbd810ed5c307efc3","63690f60c96a0a9a64b48fbc","63691908923e988ada92a34a","null","","null","","","","","","","","./tasks/HMM-beads/Images/WhiteBeadChoiceCorrect.png","","","","","","","","","","","","","","","","","","","","","","","",""
"image-keyboard-response","44","306321","0.0-4.0-4.0-1.0-0.10","63639d3bbd810ed5c307efc3","63690f60c96a0a9a64b48fbc","63691908923e988ada92a34a","1105","","f","","","","","","","","./tasks/HMM-beads/Images/NewTrialWC.png","practice","10","2","1","2","1","true","","","","","","","","","","","","","","","","",""
"image-keyboard-response","45","306643","0.0-4.0-4.0-1.0-1.10","63639d3bbd810ed5c307efc3","63690f60c96a0a9a64b48fbc","63691908923e988ada92a34a","null","","null","","","","","","","","./tasks/HMM-beads/Images/BlackBeadChoice.png","","","","","","","","","","","","","","","","","","","","","","","",""
"image-keyboard-response","46","307164","0.0-4.0-4.0-1.0-2.10","63639d3bbd810ed5c307efc3","63690f60c96a0a9a64b48fbc","63691908923e988ada92a34a","null","","null","","","","","","","","./tasks/HMM-beads/Images/BlackBeadChoiceCorrect.png","","","","","","","","","","","","","","","","","","","","","","","",""
"image-keyboard-response","47","308539","0.0-4.0-4.0-1.0-0.11","63639d3bbd810ed5c307efc3","63690f60c96a0a9a64b48fbc","63691908923e988ada92a34a","1373","","f","","","","","","","","./tasks/HMM-beads/Images/NewTrialBC.png","practice","11","2","2","1","1","false","","","","","","","","","","","","","","","","",""
"image-keyboard-response","48","308848","0.0-4.0-4.0-1.0-1.11","63639d3bbd810ed5c307efc3","63690f60c96a0a9a64b48fbc","63691908923e988ada92a34a","null","","null","","","","","","","","./tasks/HMM-beads/Images/BlackBeadChoice.png","","","","","","","","","","","","","","","","","","","","","","","",""
"image-keyboard-response","49","309354","0.0-4.0-4.0-1.0-2.11","63639d3bbd810ed5c307efc3","63690f60c96a0a9a64b48fbc","63691908923e988ada92a34a","null","","null","","","","","","","","./tasks/HMM-beads/Images/BlackBeadChoiceWrong.png","","","","","","","","","","","","","","","","","","","","","","","",""
"image-keyboard-response","50","311332","0.0-4.0-4.0-1.0-0.12","63639d3bbd810ed5c307efc3","63690f60c96a0a9a64b48fbc","63691908923e988ada92a34a","1976","","j","","","","","","","","./tasks/HMM-beads/Images/NewTrialWC.png","practice","12","2","2","2","2","true","","","","","","","","","","","","","","","","",""
"image-keyboard-response","51","311643","0.0-4.0-4.0-1.0-1.12","63639d3bbd810ed5c307efc3","63690f60c96a0a9a64b48fbc","63691908923e988ada92a34a","null","","null","","","","","","","","./tasks/HMM-beads/Images/WhiteBeadChoice.png","","","","","","","","","","","","","","","","","","","","","","","",""
"image-keyboard-response","52","312163","0.0-4.0-4.0-1.0-2.12","63639d3bbd810ed5c307efc3","63690f60c96a0a9a64b48fbc","63691908923e988ada92a34a","null","","null","","","","","","","","./tasks/HMM-beads/Images/WhiteBeadChoiceCorrect.png","","","","","","","","","","","","","","","","","","","","","","","",""
"image-keyboard-response","53","313214","0.0-4.0-4.0-1.0-0.13","63639d3bbd810ed5c307efc3","63690f60c96a0a9a64b48fbc","63691908923e988ada92a34a","1049","","f","","","","","","","","./tasks/HMM-beads/Images/NewTrialWC.png","practice","13","2","2","2","1","false","","","","","","","","","","","","","","","","",""
"image-keyboard-response","54","313525","0.0-4.0-4.0-1.0-1.13","63639d3bbd810ed5c307efc3","63690f60c96a0a9a64b48fbc","63691908923e988ada92a34a","null","","null","","","","","","","","./tasks/HMM-beads/Images/BlackBeadChoice.png","","","","","","","","","","","","","","","","","","","","","","","",""
"image-keyboard-response","55","314040","0.0-4.0-4.0-1.0-2.13","63639d3bbd810ed5c307efc3","63690f60c96a0a9a64b48fbc","63691908923e988ada92a34a","null","","null","","","","","","","","./tasks/HMM-beads/Images/BlackBeadChoiceWrong.png","","","","","","","","","","","","","","","","","","","","","","","",""
"image-keyboard-response","56","314739","0.0-4.0-4.0-1.0-0.14","63639d3bbd810ed5c307efc3","63690f60c96a0a9a64b48fbc","63691908923e988ada92a34a","697","","j","","","","","","","","./tasks/HMM-beads/Images/NewTrialWC.png","practice","14","2","2","2","2","true","","","","","","","","","","","","","","","","",""
"image-keyboard-response","57","315059","0.0-4.0-4.0-1.0-1.14","63639d3bbd810ed5c307efc3","63690f60c96a0a9a64b48fbc","63691908923e988ada92a34a","null","","null","","","","","","","","./tasks/HMM-beads/Images/WhiteBeadChoice.png","","","","","","","","","","","","","","","","","","","","","","","",""
"image-keyboard-response","58","315579","0.0-4.0-4.0-1.0-2.14","63639d3bbd810ed5c307efc3","63690f60c96a0a9a64b48fbc","63691908923e988ada92a34a","null","","null","","","","","","","","./tasks/HMM-beads/Images/WhiteBeadChoiceCorrect.png","","","","","","","","","","","","","","","","","","","","","","","",""
"image-keyboard-response","59","316254","0.0-4.0-4.0-1.0-0.15","63639d3bbd810ed5c307efc3","63690f60c96a0a9a64b48fbc","63691908923e988ada92a34a","672","","j","","","","","","","","./tasks/HMM-beads/Images/NewTrialWC.png","practice","15","1","1","2","2","false","","","","","","","","","","","","","","","","",""
"image-keyboard-response","60","316562","0.0-4.0-4.0-1.0-1.15","63639d3bbd810ed5c307efc3","63690f60c96a0a9a64b48fbc","63691908923e988ada92a34a","null","","null","","","","","","","","./tasks/HMM-beads/Images/WhiteBeadChoice.png","","","","","","","","","","","","","","","","","","","","","","","",""
"image-keyboard-response","61","317074","0.0-4.0-4.0-1.0-2.15","63639d3bbd810ed5c307efc3","63690f60c96a0a9a64b48fbc","63691908923e988ada92a34a","null","","null","","","","","","","","./tasks/HMM-beads/Images/WhiteBeadChoiceWrong.png","","","","","","","","","","","","","","","","","","","","","","","",""
"image-keyboard-response","62","318205","0.0-4.0-4.0-1.0-0.16","63639d3bbd810ed5c307efc3","63690f60c96a0a9a64b48fbc","63691908923e988ada92a34a","1128","","f","","","","","","","","./tasks/HMM-beads/Images/NewTrialBC.png","practice","16","1","2","1","1","false","","","","","","","","","","","","","","","","",""
"image-keyboard-response","63","318513","0.0-4.0-4.0-1.0-1.16","63639d3bbd810ed5c307efc3","63690f60c96a0a9a64b48fbc","63691908923e988ada92a34a","null","","null","","","","","","","","./tasks/HMM-beads/Images/BlackBeadChoice.png","","","","","","","","","","","","","","","","","","","","","","","",""
"image-keyboard-response","64","319024","0.0-4.0-4.0-1.0-2.16","63639d3bbd810ed5c307efc3","63690f60c96a0a9a64b48fbc","63691908923e988ada92a34a","null","","null","","","","","","","","./tasks/HMM-beads/Images/BlackBeadChoiceWrong.png","","","","","","","","","","","","","","","","","","","","","","","",""
"image-keyboard-response","65","319690","0.0-4.0-4.0-1.0-0.17","63639d3bbd810ed5c307efc3","63690f60c96a0a9a64b48fbc","63691908923e988ada92a34a","664","","j","","","","","","","","./tasks/HMM-beads/Images/NewTrialWC.png","practice","17","1","1","2","2","false","","","","","","","","","","","","","","","","",""
"image-keyboard-response","66","320003","0.0-4.0-4.0-1.0-1.17","63639d3bbd810ed5c307efc3","63690f60c96a0a9a64b48fbc","63691908923e988ada92a34a","null","","null","","","","","","","","./tasks/HMM-beads/Images/WhiteBeadChoice.png","","","","","","","","","","","","","","","","","","","","","","","",""
"image-keyboard-response","67","320514","0.0-4.0-4.0-1.0-2.17","63639d3bbd810ed5c307efc3","63690f60c96a0a9a64b48fbc","63691908923e988ada92a34a","null","","null","","","","","","","","./tasks/HMM-beads/Images/WhiteBeadChoiceWrong.png","","","","","","","","","","","","","","","","","","","","","","","",""
"image-keyboard-response","68","321306","0.0-4.0-4.0-1.0-0.18","63639d3bbd810ed5c307efc3","63690f60c96a0a9a64b48fbc","63691908923e988ada92a34a","789","","j","","","","","","","","./tasks/HMM-beads/Images/NewTrialBC.png","practice","18","1","1","1","2","false","","","","","","","","","","","","","","","","",""
"image-keyboard-response","69","321628","0.0-4.0-4.0-1.0-1.18","63639d3bbd810ed5c307efc3","63690f60c96a0a9a64b48fbc","63691908923e988ada92a34a","null","","null","","","","","","","","./tasks/HMM-beads/Images/WhiteBeadChoice.png","","","","","","","","","","","","","","","","","","","","","","","",""
"image-keyboard-response","70","322153","0.0-4.0-4.0-1.0-2.18","63639d3bbd810ed5c307efc3","63690f60c96a0a9a64b48fbc","63691908923e988ada92a34a","null","","null","","","","","","","","./tasks/HMM-beads/Images/WhiteBeadChoiceWrong.png","","","","","","","","","","","","","","","","","","","","","","","",""
"image-keyboard-response","71","323067","0.0-4.0-4.0-1.0-0.19","63639d3bbd810ed5c307efc3","63690f60c96a0a9a64b48fbc","63691908923e988ada92a34a","912","","j","","","","","","","","./tasks/HMM-beads/Images/NewTrialBC.png","practice","19","1","1","1","2","false","","","","","","","","","","","","","","","","",""
"image-keyboard-response","72","323378","0.0-4.0-4.0-1.0-1.19","63639d3bbd810ed5c307efc3","63690f60c96a0a9a64b48fbc","63691908923e988ada92a34a","null","","null","","","","","","","","./tasks/HMM-beads/Images/WhiteBeadChoice.png","","","","","","","","","","","","","","","","","","","","","","","",""
"image-keyboard-response","73","323903","0.0-4.0-4.0-1.0-2.19","63639d3bbd810ed5c307efc3","63690f60c96a0a9a64b48fbc","63691908923e988ada92a34a","null","","null","","","","","","","","./tasks/HMM-beads/Images/WhiteBeadChoiceWrong.png","","","","","","","","","","","","","","","","","","","","","","","",""
"html-keyboard-response","74","327564","0.0-4.0-4.0-2.0","63639d3bbd810ed5c307efc3","63690f60c96a0a9a64b48fbc","63691908923e988ada92a34a","3659",""," ","","","","","","","","","","","","","","","","","","","","","","","","","","","","","","","",""
"instructions","75","334931","0.0-4.0-5.0","63639d3bbd810ed5c307efc3","63690f60c96a0a9a64b48fbc","63691908923e988ada92a34a","7366","","","","[{""page_index"":0,""viewing_time"":3981},{""page_index"":1,""viewing_time"":3384}]","","","","","","","","","","","","","","","","","","","","","","","","","","","","","",""
"html-keyboard-response","76","336398","0.0-4.0-6.0-0.0","63639d3bbd810ed5c307efc3","63690f60c96a0a9a64b48fbc","63691908923e988ada92a34a","1465",""," ","","","","","","","","<div align=center>In this block, there will be a <b>1% chance</b> that the jar on the next trial will be different from the jar on the current trial.<br><br></div>","","","","","","","","","","","","","","","","","","","","","","","",""
"image-keyboard-response","77","340518","0.0-4.0-6.0-1.0-0.0","63639d3bbd810ed5c307efc3","63690f60c96a0a9a64b48fbc","63691908923e988ada92a34a","4117","","j","","","","","","","","./tasks/HMM-beads/Images/NoChoice.png","lowH","0","2","2","0","2","true","","","","","","","","","","","","","","","","",""
"image-keyboard-response","78","340828","0.0-4.0-6.0-1.0-1.0","63639d3bbd810ed5c307efc3","63690f60c96a0a9a64b48fbc","63691908923e988ada92a34a","null","","null","","","","","","","","./tasks/HMM-beads/Images/WhiteBeadChoice.png","","","","","","","","","","","","","","","","","","","","","","","",""
"image-keyboard-response","79","341349","0.0-4.0-6.0-1.0-2.0","63639d3bbd810ed5c307efc3","63690f60c96a0a9a64b48fbc","63691908923e988ada92a34a","null","","null","","","","","","","","./tasks/HMM-beads/Images/WhiteBeadChoiceCorrect.png","","","","","","","","","","","","","","","","","","","","","","","",""
"image-keyboard-response","80","342449","0.0-4.0-6.0-1.0-0.1","63639d3bbd810ed5c307efc3","63690f60c96a0a9a64b48fbc","63691908923e988ada92a34a","1098","","j","","","","","","","","./tasks/HMM-beads/Images/NewTrialWC.png","lowH","1","2","2","2","2","true","","","","","","","","","","","","","","","","",""
"image-keyboard-response","81","342773","0.0-4.0-6.0-1.0-1.1","63639d3bbd810ed5c307efc3","63690f60c96a0a9a64b48fbc","63691908923e988ada92a34a","null","","null","","","","","","","","./tasks/HMM-beads/Images/WhiteBeadChoice.png","","","","","","","","","","","","","","","","","","","","","","","",""
"image-keyboard-response","82","343288","0.0-4.0-6.0-1.0-2.1","63639d3bbd810ed5c307efc3","63690f60c96a0a9a64b48fbc","63691908923e988ada92a34a","null","","null","","","","","","","","./tasks/HMM-beads/Images/WhiteBeadChoiceCorrect.png","","","","","","","","","","","","","","","","","","","","","","","",""
"image-keyboard-response","83","344162","0.0-4.0-6.0-1.0-0.2","63639d3bbd810ed5c307efc3","63690f60c96a0a9a64b48fbc","63691908923e988ada92a34a","871","","f","","","","","","","","./tasks/HMM-beads/Images/NewTrialWC.png","lowH","2","2","2","2","1","false","","","","","","","","","","","","","","","","",""
"image-keyboard-response","84","344495","0.0-4.0-6.0-1.0-1.2","63639d3bbd810ed5c307efc3","63690f60c96a0a9a64b48fbc","63691908923e988ada92a34a","null","","null","","","","","","","","./tasks/HMM-beads/Images/BlackBeadChoice.png","","","","","","","","","","","","","","","","","","","","","","","",""
"image-keyboard-response","85","345008","0.0-4.0-6.0-1.0-2.2","63639d3bbd810ed5c307efc3","63690f60c96a0a9a64b48fbc","63691908923e988ada92a34a","null","","null","","","","","","","","./tasks/HMM-beads/Images/BlackBeadChoiceWrong.png","","","","","","","","","","","","","","","","","","","","","","","",""
"image-keyboard-response","86","345954","0.0-4.0-6.0-1.0-0.3","63639d3bbd810ed5c307efc3","63690f60c96a0a9a64b48fbc","63691908923e988ada92a34a","944","","f","","","","","","","","./tasks/HMM-beads/Images/NewTrialWC.png","lowH","3","2","2","2","1","false","","","","","","","","","","","","","","","","",""
"image-keyboard-response","87","346278","0.0-4.0-6.0-1.0-1.3","63639d3bbd810ed5c307efc3","63690f60c96a0a9a64b48fbc","63691908923e988ada92a34a","null","","null","","","","","","","","./tasks/HMM-beads/Images/BlackBeadChoice.png","","","","","","","","","","","","","","","","","","","","","","","",""
"image-keyboard-response","88","346787","0.0-4.0-6.0-1.0-2.3","63639d3bbd810ed5c307efc3","63690f60c96a0a9a64b48fbc","63691908923e988ada92a34a","null","","null","","","","","","","","./tasks/HMM-beads/Images/BlackBeadChoiceWrong.png","","","","","","","","","","","","","","","","","","","","","","","",""
"image-keyboard-response","89","347747","0.0-4.0-6.0-1.0-0.4","63639d3bbd810ed5c307efc3","63690f60c96a0a9a64b48fbc","63691908923e988ada92a34a","958","","f","","","","","","","","./tasks/HMM-beads/Images/NewTrialWC.png","lowH","4","2","1","2","1","true","","","","","","","","","","","","","","","","",""
"image-keyboard-response","90","348067","0.0-4.0-6.0-1.0-1.4","63639d3bbd810ed5c307efc3","63690f60c96a0a9a64b48fbc","63691908923e988ada92a34a","null","","null","","","","","","","","./tasks/HMM-beads/Images/BlackBeadChoice.png","","","","","","","","","","","","","","","","","","","","","","","",""
"image-keyboard-response","91","348578","0.0-4.0-6.0-1.0-2.4","63639d3bbd810ed5c307efc3","63690f60c96a0a9a64b48fbc","63691908923e988ada92a34a","null","","null","","","","","","","","./tasks/HMM-beads/Images/BlackBeadChoiceCorrect.png","","","","","","","","","","","","","","","","","","","","","","","",""
"image-keyboard-response","92","349361","0.0-4.0-6.0-1.0-0.5","63639d3bbd810ed5c307efc3","63690f60c96a0a9a64b48fbc","63691908923e988ada92a34a","781","","f","","","","","","","","./tasks/HMM-beads/Images/NewTrialBC.png","lowH","5","2","2","1","1","false","","","","","","","","","","","","","","","","",""
"image-keyboard-response","93","349683","0.0-4.0-6.0-1.0-1.5","63639d3bbd810ed5c307efc3","63690f60c96a0a9a64b48fbc","63691908923e988ada92a34a","null","","null","","","","","","","","./tasks/HMM-beads/Images/BlackBeadChoice.png","","","","","","","","","","","","","","","","","","","","","","","",""
"image-keyboard-response","94","350194","0.0-4.0-6.0-1.0-2.5","63639d3bbd810ed5c307efc3","63690f60c96a0a9a64b48fbc","63691908923e988ada92a34a","null","","null","","","","","","","","./tasks/HMM-beads/Images/BlackBeadChoiceWrong.png","","","","","","","","","","","","","","","","","","","","","","","",""
"image-keyboard-response","95","350994","0.0-4.0-6.0-1.0-0.6","63639d3bbd810ed5c307efc3","63690f60c96a0a9a64b48fbc","63691908923e988ada92a34a","798","","j","","","","","","","","./tasks/HMM-beads/Images/NewTrialWC.png","lowH","6","2","2","2","2","true","","","","","","","","","","","","","","","","",""
"image-keyboard-response","96","351317","0.0-4.0-6.0-1.0-1.6","63639d3bbd810ed5c307efc3","63690f60c96a0a9a64b48fbc","63691908923e988ada92a34a","null","","null","","","","","","","","./tasks/HMM-beads/Images/WhiteBeadChoice.png","","","","","","","","","","","","","","","","","","","","","","","",""
"image-keyboard-response","97","351845","0.0-4.0-6.0-1.0-2.6","63639d3bbd810ed5c307efc3","63690f60c96a0a9a64b48fbc","63691908923e988ada92a34a","null","","null","","","","","","","","./tasks/HMM-beads/Images/WhiteBeadChoiceCorrect.png","","","","","","","","","","","","","","","","","","","","","","","",""
"image-keyboard-response","98","352628","0.0-4.0-6.0-1.0-0.7","63639d3bbd810ed5c307efc3","63690f60c96a0a9a64b48fbc","63691908923e988ada92a34a","781","","j","","","","","","","","./tasks/HMM-beads/Images/NewTrialWC.png","lowH","7","2","2","2","2","true","","","","","","","","","","","","","","","","",""
"image-keyboard-response","99","352947","0.0-4.0-6.0-1.0-1.7","63639d3bbd810ed5c307efc3","63690f60c96a0a9a64b48fbc","63691908923e988ada92a34a","null","","null","","","","","","","","./tasks/HMM-beads/Images/WhiteBeadChoice.png","","","","","","","","","","","","","","","","","","","","","","","",""
"image-keyboard-response","100","353467","0.0-4.0-6.0-1.0-2.7","63639d3bbd810ed5c307efc3","63690f60c96a0a9a64b48fbc","63691908923e988ada92a34a","null","","null","","","","","","","","./tasks/HMM-beads/Images/WhiteBeadChoiceCorrect.png","","","","","","","","","","","","","","","","","","","","","","","",""
"image-keyboard-response","101","354420","0.0-4.0-6.0-1.0-0.8","63639d3bbd810ed5c307efc3","63690f60c96a0a9a64b48fbc","63691908923e988ada92a34a","951","","f","","","","","","","","./tasks/HMM-beads/Images/NewTrialWC.png","lowH","8","2","2","2","1","false","","","","","","","","","","","","","","","","",""
"image-keyboard-response","102","354737","0.0-4.0-6.0-1.0-1.8","63639d3bbd810ed5c307efc3","63690f60c96a0a9a64b48fbc","63691908923e988ada92a34a","null","","null","","","","","","","","./tasks/HMM-beads/Images/BlackBeadChoice.png","","","","","","","","","","","","","","","","","","","","","","","",""
"image-keyboard-response","103","355256","0.0-4.0-6.0-1.0-2.8","63639d3bbd810ed5c307efc3","63690f60c96a0a9a64b48fbc","63691908923e988ada92a34a","null","","null","","","","","","","","./tasks/HMM-beads/Images/BlackBeadChoiceWrong.png","","","","","","","","","","","","","","","","","","","","","","","",""
"image-keyboard-response","104","356114","0.0-4.0-6.0-1.0-0.9","63639d3bbd810ed5c307efc3","63690f60c96a0a9a64b48fbc","63691908923e988ada92a34a","856","","j","","","","","","","","./tasks/HMM-beads/Images/NewTrialWC.png","lowH","9","2","2","2","2","true","","","","","","","","","","","","","","","","",""
"image-keyboard-response","105","356429","0.0-4.0-6.0-1.0-1.9","63639d3bbd810ed5c307efc3","63690f60c96a0a9a64b48fbc","63691908923e988ada92a34a","null","","null","","","","","","","","./tasks/HMM-beads/Images/WhiteBeadChoice.png","","","","","","","","","","","","","","","","","","","","","","","",""
"image-keyboard-response","106","356952","0.0-4.0-6.0-1.0-2.9","63639d3bbd810ed5c307efc3","63690f60c96a0a9a64b48fbc","63691908923e988ada92a34a","null","","null","","","","","","","","./tasks/HMM-beads/Images/WhiteBeadChoiceCorrect.png","","","","","","","","","","","","","","","","","","","","","","","",""
"image-keyboard-response","107","358015","0.0-4.0-6.0-1.0-0.10","63639d3bbd810ed5c307efc3","63690f60c96a0a9a64b48fbc","63691908923e988ada92a34a","1060","","f","","","","","","","","./tasks/HMM-beads/Images/NewTrialWC.png","lowH","10","2","2","2","1","false","","","","","","","","","","","","","","","","",""
"image-keyboard-response","108","358322","0.0-4.0-6.0-1.0-1.10","63639d3bbd810ed5c307efc3","63690f60c96a0a9a64b48fbc","63691908923e988ada92a34a","null","","null","","","","","","","","./tasks/HMM-beads/Images/BlackBeadChoice.png","","","","","","","","","","","","","","","","","","","","","","","",""
"image-keyboard-response","109","358845","0.0-4.0-6.0-1.0-2.10","63639d3bbd810ed5c307efc3","63690f60c96a0a9a64b48fbc","63691908923e988ada92a34a","null","","null","","","","","","","","./tasks/HMM-beads/Images/BlackBeadChoiceWrong.png","","","","","","","","","","","","","","","","","","","","","","","",""
"image-keyboard-response","110","359569","0.0-4.0-6.0-1.0-0.11","63639d3bbd810ed5c307efc3","63690f60c96a0a9a64b48fbc","63691908923e988ada92a34a","722","","j","","","","","","","","./tasks/HMM-beads/Images/NewTrialWC.png","lowH","11","2","2","2","2","true","","","","","","","","","","","","","","","","",""
"image-keyboard-response","111","359886","0.0-4.0-6.0-1.0-1.11","63639d3bbd810ed5c307efc3","63690f60c96a0a9a64b48fbc","63691908923e988ada92a34a","null","","null","","","","","","","","./tasks/HMM-beads/Images/WhiteBeadChoice.png","","","","","","","","","","","","","","","","","","","","","","","",""
"image-keyboard-response","112","360391","0.0-4.0-6.0-1.0-2.11","63639d3bbd810ed5c307efc3","63690f60c96a0a9a64b48fbc","63691908923e988ada92a34a","null","","null","","","","","","","","./tasks/HMM-beads/Images/WhiteBeadChoiceCorrect.png","","","","","","","","","","","","","","","","","","","","","","","",""
"image-keyboard-response","113","361005","0.0-4.0-6.0-1.0-0.12","63639d3bbd810ed5c307efc3","63690f60c96a0a9a64b48fbc","63691908923e988ada92a34a","612","","j","","","","","","","","./tasks/HMM-beads/Images/NewTrialWC.png","lowH","12","2","2","2","2","true","","","","","","","","","","","","","","","","",""
"image-keyboard-response","114","361316","0.0-4.0-6.0-1.0-1.12","63639d3bbd810ed5c307efc3","63690f60c96a0a9a64b48fbc","63691908923e988ada92a34a","null","","null","","","","","","","","./tasks/HMM-beads/Images/WhiteBeadChoice.png","","","","","","","","","","","","","","","","","","","","","","","",""
"image-keyboard-response","115","361830","0.0-4.0-6.0-1.0-2.12","63639d3bbd810ed5c307efc3","63690f60c96a0a9a64b48fbc","63691908923e988ada92a34a","null","","null","","","","","","","","./tasks/HMM-beads/Images/WhiteBeadChoiceCorrect.png","","","","","","","","","","","","","","","","","","","","","","","",""
"image-keyboard-response","116","362451","0.0-4.0-6.0-1.0-0.13","63639d3bbd810ed5c307efc3","63690f60c96a0a9a64b48fbc","63691908923e988ada92a34a","618","","j","","","","","","","","./tasks/HMM-beads/Images/NewTrialWC.png","lowH","13","2","2","2","2","true","","","","","","","","","","","","","","","","",""
"image-keyboard-response","117","362770","0.0-4.0-6.0-1.0-1.13","63639d3bbd810ed5c307efc3","63690f60c96a0a9a64b48fbc","63691908923e988ada92a34a","null","","null","","","","","","","","./tasks/HMM-beads/Images/WhiteBeadChoice.png","","","","","","","","","","","","","","","","","","","","","","","",""
"image-keyboard-response","118","363292","0.0-4.0-6.0-1.0-2.13","63639d3bbd810ed5c307efc3","63690f60c96a0a9a64b48fbc","63691908923e988ada92a34a","null","","null","","","","","","","","./tasks/HMM-beads/Images/WhiteBeadChoiceCorrect.png","","","","","","","","","","","","","","","","","","","","","","","",""
"image-keyboard-response","119","364006","0.0-4.0-6.0-1.0-0.14","63639d3bbd810ed5c307efc3","63690f60c96a0a9a64b48fbc","63691908923e988ada92a34a","712","","j","","","","","","","","./tasks/HMM-beads/Images/NewTrialWC.png","lowH","14","2","2","2","2","true","","","","","","","","","","","","","","","","",""
"image-keyboard-response","120","364311","0.0-4.0-6.0-1.0-1.14","63639d3bbd810ed5c307efc3","63690f60c96a0a9a64b48fbc","63691908923e988ada92a34a","null","","null","","","","","","","","./tasks/HMM-beads/Images/WhiteBeadChoice.png","","","","","","","","","","","","","","","","","","","","","","","",""
"image-keyboard-response","121","364821","0.0-4.0-6.0-1.0-2.14","63639d3bbd810ed5c307efc3","63690f60c96a0a9a64b48fbc","63691908923e988ada92a34a","null","","null","","","","","","","","./tasks/HMM-beads/Images/WhiteBeadChoiceCorrect.png","","","","","","","","","","","","","","","","","","","","","","","",""
"image-keyboard-response","122","365461","0.0-4.0-6.0-1.0-0.15","63639d3bbd810ed5c307efc3","63690f60c96a0a9a64b48fbc","63691908923e988ada92a34a","638","","j","","","","","","","","./tasks/HMM-beads/Images/NewTrialWC.png","lowH","15","2","1","2","2","false","","","","","","","","","","","","","","","","",""
"image-keyboard-response","123","365776","0.0-4.0-6.0-1.0-1.15","63639d3bbd810ed5c307efc3","63690f60c96a0a9a64b48fbc","63691908923e988ada92a34a","null","","null","","","","","","","","./tasks/HMM-beads/Images/WhiteBeadChoice.png","","","","","","","","","","","","","","","","","","","","","","","",""
"image-keyboard-response","124","366305","0.0-4.0-6.0-1.0-2.15","63639d3bbd810ed5c307efc3","63690f60c96a0a9a64b48fbc","63691908923e988ada92a34a","null","","null","","","","","","","","./tasks/HMM-beads/Images/WhiteBeadChoiceWrong.png","","","","","","","","","","","","","","","","","","","","","","","",""
"image-keyboard-response","125","367194","0.0-4.0-6.0-1.0-0.16","63639d3bbd810ed5c307efc3","63690f60c96a0a9a64b48fbc","63691908923e988ada92a34a","887","","f","","","","","","","","./tasks/HMM-beads/Images/NewTrialBC.png","lowH","16","2","1","1","1","true","","","","","","","","","","","","","","","","",""
"image-keyboard-response","126","367516","0.0-4.0-6.0-1.0-1.16","63639d3bbd810ed5c307efc3","63690f60c96a0a9a64b48fbc","63691908923e988ada92a34a","null","","null","","","","","","","","./tasks/HMM-beads/Images/BlackBeadChoice.png","","","","","","","","","","","","","","","","","","","","","","","",""
"image-keyboard-response","127","368031","0.0-4.0-6.0-1.0-2.16","63639d3bbd810ed5c307efc3","63690f60c96a0a9a64b48fbc","63691908923e988ada92a34a","null","","null","","","","","","","","./tasks/HMM-beads/Images/BlackBeadChoiceCorrect.png","","","","","","","","","","","","","","","","","","","","","","","",""
"image-keyboard-response","128","368630","0.0-4.0-6.0-1.0-0.17","63639d3bbd810ed5c307efc3","63690f60c96a0a9a64b48fbc","63691908923e988ada92a34a","597","","f","","","","","","","","./tasks/HMM-beads/Images/NewTrialBC.png","lowH","17","2","2","1","1","false","","","","","","","","","","","","","","","","",""
"image-keyboard-response","129","368946","0.0-4.0-6.0-1.0-1.17","63639d3bbd810ed5c307efc3","63690f60c96a0a9a64b48fbc","63691908923e988ada92a34a","null","","null","","","","","","","","./tasks/HMM-beads/Images/BlackBeadChoice.png","","","","","","","","","","","","","","","","","","","","","","","",""
"image-keyboard-response","130","369456","0.0-4.0-6.0-1.0-2.17","63639d3bbd810ed5c307efc3","63690f60c96a0a9a64b48fbc","63691908923e988ada92a34a","null","","null","","","","","","","","./tasks/HMM-beads/Images/BlackBeadChoiceWrong.png","","","","","","","","","","","","","","","","","","","","","","","",""
"image-keyboard-response","131","369819","0.0-4.0-6.0-1.0-0.18","63639d3bbd810ed5c307efc3","63690f60c96a0a9a64b48fbc","63691908923e988ada92a34a","360","","j","","","","","","","","./tasks/HMM-beads/Images/NewTrialWC.png","lowH","18","2","2","2","2","true","","","","","","","","","","","","","","","","",""
"image-keyboard-response","132","370139","0.0-4.0-6.0-1.0-1.18","63639d3bbd810ed5c307efc3","63690f60c96a0a9a64b48fbc","63691908923e988ada92a34a","null","","null","","","","","","","","./tasks/HMM-beads/Images/WhiteBeadChoice.png","","","","","","","","","","","","","","","","","","","","","","","",""
"image-keyboard-response","133","370659","0.0-4.0-6.0-1.0-2.18","63639d3bbd810ed5c307efc3","63690f60c96a0a9a64b48fbc","63691908923e988ada92a34a","null","","null","","","","","","","","./tasks/HMM-beads/Images/WhiteBeadChoiceCorrect.png","","","","","","","","","","","","","","","","","","","","","","","",""
"image-keyboard-response","134","370997","0.0-4.0-6.0-1.0-0.19","63639d3bbd810ed5c307efc3","63690f60c96a0a9a64b48fbc","63691908923e988ada92a34a","336","","j","","","","","","","","./tasks/HMM-beads/Images/NewTrialWC.png","lowH","19","2","2","2","2","true","","","","","","","","","","","","","","","","",""
"image-keyboard-response","135","371317","0.0-4.0-6.0-1.0-1.19","63639d3bbd810ed5c307efc3","63690f60c96a0a9a64b48fbc","63691908923e988ada92a34a","null","","null","","","","","","","","./tasks/HMM-beads/Images/WhiteBeadChoice.png","","","","","","","","","","","","","","","","","","","","","","","",""
"image-keyboard-response","136","371837","0.0-4.0-6.0-1.0-2.19","63639d3bbd810ed5c307efc3","63690f60c96a0a9a64b48fbc","63691908923e988ada92a34a","null","","null","","","","","","","","./tasks/HMM-beads/Images/WhiteBeadChoiceCorrect.png","","","","","","","","","","","","","","","","","","","","","","","",""
"image-keyboard-response","137","372186","0.0-4.0-6.0-1.0-0.20","63639d3bbd810ed5c307efc3","63690f60c96a0a9a64b48fbc","63691908923e988ada92a34a","347","","j","","","","","","","","./tasks/HMM-beads/Images/NewTrialWC.png","lowH","20","2","2","2","2","true","","","","","","","","","","","","","","","","",""
"image-keyboard-response","138","372506","0.0-4.0-6.0-1.0-1.20","63639d3bbd810ed5c307efc3","63690f60c96a0a9a64b48fbc","63691908923e988ada92a34a","null","","null","","","","","","","","./tasks/HMM-beads/Images/WhiteBeadChoice.png","","","","","","","","","","","","","","","","","","","","","","","",""
"image-keyboard-response","139","373026","0.0-4.0-6.0-1.0-2.20","63639d3bbd810ed5c307efc3","63690f60c96a0a9a64b48fbc","63691908923e988ada92a34a","null","","null","","","","","","","","./tasks/HMM-beads/Images/WhiteBeadChoiceCorrect.png","","","","","","","","","","","","","","","","","","","","","","","",""
"image-keyboard-response","140","373403","0.0-4.0-6.0-1.0-0.21","63639d3bbd810ed5c307efc3","63690f60c96a0a9a64b48fbc","63691908923e988ada92a34a","375","","j","","","","","","","","./tasks/HMM-beads/Images/NewTrialWC.png","lowH","21","2","2","2","2","true","","","","","","","","","","","","","","","","",""
"image-keyboard-response","141","373711","0.0-4.0-6.0-1.0-1.21","63639d3bbd810ed5c307efc3","63690f60c96a0a9a64b48fbc","63691908923e988ada92a34a","null","","null","","","","","","","","./tasks/HMM-beads/Images/WhiteBeadChoice.png","","","","","","","","","","","","","","","","","","","","","","","",""
"image-keyboard-response","142","374232","0.0-4.0-6.0-1.0-2.21","63639d3bbd810ed5c307efc3","63690f60c96a0a9a64b48fbc","63691908923e988ada92a34a","null","","null","","","","","","","","./tasks/HMM-beads/Images/WhiteBeadChoiceCorrect.png","","","","","","","","","","","","","","","","","","","","","","","",""
"image-keyboard-response","143","374928","0.0-4.0-6.0-1.0-0.22","63639d3bbd810ed5c307efc3","63690f60c96a0a9a64b48fbc","63691908923e988ada92a34a","694","","f","","","","","","","","./tasks/HMM-beads/Images/NewTrialWC.png","lowH","22","2","2","2","1","false","","","","","","","","","","","","","","","","",""
"image-keyboard-response","144","375251","0.0-4.0-6.0-1.0-1.22","63639d3bbd810ed5c307efc3","63690f60c96a0a9a64b48fbc","63691908923e988ada92a34a","null","","null","","","","","","","","./tasks/HMM-beads/Images/BlackBeadChoice.png","","","","","","","","","","","","","","","","","","","","","","","",""
"image-keyboard-response","145","375771","0.0-4.0-6.0-1.0-2.22","63639d3bbd810ed5c307efc3","63690f60c96a0a9a64b48fbc","63691908923e988ada92a34a","null","","null","","","","","","","","./tasks/HMM-beads/Images/BlackBeadChoiceWrong.png","","","","","","","","","","","","","","","","","","","","","","","",""
"image-keyboard-response","146","376256","0.0-4.0-6.0-1.0-0.23","63639d3bbd810ed5c307efc3","63690f60c96a0a9a64b48fbc","63691908923e988ada92a34a","483","","f","","","","","","","","./tasks/HMM-beads/Images/NewTrialWC.png","lowH","23","2","2","2","1","false","","","","","","","","","","","","","","","","",""
"image-keyboard-response","147","376561","0.0-4.0-6.0-1.0-1.23","63639d3bbd810ed5c307efc3","63690f60c96a0a9a64b48fbc","63691908923e988ada92a34a","null","","null","","","","","","","","./tasks/HMM-beads/Images/BlackBeadChoice.png","","","","","","","","","","","","","","","","","","","","","","","",""
"image-keyboard-response","148","377081","0.0-4.0-6.0-1.0-2.23","63639d3bbd810ed5c307efc3","63690f60c96a0a9a64b48fbc","63691908923e988ada92a34a","null","","null","","","","","","","","./tasks/HMM-beads/Images/BlackBeadChoiceWrong.png","","","","","","","","","","","","","","","","","","","","","","","",""
"image-keyboard-response","149","377345","0.0-4.0-6.0-1.0-0.24","63639d3bbd810ed5c307efc3","63690f60c96a0a9a64b48fbc","63691908923e988ada92a34a","262","","j","","","","","","","","./tasks/HMM-beads/Images/NewTrialWC.png","lowH","24","2","2","2","2","true","","","","","","","","","","","","","","","","",""
"image-keyboard-response","150","377661","0.0-4.0-6.0-1.0-1.24","63639d3bbd810ed5c307efc3","63690f60c96a0a9a64b48fbc","63691908923e988ada92a34a","null","","null","","","","","","","","./tasks/HMM-beads/Images/WhiteBeadChoice.png","","","","","","","","","","","","","","","","","","","","","","","",""
"image-keyboard-response","151","378171","0.0-4.0-6.0-1.0-2.24","63639d3bbd810ed5c307efc3","63690f60c96a0a9a64b48fbc","63691908923e988ada92a34a","null","","null","","","","","","","","./tasks/HMM-beads/Images/WhiteBeadChoiceCorrect.png","","","","","","","","","","","","","","","","","","","","","","","",""
"image-keyboard-response","152","378593","0.0-4.0-6.0-1.0-0.25","63639d3bbd810ed5c307efc3","63690f60c96a0a9a64b48fbc","63691908923e988ada92a34a","420","","j","","","","","","","","./tasks/HMM-beads/Images/NewTrialWC.png","lowH","25","2","2","2","2","true","","","","","","","","","","","","","","","","",""
"image-keyboard-response","153","378911","0.0-4.0-6.0-1.0-1.25","63639d3bbd810ed5c307efc3","63690f60c96a0a9a64b48fbc","63691908923e988ada92a34a","null","","null","","","","","","","","./tasks/HMM-beads/Images/WhiteBeadChoice.png","","","","","","","","","","","","","","","","","","","","","","","",""
"image-keyboard-response","154","379431","0.0-4.0-6.0-1.0-2.25","63639d3bbd810ed5c307efc3","63690f60c96a0a9a64b48fbc","63691908923e988ada92a34a","null","","null","","","","","","","","./tasks/HMM-beads/Images/WhiteBeadChoiceCorrect.png","","","","","","","","","","","","","","","","","","","","","","","",""
"image-keyboard-response","155","379930","0.0-4.0-6.0-1.0-0.26","63639d3bbd810ed5c307efc3","63690f60c96a0a9a64b48fbc","63691908923e988ada92a34a","497","","j","","","","","","","","./tasks/HMM-beads/Images/NewTrialWC.png","lowH","26","2","2","2","2","true","","","","","","","","","","","","","","","","",""
"image-keyboard-response","156","380251","0.0-4.0-6.0-1.0-1.26","63639d3bbd810ed5c307efc3","63690f60c96a0a9a64b48fbc","63691908923e988ada92a34a","null","","null","","","","","","","","./tasks/HMM-beads/Images/WhiteBeadChoice.png","","","","","","","","","","","","","","","","","","","","","","","",""
"image-keyboard-response","157","380771","0.0-4.0-6.0-1.0-2.26","63639d3bbd810ed5c307efc3","63690f60c96a0a9a64b48fbc","63691908923e988ada92a34a","null","","null","","","","","","","","./tasks/HMM-beads/Images/WhiteBeadChoiceCorrect.png","","","","","","","","","","","","","","","","","","","","","","","",""
"image-keyboard-response","158","381167","0.0-4.0-6.0-1.0-0.27","63639d3bbd810ed5c307efc3","63690f60c96a0a9a64b48fbc","63691908923e988ada92a34a","394","","j","","","","","","","","./tasks/HMM-beads/Images/NewTrialWC.png","lowH","27","2","2","2","2","true","","","","","","","","","","","","","","","","",""
"image-keyboard-response","159","381476","0.0-4.0-6.0-1.0-1.27","63639d3bbd810ed5c307efc3","63690f60c96a0a9a64b48fbc","63691908923e988ada92a34a","null","","null","","","","","","","","./tasks/HMM-beads/Images/WhiteBeadChoice.png","","","","","","","","","","","","","","","","","","","","","","","",""
"image-keyboard-response","160","381991","0.0-4.0-6.0-1.0-2.27","63639d3bbd810ed5c307efc3","63690f60c96a0a9a64b48fbc","63691908923e988ada92a34a","null","","null","","","","","","","","./tasks/HMM-beads/Images/WhiteBeadChoiceCorrect.png","","","","","","","","","","","","","","","","","","","","","","","",""
"image-keyboard-response","161","382445","0.0-4.0-6.0-1.0-0.28","63639d3bbd810ed5c307efc3","63690f60c96a0a9a64b48fbc","63691908923e988ada92a34a","453","","j","","","","","","","","./tasks/HMM-beads/Images/NewTrialWC.png","lowH","28","2","2","2","2","true","","","","","","","","","","","","","","","","",""
"image-keyboard-response","162","382751","0.0-4.0-6.0-1.0-1.28","63639d3bbd810ed5c307efc3","63690f60c96a0a9a64b48fbc","63691908923e988ada92a34a","null","","null","","","","","","","","./tasks/HMM-beads/Images/WhiteBeadChoice.png","","","","","","","","","","","","","","","","","","","","","","","",""
"image-keyboard-response","163","383266","0.0-4.0-6.0-1.0-2.28","63639d3bbd810ed5c307efc3","63690f60c96a0a9a64b48fbc","63691908923e988ada92a34a","null","","null","","","","","","","","./tasks/HMM-beads/Images/WhiteBeadChoiceCorrect.png","","","","","","","","","","","","","","","","","","","","","","","",""
"image-keyboard-response","164","383683","0.0-4.0-6.0-1.0-0.29","63639d3bbd810ed5c307efc3","63690f60c96a0a9a64b48fbc","63691908923e988ada92a34a","415","","f","","","","","","","","./tasks/HMM-beads/Images/NewTrialWC.png","lowH","29","2","1","2","1","true","","","","","","","","","","","","","","","","",""
"image-keyboard-response","165","383994","0.0-4.0-6.0-1.0-1.29","63639d3bbd810ed5c307efc3","63690f60c96a0a9a64b48fbc","63691908923e988ada92a34a","null","","null","","","","","","","","./tasks/HMM-beads/Images/BlackBeadChoice.png","","","","","","","","","","","","","","","","","","","","","","","",""
"image-keyboard-response","166","384511","0.0-4.0-6.0-1.0-2.29","63639d3bbd810ed5c307efc3","63690f60c96a0a9a64b48fbc","63691908923e988ada92a34a","null","","null","","","","","","","","./tasks/HMM-beads/Images/BlackBeadChoiceCorrect.png","","","","","","","","","","","","","","","","","","","","","","","",""
"image-keyboard-response","167","385119","0.0-4.0-6.0-1.0-0.30","63639d3bbd810ed5c307efc3","63690f60c96a0a9a64b48fbc","63691908923e988ada92a34a","606","","f","","","","","","","","./tasks/HMM-beads/Images/NewTrialBC.png","lowH","30","2","2","1","1","false","","","","","","","","","","","","","","","","",""
"image-keyboard-response","168","385426","0.0-4.0-6.0-1.0-1.30","63639d3bbd810ed5c307efc3","63690f60c96a0a9a64b48fbc","63691908923e988ada92a34a","null","","null","","","","","","","","./tasks/HMM-beads/Images/BlackBeadChoice.png","","","","","","","","","","","","","","","","","","","","","","","",""
"image-keyboard-response","169","385946","0.0-4.0-6.0-1.0-2.30","63639d3bbd810ed5c307efc3","63690f60c96a0a9a64b48fbc","63691908923e988ada92a34a","null","","null","","","","","","","","./tasks/HMM-beads/Images/BlackBeadChoiceWrong.png","","","","","","","","","","","","","","","","","","","","","","","",""
"image-keyboard-response","170","386347","0.0-4.0-6.0-1.0-0.31","63639d3bbd810ed5c307efc3","63690f60c96a0a9a64b48fbc","63691908923e988ada92a34a","398","","j","","","","","","","","./tasks/HMM-beads/Images/NewTrialWC.png","lowH","31","2","1","2","2","false","","","","","","","","","","","","","","","","",""
"image-keyboard-response","171","386664","0.0-4.0-6.0-1.0-1.31","63639d3bbd810ed5c307efc3","63690f60c96a0a9a64b48fbc","63691908923e988ada92a34a","null","","null","","","","","","","","./tasks/HMM-beads/Images/WhiteBeadChoice.png","","","","","","","","","","","","","","","","","","","","","","","",""
"image-keyboard-response","172","387177","0.0-4.0-6.0-1.0-2.31","63639d3bbd810ed5c307efc3","63690f60c96a0a9a64b48fbc","63691908923e988ada92a34a","null","","null","","","","","","","","./tasks/HMM-beads/Images/WhiteBeadChoiceWrong.png","","","","","","","","","","","","","","","","","","","","","","","",""
"image-keyboard-response","173","387694","0.0-4.0-6.0-1.0-0.32","63639d3bbd810ed5c307efc3","63690f60c96a0a9a64b48fbc","63691908923e988ada92a34a","514","","j","","","","","","","","./tasks/HMM-beads/Images/NewTrialBC.png","lowH","32","2","2","1","2","true","","","","","","","","","","","","","","","","",""
"image-keyboard-response","174","388001","0.0-4.0-6.0-1.0-1.32","63639d3bbd810ed5c307efc3","63690f60c96a0a9a64b48fbc","63691908923e988ada92a34a","null","","null","","","","","","","","./tasks/HMM-beads/Images/WhiteBeadChoice.png","","","","","","","","","","","","","","","","","","","","","","","",""
"image-keyboard-response","175","388526","0.0-4.0-6.0-1.0-2.32","63639d3bbd810ed5c307efc3","63690f60c96a0a9a64b48fbc","63691908923e988ada92a34a","null","","null","","","","","","","","./tasks/HMM-beads/Images/WhiteBeadChoiceCorrect.png","","","","","","","","","","","","","","","","","","","","","","","",""
"image-keyboard-response","176","389041","0.0-4.0-6.0-1.0-0.33","63639d3bbd810ed5c307efc3","63690f60c96a0a9a64b48fbc","63691908923e988ada92a34a","513","","j","","","","","","","","./tasks/HMM-beads/Images/NewTrialWC.png","lowH","33","2","2","2","2","true","","","","","","","","","","","","","","","","",""
"image-keyboard-response","177","389356","0.0-4.0-6.0-1.0-1.33","63639d3bbd810ed5c307efc3","63690f60c96a0a9a64b48fbc","63691908923e988ada92a34a","null","","null","","","","","","","","./tasks/HMM-beads/Images/WhiteBeadChoice.png","","","","","","","","","","","","","","","","","","","","","","","",""
"image-keyboard-response","178","389866","0.0-4.0-6.0-1.0-2.33","63639d3bbd810ed5c307efc3","63690f60c96a0a9a64b48fbc","63691908923e988ada92a34a","null","","null","","","","","","","","./tasks/HMM-beads/Images/WhiteBeadChoiceCorrect.png","","","","","","","","","","","","","","","","","","","","","","","",""
"image-keyboard-response","179","390249","0.0-4.0-6.0-1.0-0.34","63639d3bbd810ed5c307efc3","63690f60c96a0a9a64b48fbc","63691908923e988ada92a34a","381","","j","","","","","","","","./tasks/HMM-beads/Images/NewTrialWC.png","lowH","34","2","2","2","2","true","","","","","","","","","","","","","","","","",""
"image-keyboard-response","180","390561","0.0-4.0-6.0-1.0-1.34","63639d3bbd810ed5c307efc3","63690f60c96a0a9a64b48fbc","63691908923e988ada92a34a","null","","null","","","","","","","","./tasks/HMM-beads/Images/WhiteBeadChoice.png","","","","","","","","","","","","","","","","","","","","","","","",""
"image-keyboard-response","181","391085","0.0-4.0-6.0-1.0-2.34","63639d3bbd810ed5c307efc3","63690f60c96a0a9a64b48fbc","63691908923e988ada92a34a","null","","null","","","","","","","","./tasks/HMM-beads/Images/WhiteBeadChoiceCorrect.png","","","","","","","","","","","","","","","","","","","","","","","",""
"image-keyboard-response","182","391418","0.0-4.0-6.0-1.0-0.35","63639d3bbd810ed5c307efc3","63690f60c96a0a9a64b48fbc","63691908923e988ada92a34a","331","","j","","","","","","","","./tasks/HMM-beads/Images/NewTrialWC.png","lowH","35","2","2","2","2","true","","","","","","","","","","","","","","","","",""
"image-keyboard-response","183","391728","0.0-4.0-6.0-1.0-1.35","63639d3bbd810ed5c307efc3","63690f60c96a0a9a64b48fbc","63691908923e988ada92a34a","null","","null","","","","","","","","./tasks/HMM-beads/Images/WhiteBeadChoice.png","","","","","","","","","","","","","","","","","","","","","","","",""
"image-keyboard-response","184","392246","0.0-4.0-6.0-1.0-2.35","63639d3bbd810ed5c307efc3","63690f60c96a0a9a64b48fbc","63691908923e988ada92a34a","null","","null","","","","","","","","./tasks/HMM-beads/Images/WhiteBeadChoiceCorrect.png","","","","","","","","","","","","","","","","","","","","","","","",""
"image-keyboard-response","185","392615","0.0-4.0-6.0-1.0-0.36","63639d3bbd810ed5c307efc3","63690f60c96a0a9a64b48fbc","63691908923e988ada92a34a","366","","j","","","","","","","","./tasks/HMM-beads/Images/NewTrialWC.png","lowH","36","2","2","2","2","true","","","","","","","","","","","","","","","","",""
"image-keyboard-response","186","392920","0.0-4.0-6.0-1.0-1.36","63639d3bbd810ed5c307efc3","63690f60c96a0a9a64b48fbc","63691908923e988ada92a34a","null","","null","","","","","","","","./tasks/HMM-beads/Images/WhiteBeadChoice.png","","","","","","","","","","","","","","","","","","","","","","","",""
"image-keyboard-response","187","393430","0.0-4.0-6.0-1.0-2.36","63639d3bbd810ed5c307efc3","63690f60c96a0a9a64b48fbc","63691908923e988ada92a34a","null","","null","","","","","","","","./tasks/HMM-beads/Images/WhiteBeadChoiceCorrect.png","","","","","","","","","","","","","","","","","","","","","","","",""
"image-keyboard-response","188","394052","0.0-4.0-6.0-1.0-0.37","63639d3bbd810ed5c307efc3","63690f60c96a0a9a64b48fbc","63691908923e988ada92a34a","619","","j","","","","","","","","./tasks/HMM-beads/Images/NewTrialWC.png","lowH","37","2","2","2","2","true","","","","","","","","","","","","","","","","",""
"image-keyboard-response","189","394371","0.0-4.0-6.0-1.0-1.37","63639d3bbd810ed5c307efc3","63690f60c96a0a9a64b48fbc","63691908923e988ada92a34a","null","","null","","","","","","","","./tasks/HMM-beads/Images/WhiteBeadChoice.png","","","","","","","","","","","","","","","","","","","","","","","",""
"image-keyboard-response","190","394895","0.0-4.0-6.0-1.0-2.37","63639d3bbd810ed5c307efc3","63690f60c96a0a9a64b48fbc","63691908923e988ada92a34a","null","","null","","","","","","","","./tasks/HMM-beads/Images/WhiteBeadChoiceCorrect.png","","","","","","","","","","","","","","","","","","","","","","","",""
"image-keyboard-response","191","395270","0.0-4.0-6.0-1.0-0.38","63639d3bbd810ed5c307efc3","63690f60c96a0a9a64b48fbc","63691908923e988ada92a34a","373","","f","","","","","","","","./tasks/HMM-beads/Images/NewTrialWC.png","lowH","38","2","2","2","1","false","","","","","","","","","","","","","","","","",""
"image-keyboard-response","192","395586","0.0-4.0-6.0-1.0-1.38","63639d3bbd810ed5c307efc3","63690f60c96a0a9a64b48fbc","63691908923e988ada92a34a","null","","null","","","","","","","","./tasks/HMM-beads/Images/BlackBeadChoice.png","","","","","","","","","","","","","","","","","","","","","","","",""
"image-keyboard-response","193","396106","0.0-4.0-6.0-1.0-2.38","63639d3bbd810ed5c307efc3","63690f60c96a0a9a64b48fbc","63691908923e988ada92a34a","null","","null","","","","","","","","./tasks/HMM-beads/Images/BlackBeadChoiceWrong.png","","","","","","","","","","","","","","","","","","","","","","","",""
"image-keyboard-response","194","396548","0.0-4.0-6.0-1.0-0.39","63639d3bbd810ed5c307efc3","63690f60c96a0a9a64b48fbc","63691908923e988ada92a34a","440","","j","","","","","","","","./tasks/HMM-beads/Images/NewTrialWC.png","lowH","39","2","1","2","2","false","","","","","","","","","","","","","","","","",""
"image-keyboard-response","195","396866","0.0-4.0-6.0-1.0-1.39","63639d3bbd810ed5c307efc3","63690f60c96a0a9a64b48fbc","63691908923e988ada92a34a","null","","null","","","","","","","","./tasks/HMM-beads/Images/WhiteBeadChoice.png","","","","","","","","","","","","","","","","","","","","","","","",""
"image-keyboard-response","196","397386","0.0-4.0-6.0-1.0-2.39","63639d3bbd810ed5c307efc3","63690f60c96a0a9a64b48fbc","63691908923e988ada92a34a","null","","null","","","","","","","","./tasks/HMM-beads/Images/WhiteBeadChoiceWrong.png","","","","","","","","","","","","","","","","","","","","","","","",""
"image-keyboard-response","197","397934","0.0-4.0-6.0-1.0-0.40","63639d3bbd810ed5c307efc3","63690f60c96a0a9a64b48fbc","63691908923e988ada92a34a","546","","f","","","","","","","","./tasks/HMM-beads/Images/NewTrialBC.png","lowH","40","2","2","1","1","false","","","","","","","","","","","","","","","","",""
"image-keyboard-response","198","398266","0.0-4.0-6.0-1.0-1.40","63639d3bbd810ed5c307efc3","63690f60c96a0a9a64b48fbc","63691908923e988ada92a34a","null","","null","","","","","","","","./tasks/HMM-beads/Images/BlackBeadChoice.png","","","","","","","","","","","","","","","","","","","","","","","",""
"image-keyboard-response","199","398789","0.0-4.0-6.0-1.0-2.40","63639d3bbd810ed5c307efc3","63690f60c96a0a9a64b48fbc","63691908923e988ada92a34a","null","","null","","","","","","","","./tasks/HMM-beads/Images/BlackBeadChoiceWrong.png","","","","","","","","","","","","","","","","","","","","","","","",""
"image-keyboard-response","200","399004","0.0-4.0-6.0-1.0-0.41","63639d3bbd810ed5c307efc3","63690f60c96a0a9a64b48fbc","63691908923e988ada92a34a","212","","j","","","","","","","","./tasks/HMM-beads/Images/NewTrialWC.png","lowH","41","2","1","2","2","false","","","","","","","","","","","","","","","","",""
"image-keyboard-response","201","399322","0.0-4.0-6.0-1.0-1.41","63639d3bbd810ed5c307efc3","63690f60c96a0a9a64b48fbc","63691908923e988ada92a34a","null","","null","","","","","","","","./tasks/HMM-beads/Images/WhiteBeadChoice.png","","","","","","","","","","","","","","","","","","","","","","","",""
"image-keyboard-response","202","399831","0.0-4.0-6.0-1.0-2.41","63639d3bbd810ed5c307efc3","63690f60c96a0a9a64b48fbc","63691908923e988ada92a34a","null","","null","","","","","","","","./tasks/HMM-beads/Images/WhiteBeadChoiceWrong.png","","","","","","","","","","","","","","","","","","","","","","","",""
"image-keyboard-response","203","400163","0.0-4.0-6.0-1.0-0.42","63639d3bbd810ed5c307efc3","63690f60c96a0a9a64b48fbc","63691908923e988ada92a34a","329","","j","","","","","","","","./tasks/HMM-beads/Images/NewTrialBC.png","lowH","42","2","1","1","2","false","","","","","","","","","","","","","","","","",""
"image-keyboard-response","204","400471","0.0-4.0-6.0-1.0-1.42","63639d3bbd810ed5c307efc3","63690f60c96a0a9a64b48fbc","63691908923e988ada92a34a","null","","null","","","","","","","","./tasks/HMM-beads/Images/WhiteBeadChoice.png","","","","","","","","","","","","","","","","","","","","","","","",""
"image-keyboard-response","205","400975","0.0-4.0-6.0-1.0-2.42","63639d3bbd810ed5c307efc3","63690f60c96a0a9a64b48fbc","63691908923e988ada92a34a","null","","null","","","","","","","","./tasks/HMM-beads/Images/WhiteBeadChoiceWrong.png","","","","","","","","","","","","","","","","","","","","","","","",""
"image-keyboard-response","206","401153","0.0-4.0-6.0-1.0-0.43","63639d3bbd810ed5c307efc3","63690f60c96a0a9a64b48fbc","63691908923e988ada92a34a","176","","f","","","","","","","","./tasks/HMM-beads/Images/NewTrialBC.png","lowH","43","2","2","1","1","false","","","","","","","","","","","","","","","","",""
"image-keyboard-response","207","401475","0.0-4.0-6.0-1.0-1.43","63639d3bbd810ed5c307efc3","63690f60c96a0a9a64b48fbc","63691908923e988ada92a34a","null","","null","","","","","","","","./tasks/HMM-beads/Images/BlackBeadChoice.png","","","","","","","","","","","","","","","","","","","","","","","",""
"image-keyboard-response","208","402002","0.0-4.0-6.0-1.0-2.43","63639d3bbd810ed5c307efc3","63690f60c96a0a9a64b48fbc","63691908923e988ada92a34a","null","","null","","","","","","","","./tasks/HMM-beads/Images/BlackBeadChoiceWrong.png","","","","","","","","","","","","","","","","","","","","","","","",""
"image-keyboard-response","209","402193","0.0-4.0-6.0-1.0-0.44","63639d3bbd810ed5c307efc3","63690f60c96a0a9a64b48fbc","63691908923e988ada92a34a","189","","j","","","","","","","","./tasks/HMM-beads/Images/NewTrialWC.png","lowH","44","2","2","2","2","true","","","","","","","","","","","","","","","","",""
"image-keyboard-response","210","402511","0.0-4.0-6.0-1.0-1.44","63639d3bbd810ed5c307efc3","63690f60c96a0a9a64b48fbc","63691908923e988ada92a34a","null","","null","","","","","","","","./tasks/HMM-beads/Images/WhiteBeadChoice.png","","","","","","","","","","","","","","","","","","","","","","","",""
"image-keyboard-response","211","403021","0.0-4.0-6.0-1.0-2.44","63639d3bbd810ed5c307efc3","63690f60c96a0a9a64b48fbc","63691908923e988ada92a34a","null","","null","","","","","","","","./tasks/HMM-beads/Images/WhiteBeadChoiceCorrect.png","","","","","","","","","","","","","","","","","","","","","","","",""
"image-keyboard-response","212","403173","0.0-4.0-6.0-1.0-0.45","63639d3bbd810ed5c307efc3","63690f60c96a0a9a64b48fbc","63691908923e988ada92a34a","149","","j","","","","","","","","./tasks/HMM-beads/Images/NewTrialWC.png","lowH","45","2","1","2","2","false","","","","","","","","","","","","","","","","",""
"image-keyboard-response","213","403481","0.0-4.0-6.0-1.0-1.45","63639d3bbd810ed5c307efc3","63690f60c96a0a9a64b48fbc","63691908923e988ada92a34a","null","","null","","","","","","","","./tasks/HMM-beads/Images/WhiteBeadChoice.png","","","","","","","","","","","","","","","","","","","","","","","",""
"image-keyboard-response","214","403996","0.0-4.0-6.0-1.0-2.45","63639d3bbd810ed5c307efc3","63690f60c96a0a9a64b48fbc","63691908923e988ada92a34a","null","","null","","","","","","","","./tasks/HMM-beads/Images/WhiteBeadChoiceWrong.png","","","","","","","","","","","","","","","","","","","","","","","",""
"image-keyboard-response","215","404114","0.0-4.0-6.0-1.0-0.46","63639d3bbd810ed5c307efc3","63690f60c96a0a9a64b48fbc","63691908923e988ada92a34a","116","","j","","","","","","","","./tasks/HMM-beads/Images/NewTrialBC.png","lowH","46","2","2","1","2","true","","","","","","","","","","","","","","","","",""
"image-keyboard-response","216","404450","0.0-4.0-6.0-1.0-1.46","63639d3bbd810ed5c307efc3","63690f60c96a0a9a64b48fbc","63691908923e988ada92a34a","null","","null","","","","","","","","./tasks/HMM-beads/Images/WhiteBeadChoice.png","","","","","","","","","","","","","","","","","","","","","","","",""
"image-keyboard-response","217","404963","0.0-4.0-6.0-1.0-2.46","63639d3bbd810ed5c307efc3","63690f60c96a0a9a64b48fbc","63691908923e988ada92a34a","null","","null","","","","","","","","./tasks/HMM-beads/Images/WhiteBeadChoiceCorrect.png","","","","","","","","","","","","","","","","","","","","","","","",""
"image-keyboard-response","218","405015","0.0-4.0-6.0-1.0-0.47","63639d3bbd810ed5c307efc3","63690f60c96a0a9a64b48fbc","63691908923e988ada92a34a","50","","j","","","","","","","","./tasks/HMM-beads/Images/NewTrialWC.png","lowH","47","2","2","2","2","true","","","","","","","","","","","","","","","","",""
"image-keyboard-response","219","405325","0.0-4.0-6.0-1.0-1.47","63639d3bbd810ed5c307efc3","63690f60c96a0a9a64b48fbc","63691908923e988ada92a34a","null","","null","","","","","","","","./tasks/HMM-beads/Images/WhiteBeadChoice.png","","","","","","","","","","","","","","","","","","","","","","","",""
"image-keyboard-response","220","405840","0.0-4.0-6.0-1.0-2.47","63639d3bbd810ed5c307efc3","63690f60c96a0a9a64b48fbc","63691908923e988ada92a34a","null","","null","","","","","","","","./tasks/HMM-beads/Images/WhiteBeadChoiceCorrect.png","","","","","","","","","","","","","","","","","","","","","","","",""
"image-keyboard-response","221","406174","0.0-4.0-6.0-1.0-0.48","63639d3bbd810ed5c307efc3","63690f60c96a0a9a64b48fbc","63691908923e988ada92a34a","331","","j","","","","","","","","./tasks/HMM-beads/Images/NewTrialWC.png","lowH","48","2","2","2","2","true","","","","","","","","","","","","","","","","",""
"image-keyboard-response","222","406480","0.0-4.0-6.0-1.0-1.48","63639d3bbd810ed5c307efc3","63690f60c96a0a9a64b48fbc","63691908923e988ada92a34a","null","","null","","","","","","","","./tasks/HMM-beads/Images/WhiteBeadChoice.png","","","","","","","","","","","","","","","","","","","","","","","",""
"image-keyboard-response","223","406990","0.0-4.0-6.0-1.0-2.48","63639d3bbd810ed5c307efc3","63690f60c96a0a9a64b48fbc","63691908923e988ada92a34a","null","","null","","","","","","","","./tasks/HMM-beads/Images/WhiteBeadChoiceCorrect.png","","","","","","","","","","","","","","","","","","","","","","","",""
"image-keyboard-response","224","407768","0.0-4.0-6.0-1.0-0.49","63639d3bbd810ed5c307efc3","63690f60c96a0a9a64b48fbc","63691908923e988ada92a34a","776","","j","","","","","","","","./tasks/HMM-beads/Images/NewTrialWC.png","lowH","49","2","2","2","2","true","","","","","","","","","","","","","","","","",""
"image-keyboard-response","225","408081","0.0-4.0-6.0-1.0-1.49","63639d3bbd810ed5c307efc3","63690f60c96a0a9a64b48fbc","63691908923e988ada92a34a","null","","null","","","","","","","","./tasks/HMM-beads/Images/WhiteBeadChoice.png","","","","","","","","","","","","","","","","","","","","","","","",""
"image-keyboard-response","226","408590","0.0-4.0-6.0-1.0-2.49","63639d3bbd810ed5c307efc3","63690f60c96a0a9a64b48fbc","63691908923e988ada92a34a","null","","null","","","","","","","","./tasks/HMM-beads/Images/WhiteBeadChoiceCorrect.png","","","","","","","","","","","","","","","","","","","","","","","",""
"image-keyboard-response","227","409472","0.0-4.0-6.0-1.0-0.50","63639d3bbd810ed5c307efc3","63690f60c96a0a9a64b48fbc","63691908923e988ada92a34a","880","","j","","","","","","","","./tasks/HMM-beads/Images/NewTrialWC.png","lowH","50","2","1","2","2","false","","","","","","","","","","","","","","","","",""
"image-keyboard-response","228","409790","0.0-4.0-6.0-1.0-1.50","63639d3bbd810ed5c307efc3","63690f60c96a0a9a64b48fbc","63691908923e988ada92a34a","null","","null","","","","","","","","./tasks/HMM-beads/Images/WhiteBeadChoice.png","","","","","","","","","","","","","","","","","","","","","","","",""
"image-keyboard-response","229","410305","0.0-4.0-6.0-1.0-2.50","63639d3bbd810ed5c307efc3","63690f60c96a0a9a64b48fbc","63691908923e988ada92a34a","null","","null","","","","","","","","./tasks/HMM-beads/Images/WhiteBeadChoiceWrong.png","","","","","","","","","","","","","","","","","","","","","","","",""
"image-keyboard-response","230","410948","0.0-4.0-6.0-1.0-0.51","63639d3bbd810ed5c307efc3","63690f60c96a0a9a64b48fbc","63691908923e988ada92a34a","640","","j","","","","","","","","./tasks/HMM-beads/Images/NewTrialBC.png","lowH","51","2","1","1","2","false","","","","","","","","","","","","","","","","",""
"image-keyboard-response","231","411265","0.0-4.0-6.0-1.0-1.51","63639d3bbd810ed5c307efc3","63690f60c96a0a9a64b48fbc","63691908923e988ada92a34a","null","","null","","","","","","","","./tasks/HMM-beads/Images/WhiteBeadChoice.png","","","","","","","","","","","","","","","","","","","","","","","",""
"image-keyboard-response","232","411776","0.0-4.0-6.0-1.0-2.51","63639d3bbd810ed5c307efc3","63690f60c96a0a9a64b48fbc","63691908923e988ada92a34a","null","","null","","","","","","","","./tasks/HMM-beads/Images/WhiteBeadChoiceWrong.png","","","","","","","","","","","","","","","","","","","","","","","",""
"image-keyboard-response","233","412077","0.0-4.0-6.0-1.0-0.52","63639d3bbd810ed5c307efc3","63690f60c96a0a9a64b48fbc","63691908923e988ada92a34a","299","","j","","","","","","","","./tasks/HMM-beads/Images/NewTrialBC.png","lowH","52","2","2","1","2","true","","","","","","","","","","","","","","","","",""
"image-keyboard-response","234","412396","0.0-4.0-6.0-1.0-1.52","63639d3bbd810ed5c307efc3","63690f60c96a0a9a64b48fbc","63691908923e988ada92a34a","null","","null","","","","","","","","./tasks/HMM-beads/Images/WhiteBeadChoice.png","","","","","","","","","","","","","","","","","","","","","","","",""
"image-keyboard-response","235","412908","0.0-4.0-6.0-1.0-2.52","63639d3bbd810ed5c307efc3","63690f60c96a0a9a64b48fbc","63691908923e988ada92a34a","null","","null","","","","","","","","./tasks/HMM-beads/Images/WhiteBeadChoiceCorrect.png","","","","","","","","","","","","","","","","","","","","","","","",""
"image-keyboard-response","236","413513","0.0-4.0-6.0-1.0-0.53","63639d3bbd810ed5c307efc3","63690f60c96a0a9a64b48fbc","63691908923e988ada92a34a","604","","j","","","","","","","","./tasks/HMM-beads/Images/NewTrialWC.png","lowH","53","2","2","2","2","true","","","","","","","","","","","","","","","","",""
"image-keyboard-response","237","413831","0.0-4.0-6.0-1.0-1.53","63639d3bbd810ed5c307efc3","63690f60c96a0a9a64b48fbc","63691908923e988ada92a34a","null","","null","","","","","","","","./tasks/HMM-beads/Images/WhiteBeadChoice.png","","","","","","","","","","","","","","","","","","","","","","","",""
"image-keyboard-response","238","414343","0.0-4.0-6.0-1.0-2.53","63639d3bbd810ed5c307efc3","63690f60c96a0a9a64b48fbc","63691908923e988ada92a34a","null","","null","","","","","","","","./tasks/HMM-beads/Images/WhiteBeadChoiceCorrect.png","","","","","","","","","","","","","","","","","","","","","","","",""
"image-keyboard-response","239","414751","0.0-4.0-6.0-1.0-0.54","63639d3bbd810ed5c307efc3","63690f60c96a0a9a64b48fbc","63691908923e988ada92a34a","394","","j","","","","","","","","./tasks/HMM-beads/Images/NewTrialWC.png","lowH","54","2","2","2","2","true","","","","","","","","","","","","","","","","",""
"image-keyboard-response","240","415068","0.0-4.0-6.0-1.0-1.54","63639d3bbd810ed5c307efc3","63690f60c96a0a9a64b48fbc","63691908923e988ada92a34a","null","","null","","","","","","","","./tasks/HMM-beads/Images/WhiteBeadChoice.png","","","","","","","","","","","","","","","","","","","","","","","",""
"image-keyboard-response","241","415576","0.0-4.0-6.0-1.0-2.54","63639d3bbd810ed5c307efc3","63690f60c96a0a9a64b48fbc","63691908923e988ada92a34a","null","","null","","","","","","","","./tasks/HMM-beads/Images/WhiteBeadChoiceCorrect.png","","","","","","","","","","","","","","","","","","","","","","","",""
"image-keyboard-response","242","415801","0.0-4.0-6.0-1.0-0.55","63639d3bbd810ed5c307efc3","63690f60c96a0a9a64b48fbc","63691908923e988ada92a34a","222","","j","","","","","","","","./tasks/HMM-beads/Images/NewTrialWC.png","lowH","55","2","2","2","2","true","","","","","","","","","","","","","","","","",""
"image-keyboard-response","243","416121","0.0-4.0-6.0-1.0-1.55","63639d3bbd810ed5c307efc3","63690f60c96a0a9a64b48fbc","63691908923e988ada92a34a","null","","null","","","","","","","","./tasks/HMM-beads/Images/WhiteBeadChoice.png","","","","","","","","","","","","","","","","","","","","","","","",""
"image-keyboard-response","244","416631","0.0-4.0-6.0-1.0-2.55","63639d3bbd810ed5c307efc3","63690f60c96a0a9a64b48fbc","63691908923e988ada92a34a","null","","null","","","","","","","","./tasks/HMM-beads/Images/WhiteBeadChoiceCorrect.png","","","","","","","","","","","","","","","","","","","","","","","",""
"image-keyboard-response","245","416968","0.0-4.0-6.0-1.0-0.56","63639d3bbd810ed5c307efc3","63690f60c96a0a9a64b48fbc","63691908923e988ada92a34a","335","","j","","","","","","","","./tasks/HMM-beads/Images/NewTrialWC.png","lowH","56","2","1","2","2","false","","","","","","","","","","","","","","","","",""
"image-keyboard-response","246","417286","0.0-4.0-6.0-1.0-1.56","63639d3bbd810ed5c307efc3","63690f60c96a0a9a64b48fbc","63691908923e988ada92a34a","null","","null","","","","","","","","./tasks/HMM-beads/Images/WhiteBeadChoice.png","","","","","","","","","","","","","","","","","","","","","","","",""
"image-keyboard-response","247","417796","0.0-4.0-6.0-1.0-2.56","63639d3bbd810ed5c307efc3","63690f60c96a0a9a64b48fbc","63691908923e988ada92a34a","null","","null","","","","","","","","./tasks/HMM-beads/Images/WhiteBeadChoiceWrong.png","","","","","","","","","","","","","","","","","","","","","","","",""
"image-keyboard-response","248","417940","0.0-4.0-6.0-1.0-0.57","63639d3bbd810ed5c307efc3","63690f60c96a0a9a64b48fbc","63691908923e988ada92a34a","141","","j","","","","","","","","./tasks/HMM-beads/Images/NewTrialBC.png","lowH","57","2","2","1","2","true","","","","","","","","","","","","","","","","",""
"image-keyboard-response","249","418256","0.0-4.0-6.0-1.0-1.57","63639d3bbd810ed5c307efc3","63690f60c96a0a9a64b48fbc","63691908923e988ada92a34a","null","","null","","","","","","","","./tasks/HMM-beads/Images/WhiteBeadChoice.png","","","","","","","","","","","","","","","","","","","","","","","",""
"image-keyboard-response","250","418761","0.0-4.0-6.0-1.0-2.57","63639d3bbd810ed5c307efc3","63690f60c96a0a9a64b48fbc","63691908923e988ada92a34a","null","","null","","","","","","","","./tasks/HMM-beads/Images/WhiteBeadChoiceCorrect.png","","","","","","","","","","","","","","","","","","","","","","","",""
"image-keyboard-response","251","419010","0.0-4.0-6.0-1.0-0.58","63639d3bbd810ed5c307efc3","63690f60c96a0a9a64b48fbc","63691908923e988ada92a34a","247","","j","","","","","","","","./tasks/HMM-beads/Images/NewTrialWC.png","lowH","58","2","1","2","2","false","","","","","","","","","","","","","","","","",""
"image-keyboard-response","252","419321","0.0-4.0-6.0-1.0-1.58","63639d3bbd810ed5c307efc3","63690f60c96a0a9a64b48fbc","63691908923e988ada92a34a","null","","null","","","","","","","","./tasks/HMM-beads/Images/WhiteBeadChoice.png","","","","","","","","","","","","","","","","","","","","","","","",""
"image-keyboard-response","253","419836","0.0-4.0-6.0-1.0-2.58","63639d3bbd810ed5c307efc3","63690f60c96a0a9a64b48fbc","63691908923e988ada92a34a","null","","null","","","","","","","","./tasks/HMM-beads/Images/WhiteBeadChoiceWrong.png","","","","","","","","","","","","","","","","","","","","","","","",""
"image-keyboard-response","254","420535","0.0-4.0-6.0-1.0-0.59","63639d3bbd810ed5c307efc3","63690f60c96a0a9a64b48fbc","63691908923e988ada92a34a","697","","j","","","","","","","","./tasks/HMM-beads/Images/NewTrialBC.png","lowH","59","2","1","1","2","false","","","","","","","","","","","","","","","","",""
"image-keyboard-response","255","420851","0.0-4.0-6.0-1.0-1.59","63639d3bbd810ed5c307efc3","63690f60c96a0a9a64b48fbc","63691908923e988ada92a34a","null","","null","","","","","","","","./tasks/HMM-beads/Images/WhiteBeadChoice.png","","","","","","","","","","","","","","","","","","","","","","","",""
"image-keyboard-response","256","421361","0.0-4.0-6.0-1.0-2.59","63639d3bbd810ed5c307efc3","63690f60c96a0a9a64b48fbc","63691908923e988ada92a34a","null","","null","","","","","","","","./tasks/HMM-beads/Images/WhiteBeadChoiceWrong.png","","","","","","","","","","","","","","","","","","","","","","","",""
"image-keyboard-response","257","421685","0.0-4.0-6.0-1.0-0.60","63639d3bbd810ed5c307efc3","63690f60c96a0a9a64b48fbc","63691908923e988ada92a34a","321","","j","","","","","","","","./tasks/HMM-beads/Images/NewTrialBC.png","lowH","60","2","2","1","2","true","","","","","","","","","","","","","","","","",""
"image-keyboard-response","258","421995","0.0-4.0-6.0-1.0-1.60","63639d3bbd810ed5c307efc3","63690f60c96a0a9a64b48fbc","63691908923e988ada92a34a","null","","null","","","","","","","","./tasks/HMM-beads/Images/WhiteBeadChoice.png","","","","","","","","","","","","","","","","","","","","","","","",""
"image-keyboard-response","259","422517","0.0-4.0-6.0-1.0-2.60","63639d3bbd810ed5c307efc3","63690f60c96a0a9a64b48fbc","63691908923e988ada92a34a","null","","null","","","","","","","","./tasks/HMM-beads/Images/WhiteBeadChoiceCorrect.png","","","","","","","","","","","","","","","","","","","","","","","",""
"image-keyboard-response","260","422951","0.0-4.0-6.0-1.0-0.61","63639d3bbd810ed5c307efc3","63690f60c96a0a9a64b48fbc","63691908923e988ada92a34a","433","","j","","","","","","","","./tasks/HMM-beads/Images/NewTrialWC.png","lowH","61","2","2","2","2","true","","","","","","","","","","","","","","","","",""
"image-keyboard-response","261","423255","0.0-4.0-6.0-1.0-1.61","63639d3bbd810ed5c307efc3","63690f60c96a0a9a64b48fbc","63691908923e988ada92a34a","null","","null","","","","","","","","./tasks/HMM-beads/Images/WhiteBeadChoice.png","","","","","","","","","","","","","","","","","","","","","","","",""
"image-keyboard-response","262","423761","0.0-4.0-6.0-1.0-2.61","63639d3bbd810ed5c307efc3","63690f60c96a0a9a64b48fbc","63691908923e988ada92a34a","null","","null","","","","","","","","./tasks/HMM-beads/Images/WhiteBeadChoiceCorrect.png","","","","","","","","","","","","","","","","","","","","","","","",""
"image-keyboard-response","263","424239","0.0-4.0-6.0-1.0-0.62","63639d3bbd810ed5c307efc3","63690f60c96a0a9a64b48fbc","63691908923e988ada92a34a","476","","j","","","","","","","","./tasks/HMM-beads/Images/NewTrialWC.png","lowH","62","2","2","2","2","true","","","","","","","","","","","","","","","","",""
"image-keyboard-response","264","424556","0.0-4.0-6.0-1.0-1.62","63639d3bbd810ed5c307efc3","63690f60c96a0a9a64b48fbc","63691908923e988ada92a34a","null","","null","","","","","","","","./tasks/HMM-beads/Images/WhiteBeadChoice.png","","","","","","","","","","","","","","","","","","","","","","","",""
"image-keyboard-response","265","425076","0.0-4.0-6.0-1.0-2.62","63639d3bbd810ed5c307efc3","63690f60c96a0a9a64b48fbc","63691908923e988ada92a34a","null","","null","","","","","","","","./tasks/HMM-beads/Images/WhiteBeadChoiceCorrect.png","","","","","","","","","","","","","","","","","","","","","","","",""
"image-keyboard-response","266","425685","0.0-4.0-6.0-1.0-0.63","63639d3bbd810ed5c307efc3","63690f60c96a0a9a64b48fbc","63691908923e988ada92a34a","607","","j","","","","","","","","./tasks/HMM-beads/Images/NewTrialWC.png","lowH","63","2","1","2","2","false","","","","","","","","","","","","","","","","",""
"image-keyboard-response","267","425996","0.0-4.0-6.0-1.0-1.63","63639d3bbd810ed5c307efc3","63690f60c96a0a9a64b48fbc","63691908923e988ada92a34a","null","","null","","","","","","","","./tasks/HMM-beads/Images/WhiteBeadChoice.png","","","","","","","","","","","","","","","","","","","","","","","",""
"image-keyboard-response","268","426516","0.0-4.0-6.0-1.0-2.63","63639d3bbd810ed5c307efc3","63690f60c96a0a9a64b48fbc","63691908923e988ada92a34a","null","","null","","","","","","","","./tasks/HMM-beads/Images/WhiteBeadChoiceWrong.png","","","","","","","","","","","","","","","","","","","","","","","",""
"image-keyboard-response","269","427349","0.0-4.0-6.0-1.0-0.64","63639d3bbd810ed5c307efc3","63690f60c96a0a9a64b48fbc","63691908923e988ada92a34a","831","","j","","","","","","","","./tasks/HMM-beads/Images/NewTrialBC.png","lowH","64","2","2","1","2","true","","","","","","","","","","","","","","","","",""
"image-keyboard-response","270","427662","0.0-4.0-6.0-1.0-1.64","63639d3bbd810ed5c307efc3","63690f60c96a0a9a64b48fbc","63691908923e988ada92a34a","null","","null","","","","","","","","./tasks/HMM-beads/Images/WhiteBeadChoice.png","","","","","","","","","","","","","","","","","","","","","","","",""
"image-keyboard-response","271","428181","0.0-4.0-6.0-1.0-2.64","63639d3bbd810ed5c307efc3","63690f60c96a0a9a64b48fbc","63691908923e988ada92a34a","null","","null","","","","","","","","./tasks/HMM-beads/Images/WhiteBeadChoiceCorrect.png","","","","","","","","","","","","","","","","","","","","","","","",""
"image-keyboard-response","272","428795","0.0-4.0-6.0-1.0-0.65","63639d3bbd810ed5c307efc3","63690f60c96a0a9a64b48fbc","63691908923e988ada92a34a","612","","j","","","","","","","","./tasks/HMM-beads/Images/NewTrialWC.png","lowH","65","2","2","2","2","true","","","","","","","","","","","","","","","","",""
"image-keyboard-response","273","429115","0.0-4.0-6.0-1.0-1.65","63639d3bbd810ed5c307efc3","63690f60c96a0a9a64b48fbc","63691908923e988ada92a34a","null","","null","","","","","","","","./tasks/HMM-beads/Images/WhiteBeadChoice.png","","","","","","","","","","","","","","","","","","","","","","","",""
"image-keyboard-response","274","429632","0.0-4.0-6.0-1.0-2.65","63639d3bbd810ed5c307efc3","63690f60c96a0a9a64b48fbc","63691908923e988ada92a34a","null","","null","","","","","","","","./tasks/HMM-beads/Images/WhiteBeadChoiceCorrect.png","","","","","","","","","","","","","","","","","","","","","","","",""
"image-keyboard-response","275","430034","0.0-4.0-6.0-1.0-0.66","63639d3bbd810ed5c307efc3","63690f60c96a0a9a64b48fbc","63691908923e988ada92a34a","399","","j","","","","","","","","./tasks/HMM-beads/Images/NewTrialWC.png","lowH","66","2","1","2","2","false","","","","","","","","","","","","","","","","",""
"image-keyboard-response","276","430346","0.0-4.0-6.0-1.0-1.66","63639d3bbd810ed5c307efc3","63690f60c96a0a9a64b48fbc","63691908923e988ada92a34a","null","","null","","","","","","","","./tasks/HMM-beads/Images/WhiteBeadChoice.png","","","","","","","","","","","","","","","","","","","","","","","",""
"image-keyboard-response","277","430866","0.0-4.0-6.0-1.0-2.66","63639d3bbd810ed5c307efc3","63690f60c96a0a9a64b48fbc","63691908923e988ada92a34a","null","","null","","","","","","","","./tasks/HMM-beads/Images/WhiteBeadChoiceWrong.png","","","","","","","","","","","","","","","","","","","","","","","",""
"image-keyboard-response","278","431093","0.0-4.0-6.0-1.0-0.67","63639d3bbd810ed5c307efc3","63690f60c96a0a9a64b48fbc","63691908923e988ada92a34a","225","","j","","","","","","","","./tasks/HMM-beads/Images/NewTrialBC.png","lowH","67","2","2","1","2","true","","","","","","","","","","","","","","","","",""
"image-keyboard-response","279","431401","0.0-4.0-6.0-1.0-1.67","63639d3bbd810ed5c307efc3","63690f60c96a0a9a64b48fbc","63691908923e988ada92a34a","null","","null","","","","","","","","./tasks/HMM-beads/Images/WhiteBeadChoice.png","","","","","","","","","","","","","","","","","","","","","","","",""
"image-keyboard-response","280","431922","0.0-4.0-6.0-1.0-2.67","63639d3bbd810ed5c307efc3","63690f60c96a0a9a64b48fbc","63691908923e988ada92a34a","null","","null","","","","","","","","./tasks/HMM-beads/Images/WhiteBeadChoiceCorrect.png","","","","","","","","","","","","","","","","","","","","","","","",""
"image-keyboard-response","281","432301","0.0-4.0-6.0-1.0-0.68","63639d3bbd810ed5c307efc3","63690f60c96a0a9a64b48fbc","63691908923e988ada92a34a","377","","j","","","","","","","","./tasks/HMM-beads/Images/NewTrialWC.png","lowH","68","2","2","2","2","true","","","","","","","","","","","","","","","","",""
"image-keyboard-response","282","432616","0.0-4.0-6.0-1.0-1.68","63639d3bbd810ed5c307efc3","63690f60c96a0a9a64b48fbc","63691908923e988ada92a34a","null","","null","","","","","","","","./tasks/HMM-beads/Images/WhiteBeadChoice.png","","","","","","","","","","","","","","","","","","","","","","","",""
"image-keyboard-response","283","433126","0.0-4.0-6.0-1.0-2.68","63639d3bbd810ed5c307efc3","63690f60c96a0a9a64b48fbc","63691908923e988ada92a34a","null","","null","","","","","","","","./tasks/HMM-beads/Images/WhiteBeadChoiceCorrect.png","","","","","","","","","","","","","","","","","","","","","","","",""
"image-keyboard-response","284","433371","0.0-4.0-6.0-1.0-0.69","63639d3bbd810ed5c307efc3","63690f60c96a0a9a64b48fbc","63691908923e988ada92a34a","242","","j","","","","","","","","./tasks/HMM-beads/Images/NewTrialWC.png","lowH","69","2","2","2","2","true","","","","","","","","","","","","","","","","",""
"image-keyboard-response","285","433691","0.0-4.0-6.0-1.0-1.69","63639d3bbd810ed5c307efc3","63690f60c96a0a9a64b48fbc","63691908923e988ada92a34a","null","","null","","","","","","","","./tasks/HMM-beads/Images/WhiteBeadChoice.png","","","","","","","","","","","","","","","","","","","","","","","",""
"image-keyboard-response","286","434212","0.0-4.0-6.0-1.0-2.69","63639d3bbd810ed5c307efc3","63690f60c96a0a9a64b48fbc","63691908923e988ada92a34a","null","","null","","","","","","","","./tasks/HMM-beads/Images/WhiteBeadChoiceCorrect.png","","","","","","","","","","","","","","","","","","","","","","","",""
"image-keyboard-response","287","434520","0.0-4.0-6.0-1.0-0.70","63639d3bbd810ed5c307efc3","63690f60c96a0a9a64b48fbc","63691908923e988ada92a34a","306","","j","","","","","","","","./tasks/HMM-beads/Images/NewTrialWC.png","lowH","70","2","2","2","2","true","","","","","","","","","","","","","","","","",""
"image-keyboard-response","288","434832","0.0-4.0-6.0-1.0-1.70","63639d3bbd810ed5c307efc3","63690f60c96a0a9a64b48fbc","63691908923e988ada92a34a","null","","null","","","","","","","","./tasks/HMM-beads/Images/WhiteBeadChoice.png","","","","","","","","","","","","","","","","","","","","","","","",""
"image-keyboard-response","289","435351","0.0-4.0-6.0-1.0-2.70","63639d3bbd810ed5c307efc3","63690f60c96a0a9a64b48fbc","63691908923e988ada92a34a","null","","null","","","","","","","","./tasks/HMM-beads/Images/WhiteBeadChoiceCorrect.png","","","","","","","","","","","","","","","","","","","","","","","",""
"image-keyboard-response","290","435589","0.0-4.0-6.0-1.0-0.71","63639d3bbd810ed5c307efc3","63690f60c96a0a9a64b48fbc","63691908923e988ada92a34a","236","","j","","","","","","","","./tasks/HMM-beads/Images/NewTrialWC.png","lowH","71","2","2","2","2","true","","","","","","","","","","","","","","","","",""
"image-keyboard-response","291","435896","0.0-4.0-6.0-1.0-1.71","63639d3bbd810ed5c307efc3","63690f60c96a0a9a64b48fbc","63691908923e988ada92a34a","null","","null","","","","","","","","./tasks/HMM-beads/Images/WhiteBeadChoice.png","","","","","","","","","","","","","","","","","","","","","","","",""
"image-keyboard-response","292","436406","0.0-4.0-6.0-1.0-2.71","63639d3bbd810ed5c307efc3","63690f60c96a0a9a64b48fbc","63691908923e988ada92a34a","null","","null","","","","","","","","./tasks/HMM-beads/Images/WhiteBeadChoiceCorrect.png","","","","","","","","","","","","","","","","","","","","","","","",""
"image-keyboard-response","293","436629","0.0-4.0-6.0-1.0-0.72","63639d3bbd810ed5c307efc3","63690f60c96a0a9a64b48fbc","63691908923e988ada92a34a","221","","j","","","","","","","","./tasks/HMM-beads/Images/NewTrialWC.png","lowH","72","2","1","2","2","false","","","","","","","","","","","","","","","","",""
"image-keyboard-response","294","436936","0.0-4.0-6.0-1.0-1.72","63639d3bbd810ed5c307efc3","63690f60c96a0a9a64b48fbc","63691908923e988ada92a34a","null","","null","","","","","","","","./tasks/HMM-beads/Images/WhiteBeadChoice.png","","","","","","","","","","","","","","","","","","","","","","","",""
"image-keyboard-response","295","437451","0.0-4.0-6.0-1.0-2.72","63639d3bbd810ed5c307efc3","63690f60c96a0a9a64b48fbc","63691908923e988ada92a34a","null","","null","","","","","","","","./tasks/HMM-beads/Images/WhiteBeadChoiceWrong.png","","","","","","","","","","","","","","","","","","","","","","","",""
"image-keyboard-response","296","437649","0.0-4.0-6.0-1.0-0.73","63639d3bbd810ed5c307efc3","63690f60c96a0a9a64b48fbc","63691908923e988ada92a34a","196","","f","","","","","","","","./tasks/HMM-beads/Images/NewTrialBC.png","lowH","73","2","2","1","1","false","","","","","","","","","","","","","","","","",""
"image-keyboard-response","297","437961","0.0-4.0-6.0-1.0-1.73","63639d3bbd810ed5c307efc3","63690f60c96a0a9a64b48fbc","63691908923e988ada92a34a","null","","null","","","","","","","","./tasks/HMM-beads/Images/BlackBeadChoice.png","","","","","","","","","","","","","","","","","","","","","","","",""
"image-keyboard-response","298","438476","0.0-4.0-6.0-1.0-2.73","63639d3bbd810ed5c307efc3","63690f60c96a0a9a64b48fbc","63691908923e988ada92a34a","null","","null","","","","","","","","./tasks/HMM-beads/Images/BlackBeadChoiceWrong.png","","","","","","","","","","","","","","","","","","","","","","","",""
"image-keyboard-response","299","439026","0.0-4.0-6.0-1.0-0.74","63639d3bbd810ed5c307efc3","63690f60c96a0a9a64b48fbc","63691908923e988ada92a34a","548","","j","","","","","","","","./tasks/HMM-beads/Images/NewTrialWC.png","lowH","74","2","1","2","2","false","","","","","","","","","","","","","","","","",""
"image-keyboard-response","300","439336","0.0-4.0-6.0-1.0-1.74","63639d3bbd810ed5c307efc3","63690f60c96a0a9a64b48fbc","63691908923e988ada92a34a","null","","null","","","","","","","","./tasks/HMM-beads/Images/WhiteBeadChoice.png","","","","","","","","","","","","","","","","","","","","","","","",""
"image-keyboard-response","301","439851","0.0-4.0-6.0-1.0-2.74","63639d3bbd810ed5c307efc3","63690f60c96a0a9a64b48fbc","63691908923e988ada92a34a","null","","null","","","","","","","","./tasks/HMM-beads/Images/WhiteBeadChoiceWrong.png","","","","","","","","","","","","","","","","","","","","","","","",""
"image-keyboard-response","302","440027","0.0-4.0-6.0-1.0-0.75","63639d3bbd810ed5c307efc3","63690f60c96a0a9a64b48fbc","63691908923e988ada92a34a","173","","j","","","","","","","","./tasks/HMM-beads/Images/NewTrialBC.png","lowH","75","2","2","1","2","true","","","","","","","","","","","","","","","","",""
"image-keyboard-response","303","440346","0.0-4.0-6.0-1.0-1.75","63639d3bbd810ed5c307efc3","63690f60c96a0a9a64b48fbc","63691908923e988ada92a34a","null","","null","","","","","","","","./tasks/HMM-beads/Images/WhiteBeadChoice.png","","","","","","","","","","","","","","","","","","","","","","","",""
"image-keyboard-response","304","440862","0.0-4.0-6.0-1.0-2.75","63639d3bbd810ed5c307efc3","63690f60c96a0a9a64b48fbc","63691908923e988ada92a34a","null","","null","","","","","","","","./tasks/HMM-beads/Images/WhiteBeadChoiceCorrect.png","","","","","","","","","","","","","","","","","","","","","","","",""
"image-keyboard-response","305","440947","0.0-4.0-6.0-1.0-0.76","63639d3bbd810ed5c307efc3","63690f60c96a0a9a64b48fbc","63691908923e988ada92a34a","84","","j","","","","","","","","./tasks/HMM-beads/Images/NewTrialWC.png","lowH","76","2","1","2","2","false","","","","","","","","","","","","","","","","",""
"image-keyboard-response","306","441257","0.0-4.0-6.0-1.0-1.76","63639d3bbd810ed5c307efc3","63690f60c96a0a9a64b48fbc","63691908923e988ada92a34a","null","","null","","","","","","","","./tasks/HMM-beads/Images/WhiteBeadChoice.png","","","","","","","","","","","","","","","","","","","","","","","",""
"image-keyboard-response","307","441768","0.0-4.0-6.0-1.0-2.76","63639d3bbd810ed5c307efc3","63690f60c96a0a9a64b48fbc","63691908923e988ada92a34a","null","","null","","","","","","","","./tasks/HMM-beads/Images/WhiteBeadChoiceWrong.png","","","","","","","","","","","","","","","","","","","","","","","",""
"image-keyboard-response","308","441869","0.0-4.0-6.0-1.0-0.77","63639d3bbd810ed5c307efc3","63690f60c96a0a9a64b48fbc","63691908923e988ada92a34a","98","","j","","","","","","","","./tasks/HMM-beads/Images/NewTrialBC.png","lowH","77","2","2","1","2","true","","","","","","","","","","","","","","","","",""
"image-keyboard-response","309","442176","0.0-4.0-6.0-1.0-1.77","63639d3bbd810ed5c307efc3","63690f60c96a0a9a64b48fbc","63691908923e988ada92a34a","null","","null","","","","","","","","./tasks/HMM-beads/Images/WhiteBeadChoice.png","","","","","","","","","","","","","","","","","","","","","","","",""
"image-keyboard-response","310","442681","0.0-4.0-6.0-1.0-2.77","63639d3bbd810ed5c307efc3","63690f60c96a0a9a64b48fbc","63691908923e988ada92a34a","null","","null","","","","","","","","./tasks/HMM-beads/Images/WhiteBeadChoiceCorrect.png","","","","","","","","","","","","","","","","","","","","","","","",""
"image-keyboard-response","311","442799","0.0-4.0-6.0-1.0-0.78","63639d3bbd810ed5c307efc3","63690f60c96a0a9a64b48fbc","63691908923e988ada92a34a","116","","j","","","","","","","","./tasks/HMM-beads/Images/NewTrialWC.png","lowH","78","2","2","2","2","true","","","","","","","","","","","","","","","","",""
"image-keyboard-response","312","443116","0.0-4.0-6.0-1.0-1.78","63639d3bbd810ed5c307efc3","63690f60c96a0a9a64b48fbc","63691908923e988ada92a34a","null","","null","","","","","","","","./tasks/HMM-beads/Images/WhiteBeadChoice.png","","","","","","","","","","","","","","","","","","","","","","","",""
"image-keyboard-response","313","443636","0.0-4.0-6.0-1.0-2.78","63639d3bbd810ed5c307efc3","63690f60c96a0a9a64b48fbc","63691908923e988ada92a34a","null","","null","","","","","","","","./tasks/HMM-beads/Images/WhiteBeadChoiceCorrect.png","","","","","","","","","","","","","","","","","","","","","","","",""
"image-keyboard-response","314","444038","0.0-4.0-6.0-1.0-0.79","63639d3bbd810ed5c307efc3","63690f60c96a0a9a64b48fbc","63691908923e988ada92a34a","400","","j","","","","","","","","./tasks/HMM-beads/Images/NewTrialWC.png","lowH","79","2","2","2","2","true","","","","","","","","","","","","","","","","",""
"image-keyboard-response","315","444348","0.0-4.0-6.0-1.0-1.79","63639d3bbd810ed5c307efc3","63690f60c96a0a9a64b48fbc","63691908923e988ada92a34a","null","","null","","","","","","","","./tasks/HMM-beads/Images/WhiteBeadChoice.png","","","","","","","","","","","","","","","","","","","","","","","",""
"image-keyboard-response","316","444860","0.0-4.0-6.0-1.0-2.79","63639d3bbd810ed5c307efc3","63690f60c96a0a9a64b48fbc","63691908923e988ada92a34a","null","","null","","","","","","","","./tasks/HMM-beads/Images/WhiteBeadChoiceCorrect.png","","","","","","","","","","","","","","","","","","","","","","","",""
"image-keyboard-response","317","445266","0.0-4.0-6.0-1.0-0.80","63639d3bbd810ed5c307efc3","63690f60c96a0a9a64b48fbc","63691908923e988ada92a34a","404","","j","","","","","","","","./tasks/HMM-beads/Images/NewTrialWC.png","lowH","80","2","2","2","2","true","","","","","","","","","","","","","","","","",""
"image-keyboard-response","318","445580","0.0-4.0-6.0-1.0-1.80","63639d3bbd810ed5c307efc3","63690f60c96a0a9a64b48fbc","63691908923e988ada92a34a","null","","null","","","","","","","","./tasks/HMM-beads/Images/WhiteBeadChoice.png","","","","","","","","","","","","","","","","","","","","","","","",""
"image-keyboard-response","319","446101","0.0-4.0-6.0-1.0-2.80","63639d3bbd810ed5c307efc3","63690f60c96a0a9a64b48fbc","63691908923e988ada92a34a","null","","null","","","","","","","","./tasks/HMM-beads/Images/WhiteBeadChoiceCorrect.png","","","","","","","","","","","","","","","","","","","","","","","",""
"image-keyboard-response","320","446464","0.0-4.0-6.0-1.0-0.81","63639d3bbd810ed5c307efc3","63690f60c96a0a9a64b48fbc","63691908923e988ada92a34a","361","","j","","","","","","","","./tasks/HMM-beads/Images/NewTrialWC.png","lowH","81","2","2","2","2","true","","","","","","","","","","","","","","","","",""
"image-keyboard-response","321","446775","0.0-4.0-6.0-1.0-1.81","63639d3bbd810ed5c307efc3","63690f60c96a0a9a64b48fbc","63691908923e988ada92a34a","null","","null","","","","","","","","./tasks/HMM-beads/Images/WhiteBeadChoice.png","","","","","","","","","","","","","","","","","","","","","","","",""
