"trial_type","trial_index","time_elapsed","internal_node_id","subject_id","study_id","session_id","rt","url","response","question_order","view_history","success","timeout","failed_images","failed_audio","failed_video","stimulus","block","trial_number","jar","bead","previous_bead","choice","correct","highH_score","lowH_score","state","rewarded","state1_action","state2_visited","state1_key","state2_key","state1_rt","state2_rt","block_num","seq_file","trial_seq_info","two_arm_score_block1","two_arm_score_block2","two_arm_score_total","total_bonus"
"pavlovia","0","1327","0.0-0.0","5dd5db1ded7ea4574c7bc996","63690f60c96a0a9a64b48fbc","63691fddf0b0cc51dcef628f","","","","","","","","","","","","","","","","","","","","","","","","","","","","","","","","","","",""
"external-html","1","9679","0.0-1.0-0.0","5dd5db1ded7ea4574c7bc996","63690f60c96a0a9a64b48fbc","63691fddf0b0cc51dcef628f","7949","new_consent.html","","","","","","","","","","","","","","","","","","","","","","","","","","","","","","","","",""
"survey-multi-choice","2","18390","0.0-1.0-1.0","5dd5db1ded7ea4574c7bc996","63690f60c96a0a9a64b48fbc","63691fddf0b0cc51dcef628f","8705","","{""Q0"":""Male"",""Q1"":""Black or African American""}","[0,1]","","","","","","","","","","","","","","","","","","","","","","","","","","","","","","",""
"survey-text","3","23202","0.0-1.0-2.0","5dd5db1ded7ea4574c7bc996","63690f60c96a0a9a64b48fbc","63691fddf0b0cc51dcef628f","4800","","{""Q0"":""28""}","","","","","","","","","","","","","","","","","","","","","","","","","","","","","","","",""
"instructions","4","789853","0.0-2.0","5dd5db1ded7ea4574c7bc996","63690f60c96a0a9a64b48fbc","63691fddf0b0cc51dcef628f","768269","","","","[{""page_index"":0,""viewing_time"":623234},{""page_index"":1,""viewing_time"":145033}]","","","","","","","","","","","","","","","","","","","","","","","","","","","","","",""
"instructions","5","791080","0.0-3.0","5dd5db1ded7ea4574c7bc996","63690f60c96a0a9a64b48fbc","63691fddf0b0cc51dcef628f","1226","","","","[{""page_index"":0,""viewing_time"":1226}]","","","","","","","","","","","","","","","","","","","","","","","","","","","","","",""
"preload","6","797433","0.0-4.0-0.0","5dd5db1ded7ea4574c7bc996","63690f60c96a0a9a64b48fbc","63691fddf0b0cc51dcef628f","","","","","","true","false","[]","[]","[]","","","","","","","","","","","","","","","","","","","","","","","","",""
"instructions","7","874661","0.0-4.0-1.0","5dd5db1ded7ea4574c7bc996","63690f60c96a0a9a64b48fbc","63691fddf0b0cc51dcef628f","77228","","","","[{""page_index"":0,""viewing_time"":10230},{""page_index"":1,""viewing_time"":4656},{""page_index"":2,""viewing_time"":2316},{""page_index"":3,""viewing_time"":1012},{""page_index"":4,""viewing_time"":6904},{""page_index"":5,""viewing_time"":23368},{""page_index"":6,""viewing_time"":4482},{""page_index"":7,""viewing_time"":4768},{""page_index"":8,""viewing_time"":2182},{""page_index"":9,""viewing_time"":7684},{""page_index"":10,""viewing_time"":7056},{""page_index"":11,""viewing_time"":2570}]","","","","","","","","","","","","","","","","","","","","","","","","","","","","","",""
"html-button-response","8","878890","0.0-4.0-2.0-0.0-0.0","5dd5db1ded7ea4574c7bc996","63690f60c96a0a9a64b48fbc","63691fddf0b0cc51dcef628f","4226","","1","","","","","","","","<div align=center>Your goal is to predict…?<br><br></div>","","","","","","","","","","","","","","","","","","","","","","","",""
"html-button-response","9","886304","0.0-4.0-2.0-1.0-0.0","5dd5db1ded7ea4574c7bc996","63690f60c96a0a9a64b48fbc","63691fddf0b0cc51dcef628f","5122","","2","","","","","","","","<div align=center>In the jar with mostly white beads, there are ___% white beads and ___% black beads?<br><br></div>","","","","","","","","","","","","","","","","","","","","","","","",""
"html-button-response","10","906035","0.0-4.0-2.0-2.0-0.0","5dd5db1ded7ea4574c7bc996","63690f60c96a0a9a64b48fbc","63691fddf0b0cc51dcef628f","18358","","0","","","","","","","","<div align=center>When there is a 1% probability that the jars will switch, the next bead will most likely be drawn from the…<br><br></div>","","","","","","","","","","","","","","","","","","","","","","","",""
"html-button-response","11","922633","0.0-4.0-2.0-3.0-0.0","5dd5db1ded7ea4574c7bc996","63690f60c96a0a9a64b48fbc","63691fddf0b0cc51dcef628f","14341","","1","","","","","","","","<div align=center>When there is a 99% probability that the jars will switch, the next bead will most likely be drawn from the…<br><br></div>","","","","","","","","","","","","","","","","","","","","","","","",""
"instructions","12","1273860","0.0-4.0-3.0","5dd5db1ded7ea4574c7bc996","63690f60c96a0a9a64b48fbc","63691fddf0b0cc51dcef628f","349547","","","","[{""page_index"":0,""viewing_time"":349529}]","","","","","","","","","","","","","","","","","","","","","","","","","","","","","",""
"html-keyboard-response","13","1279873","0.0-4.0-4.0-0.0","5dd5db1ded7ea4574c7bc996","63690f60c96a0a9a64b48fbc","63691fddf0b0cc51dcef628f","6011",""," ","","","","","","","","<div align=center>In this practice block, there will be a <b>10% chance</b> that the jar on the next trial will be different from the jar on the current trial.<br><br></div>","","","","","","","","","","","","","","","","","","","","","","","",""
"image-keyboard-response","14","1282701","0.0-4.0-4.0-1.0-0.0","5dd5db1ded7ea4574c7bc996","63690f60c96a0a9a64b48fbc","63691fddf0b0cc51dcef628f","2610","","j","","","","","","","","./tasks/HMM-beads/Images/NoChoice.png","practice","0","1","1","0","2","false","","","","","","","","","","","","","","","","",""
"image-keyboard-response","15","1283019","0.0-4.0-4.0-1.0-1.0","5dd5db1ded7ea4574c7bc996","63690f60c96a0a9a64b48fbc","63691fddf0b0cc51dcef628f","null","","null","","","","","","","","./tasks/HMM-beads/Images/WhiteBeadChoice.png","","","","","","","","","","","","","","","","","","","","","","","",""
"image-keyboard-response","16","1283527","0.0-4.0-4.0-1.0-2.0","5dd5db1ded7ea4574c7bc996","63690f60c96a0a9a64b48fbc","63691fddf0b0cc51dcef628f","null","","null","","","","","","","","./tasks/HMM-beads/Images/WhiteBeadChoiceWrong.png","","","","","","","","","","","","","","","","","","","","","","","",""
"image-keyboard-response","17","1284480","0.0-4.0-4.0-1.0-0.1","5dd5db1ded7ea4574c7bc996","63690f60c96a0a9a64b48fbc","63691fddf0b0cc51dcef628f","951","","f","","","","","","","","./tasks/HMM-beads/Images/NewTrialBC.png","practice","1","1","1","1","1","true","","","","","","","","","","","","","","","","",""
"image-keyboard-response","18","1284805","0.0-4.0-4.0-1.0-1.1","5dd5db1ded7ea4574c7bc996","63690f60c96a0a9a64b48fbc","63691fddf0b0cc51dcef628f","null","","null","","","","","","","","./tasks/HMM-beads/Images/BlackBeadChoice.png","","","","","","","","","","","","","","","","","","","","","","","",""
"image-keyboard-response","19","1285329","0.0-4.0-4.0-1.0-2.1","5dd5db1ded7ea4574c7bc996","63690f60c96a0a9a64b48fbc","63691fddf0b0cc51dcef628f","null","","null","","","","","","","","./tasks/HMM-beads/Images/BlackBeadChoiceCorrect.png","","","","","","","","","","","","","","","","","","","","","","","",""
"image-keyboard-response","20","1286072","0.0-4.0-4.0-1.0-0.2","5dd5db1ded7ea4574c7bc996","63690f60c96a0a9a64b48fbc","63691fddf0b0cc51dcef628f","740","","f","","","","","","","","./tasks/HMM-beads/Images/NewTrialBC.png","practice","2","1","2","1","1","false","","","","","","","","","","","","","","","","",""
"image-keyboard-response","21","1286389","0.0-4.0-4.0-1.0-1.2","5dd5db1ded7ea4574c7bc996","63690f60c96a0a9a64b48fbc","63691fddf0b0cc51dcef628f","null","","null","","","","","","","","./tasks/HMM-beads/Images/BlackBeadChoice.png","","","","","","","","","","","","","","","","","","","","","","","",""
"image-keyboard-response","22","1286910","0.0-4.0-4.0-1.0-2.2","5dd5db1ded7ea4574c7bc996","63690f60c96a0a9a64b48fbc","63691fddf0b0cc51dcef628f","null","","null","","","","","","","","./tasks/HMM-beads/Images/BlackBeadChoiceWrong.png","","","","","","","","","","","","","","","","","","","","","","","",""
"image-keyboard-response","23","1287438","0.0-4.0-4.0-1.0-0.3","5dd5db1ded7ea4574c7bc996","63690f60c96a0a9a64b48fbc","63691fddf0b0cc51dcef628f","525","","f","","","","","","","","./tasks/HMM-beads/Images/NewTrialWC.png","practice","3","1","1","2","1","true","","","","","","","","","","","","","","","","",""
"image-keyboard-response","24","1287745","0.0-4.0-4.0-1.0-1.3","5dd5db1ded7ea4574c7bc996","63690f60c96a0a9a64b48fbc","63691fddf0b0cc51dcef628f","null","","null","","","","","","","","./tasks/HMM-beads/Images/BlackBeadChoice.png","","","","","","","","","","","","","","","","","","","","","","","",""
"image-keyboard-response","25","1288265","0.0-4.0-4.0-1.0-2.3","5dd5db1ded7ea4574c7bc996","63690f60c96a0a9a64b48fbc","63691fddf0b0cc51dcef628f","null","","null","","","","","","","","./tasks/HMM-beads/Images/BlackBeadChoiceCorrect.png","","","","","","","","","","","","","","","","","","","","","","","",""
"image-keyboard-response","26","1288871","0.0-4.0-4.0-1.0-0.4","5dd5db1ded7ea4574c7bc996","63690f60c96a0a9a64b48fbc","63691fddf0b0cc51dcef628f","601","","f","","","","","","","","./tasks/HMM-beads/Images/NewTrialBC.png","practice","4","1","2","1","1","false","","","","","","","","","","","","","","","","",""
"image-keyboard-response","27","1289179","0.0-4.0-4.0-1.0-1.4","5dd5db1ded7ea4574c7bc996","63690f60c96a0a9a64b48fbc","63691fddf0b0cc51dcef628f","null","","null","","","","","","","","./tasks/HMM-beads/Images/BlackBeadChoice.png","","","","","","","","","","","","","","","","","","","","","","","",""
"image-keyboard-response","28","1289697","0.0-4.0-4.0-1.0-2.4","5dd5db1ded7ea4574c7bc996","63690f60c96a0a9a64b48fbc","63691fddf0b0cc51dcef628f","null","","null","","","","","","","","./tasks/HMM-beads/Images/BlackBeadChoiceWrong.png","","","","","","","","","","","","","","","","","","","","","","","",""
"image-keyboard-response","29","1290102","0.0-4.0-4.0-1.0-0.5","5dd5db1ded7ea4574c7bc996","63690f60c96a0a9a64b48fbc","63691fddf0b0cc51dcef628f","401","","f","","","","","","","","./tasks/HMM-beads/Images/NewTrialWC.png","practice","5","1","1","2","1","true","","","","","","","","","","","","","","","","",""
"image-keyboard-response","30","1290411","0.0-4.0-4.0-1.0-1.5","5dd5db1ded7ea4574c7bc996","63690f60c96a0a9a64b48fbc","63691fddf0b0cc51dcef628f","null","","null","","","","","","","","./tasks/HMM-beads/Images/BlackBeadChoice.png","","","","","","","","","","","","","","","","","","","","","","","",""
"image-keyboard-response","31","1290980","0.0-4.0-4.0-1.0-2.5","5dd5db1ded7ea4574c7bc996","63690f60c96a0a9a64b48fbc","63691fddf0b0cc51dcef628f","null","","null","","","","","","","","./tasks/HMM-beads/Images/BlackBeadChoiceCorrect.png","","","","","","","","","","","","","","","","","","","","","","","",""
"image-keyboard-response","32","1290983","0.0-4.0-4.0-1.0-0.6","5dd5db1ded7ea4574c7bc996","63690f60c96a0a9a64b48fbc","63691fddf0b0cc51dcef628f","1","","f","","","","","","","","./tasks/HMM-beads/Images/NewTrialBC.png","practice","6","1","2","1","1","false","","","","","","","","","","","","","","","","",""
"image-keyboard-response","33","1291295","0.0-4.0-4.0-1.0-1.6","5dd5db1ded7ea4574c7bc996","63690f60c96a0a9a64b48fbc","63691fddf0b0cc51dcef628f","null","","null","","","","","","","","./tasks/HMM-beads/Images/BlackBeadChoice.png","","","","","","","","","","","","","","","","","","","","","","","",""
"image-keyboard-response","34","1291798","0.0-4.0-4.0-1.0-2.6","5dd5db1ded7ea4574c7bc996","63690f60c96a0a9a64b48fbc","63691fddf0b0cc51dcef628f","null","","null","","","","","","","","./tasks/HMM-beads/Images/BlackBeadChoiceWrong.png","","","","","","","","","","","","","","","","","","","","","","","",""
"image-keyboard-response","35","1292078","0.0-4.0-4.0-1.0-0.7","5dd5db1ded7ea4574c7bc996","63690f60c96a0a9a64b48fbc","63691fddf0b0cc51dcef628f","278","","f","","","","","","","","./tasks/HMM-beads/Images/NewTrialWC.png","practice","7","1","1","2","1","true","","","","","","","","","","","","","","","","",""
"image-keyboard-response","36","1292395","0.0-4.0-4.0-1.0-1.7","5dd5db1ded7ea4574c7bc996","63690f60c96a0a9a64b48fbc","63691fddf0b0cc51dcef628f","null","","null","","","","","","","","./tasks/HMM-beads/Images/BlackBeadChoice.png","","","","","","","","","","","","","","","","","","","","","","","",""
"image-keyboard-response","37","1292914","0.0-4.0-4.0-1.0-2.7","5dd5db1ded7ea4574c7bc996","63690f60c96a0a9a64b48fbc","63691fddf0b0cc51dcef628f","null","","null","","","","","","","","./tasks/HMM-beads/Images/BlackBeadChoiceCorrect.png","","","","","","","","","","","","","","","","","","","","","","","",""
"image-keyboard-response","38","1293407","0.0-4.0-4.0-1.0-0.8","5dd5db1ded7ea4574c7bc996","63690f60c96a0a9a64b48fbc","63691fddf0b0cc51dcef628f","490","","f","","","","","","","","./tasks/HMM-beads/Images/NewTrialBC.png","practice","8","1","1","1","1","true","","","","","","","","","","","","","","","","",""
"image-keyboard-response","39","1293745","0.0-4.0-4.0-1.0-1.8","5dd5db1ded7ea4574c7bc996","63690f60c96a0a9a64b48fbc","63691fddf0b0cc51dcef628f","null","","null","","","","","","","","./tasks/HMM-beads/Images/BlackBeadChoice.png","","","","","","","","","","","","","","","","","","","","","","","",""
"image-keyboard-response","40","1294264","0.0-4.0-4.0-1.0-2.8","5dd5db1ded7ea4574c7bc996","63690f60c96a0a9a64b48fbc","63691fddf0b0cc51dcef628f","null","","null","","","","","","","","./tasks/HMM-beads/Images/BlackBeadChoiceCorrect.png","","","","","","","","","","","","","","","","","","","","","","","",""
"image-keyboard-response","41","1294714","0.0-4.0-4.0-1.0-0.9","5dd5db1ded7ea4574c7bc996","63690f60c96a0a9a64b48fbc","63691fddf0b0cc51dcef628f","448","","f","","","","","","","","./tasks/HMM-beads/Images/NewTrialBC.png","practice","9","2","2","1","1","false","","","","","","","","","","","","","","","","",""
"image-keyboard-response","42","1295028","0.0-4.0-4.0-1.0-1.9","5dd5db1ded7ea4574c7bc996","63690f60c96a0a9a64b48fbc","63691fddf0b0cc51dcef628f","null","","null","","","","","","","","./tasks/HMM-beads/Images/BlackBeadChoice.png","","","","","","","","","","","","","","","","","","","","","","","",""
"image-keyboard-response","43","1295547","0.0-4.0-4.0-1.0-2.9","5dd5db1ded7ea4574c7bc996","63690f60c96a0a9a64b48fbc","63691fddf0b0cc51dcef628f","null","","null","","","","","","","","./tasks/HMM-beads/Images/BlackBeadChoiceWrong.png","","","","","","","","","","","","","","","","","","","","","","","",""
"image-keyboard-response","44","1296398","0.0-4.0-4.0-1.0-0.10","5dd5db1ded7ea4574c7bc996","63690f60c96a0a9a64b48fbc","63691fddf0b0cc51dcef628f","848","","f","","","","","","","","./tasks/HMM-beads/Images/NewTrialWC.png","practice","10","2","1","2","1","true","","","","","","","","","","","","","","","","",""
"image-keyboard-response","45","1296711","0.0-4.0-4.0-1.0-1.10","5dd5db1ded7ea4574c7bc996","63690f60c96a0a9a64b48fbc","63691fddf0b0cc51dcef628f","null","","null","","","","","","","","./tasks/HMM-beads/Images/BlackBeadChoice.png","","","","","","","","","","","","","","","","","","","","","","","",""
"image-keyboard-response","46","1297215","0.0-4.0-4.0-1.0-2.10","5dd5db1ded7ea4574c7bc996","63690f60c96a0a9a64b48fbc","63691fddf0b0cc51dcef628f","null","","null","","","","","","","","./tasks/HMM-beads/Images/BlackBeadChoiceCorrect.png","","","","","","","","","","","","","","","","","","","","","","","",""
"image-keyboard-response","47","1298217","0.0-4.0-4.0-1.0-0.11","5dd5db1ded7ea4574c7bc996","63690f60c96a0a9a64b48fbc","63691fddf0b0cc51dcef628f","1000","","j","","","","","","","","./tasks/HMM-beads/Images/NewTrialBC.png","practice","11","2","2","1","2","true","","","","","","","","","","","","","","","","",""
"image-keyboard-response","48","1298528","0.0-4.0-4.0-1.0-1.11","5dd5db1ded7ea4574c7bc996","63690f60c96a0a9a64b48fbc","63691fddf0b0cc51dcef628f","null","","null","","","","","","","","./tasks/HMM-beads/Images/WhiteBeadChoice.png","","","","","","","","","","","","","","","","","","","","","","","",""
"image-keyboard-response","49","1299051","0.0-4.0-4.0-1.0-2.11","5dd5db1ded7ea4574c7bc996","63690f60c96a0a9a64b48fbc","63691fddf0b0cc51dcef628f","null","","null","","","","","","","","./tasks/HMM-beads/Images/WhiteBeadChoiceCorrect.png","","","","","","","","","","","","","","","","","","","","","","","",""
"image-keyboard-response","50","1299932","0.0-4.0-4.0-1.0-0.12","5dd5db1ded7ea4574c7bc996","63690f60c96a0a9a64b48fbc","63691fddf0b0cc51dcef628f","879","","f","","","","","","","","./tasks/HMM-beads/Images/NewTrialWC.png","practice","12","2","2","2","1","false","","","","","","","","","","","","","","","","",""
"image-keyboard-response","51","1300243","0.0-4.0-4.0-1.0-1.12","5dd5db1ded7ea4574c7bc996","63690f60c96a0a9a64b48fbc","63691fddf0b0cc51dcef628f","null","","null","","","","","","","","./tasks/HMM-beads/Images/BlackBeadChoice.png","","","","","","","","","","","","","","","","","","","","","","","",""
"image-keyboard-response","52","1300764","0.0-4.0-4.0-1.0-2.12","5dd5db1ded7ea4574c7bc996","63690f60c96a0a9a64b48fbc","63691fddf0b0cc51dcef628f","null","","null","","","","","","","","./tasks/HMM-beads/Images/BlackBeadChoiceWrong.png","","","","","","","","","","","","","","","","","","","","","","","",""
"image-keyboard-response","53","1301172","0.0-4.0-4.0-1.0-0.13","5dd5db1ded7ea4574c7bc996","63690f60c96a0a9a64b48fbc","63691fddf0b0cc51dcef628f","406","","j","","","","","","","","./tasks/HMM-beads/Images/NewTrialWC.png","practice","13","2","2","2","2","true","","","","","","","","","","","","","","","","",""
"image-keyboard-response","54","1301493","0.0-4.0-4.0-1.0-1.13","5dd5db1ded7ea4574c7bc996","63690f60c96a0a9a64b48fbc","63691fddf0b0cc51dcef628f","null","","null","","","","","","","","./tasks/HMM-beads/Images/WhiteBeadChoice.png","","","","","","","","","","","","","","","","","","","","","","","",""
"image-keyboard-response","55","1302000","0.0-4.0-4.0-1.0-2.13","5dd5db1ded7ea4574c7bc996","63690f60c96a0a9a64b48fbc","63691fddf0b0cc51dcef628f","null","","null","","","","","","","","./tasks/HMM-beads/Images/WhiteBeadChoiceCorrect.png","","","","","","","","","","","","","","","","","","","","","","","",""
"image-keyboard-response","56","1302420","0.0-4.0-4.0-1.0-0.14","5dd5db1ded7ea4574c7bc996","63690f60c96a0a9a64b48fbc","63691fddf0b0cc51dcef628f","418","","j","","","","","","","","./tasks/HMM-beads/Images/NewTrialWC.png","practice","14","2","2","2","2","true","","","","","","","","","","","","","","","","",""
"image-keyboard-response","57","1302744","0.0-4.0-4.0-1.0-1.14","5dd5db1ded7ea4574c7bc996","63690f60c96a0a9a64b48fbc","63691fddf0b0cc51dcef628f","null","","null","","","","","","","","./tasks/HMM-beads/Images/WhiteBeadChoice.png","","","","","","","","","","","","","","","","","","","","","","","",""
"image-keyboard-response","58","1303264","0.0-4.0-4.0-1.0-2.14","5dd5db1ded7ea4574c7bc996","63690f60c96a0a9a64b48fbc","63691fddf0b0cc51dcef628f","null","","null","","","","","","","","./tasks/HMM-beads/Images/WhiteBeadChoiceCorrect.png","","","","","","","","","","","","","","","","","","","","","","","",""
"image-keyboard-response","59","1303736","0.0-4.0-4.0-1.0-0.15","5dd5db1ded7ea4574c7bc996","63690f60c96a0a9a64b48fbc","63691fddf0b0cc51dcef628f","471","","j","","","","","","","","./tasks/HMM-beads/Images/NewTrialWC.png","practice","15","1","1","2","2","false","","","","","","","","","","","","","","","","",""
"image-keyboard-response","60","1304059","0.0-4.0-4.0-1.0-1.15","5dd5db1ded7ea4574c7bc996","63690f60c96a0a9a64b48fbc","63691fddf0b0cc51dcef628f","null","","null","","","","","","","","./tasks/HMM-beads/Images/WhiteBeadChoice.png","","","","","","","","","","","","","","","","","","","","","","","",""
"image-keyboard-response","61","1304581","0.0-4.0-4.0-1.0-2.15","5dd5db1ded7ea4574c7bc996","63690f60c96a0a9a64b48fbc","63691fddf0b0cc51dcef628f","null","","null","","","","","","","","./tasks/HMM-beads/Images/WhiteBeadChoiceWrong.png","","","","","","","","","","","","","","","","","","","","","","","",""
"image-keyboard-response","62","1306029","0.0-4.0-4.0-1.0-0.16","5dd5db1ded7ea4574c7bc996","63690f60c96a0a9a64b48fbc","63691fddf0b0cc51dcef628f","1445","","f","","","","","","","","./tasks/HMM-beads/Images/NewTrialBC.png","practice","16","1","2","1","1","false","","","","","","","","","","","","","","","","",""
"image-keyboard-response","63","1306343","0.0-4.0-4.0-1.0-1.16","5dd5db1ded7ea4574c7bc996","63690f60c96a0a9a64b48fbc","63691fddf0b0cc51dcef628f","null","","null","","","","","","","","./tasks/HMM-beads/Images/BlackBeadChoice.png","","","","","","","","","","","","","","","","","","","","","","","",""
"image-keyboard-response","64","1306850","0.0-4.0-4.0-1.0-2.16","5dd5db1ded7ea4574c7bc996","63690f60c96a0a9a64b48fbc","63691fddf0b0cc51dcef628f","null","","null","","","","","","","","./tasks/HMM-beads/Images/BlackBeadChoiceWrong.png","","","","","","","","","","","","","","","","","","","","","","","",""
"image-keyboard-response","65","1307007","0.0-4.0-4.0-1.0-0.17","5dd5db1ded7ea4574c7bc996","63690f60c96a0a9a64b48fbc","63691fddf0b0cc51dcef628f","155","","j","","","","","","","","./tasks/HMM-beads/Images/NewTrialWC.png","practice","17","1","1","2","2","false","","","","","","","","","","","","","","","","",""
"image-keyboard-response","66","1307311","0.0-4.0-4.0-1.0-1.17","5dd5db1ded7ea4574c7bc996","63690f60c96a0a9a64b48fbc","63691fddf0b0cc51dcef628f","null","","null","","","","","","","","./tasks/HMM-beads/Images/WhiteBeadChoice.png","","","","","","","","","","","","","","","","","","","","","","","",""
"image-keyboard-response","67","1307829","0.0-4.0-4.0-1.0-2.17","5dd5db1ded7ea4574c7bc996","63690f60c96a0a9a64b48fbc","63691fddf0b0cc51dcef628f","null","","null","","","","","","","","./tasks/HMM-beads/Images/WhiteBeadChoiceWrong.png","","","","","","","","","","","","","","","","","","","","","","","",""
"image-keyboard-response","68","1307952","0.0-4.0-4.0-1.0-0.18","5dd5db1ded7ea4574c7bc996","63690f60c96a0a9a64b48fbc","63691fddf0b0cc51dcef628f","120","","j","","","","","","","","./tasks/HMM-beads/Images/NewTrialBC.png","practice","18","1","1","1","2","false","","","","","","","","","","","","","","","","",""
"image-keyboard-response","69","1308276","0.0-4.0-4.0-1.0-1.18","5dd5db1ded7ea4574c7bc996","63690f60c96a0a9a64b48fbc","63691fddf0b0cc51dcef628f","null","","null","","","","","","","","./tasks/HMM-beads/Images/WhiteBeadChoice.png","","","","","","","","","","","","","","","","","","","","","","","",""
"image-keyboard-response","70","1308812","0.0-4.0-4.0-1.0-2.18","5dd5db1ded7ea4574c7bc996","63690f60c96a0a9a64b48fbc","63691fddf0b0cc51dcef628f","null","","null","","","","","","","","./tasks/HMM-beads/Images/WhiteBeadChoiceWrong.png","","","","","","","","","","","","","","","","","","","","","","","",""
"image-keyboard-response","71","1308918","0.0-4.0-4.0-1.0-0.19","5dd5db1ded7ea4574c7bc996","63690f60c96a0a9a64b48fbc","63691fddf0b0cc51dcef628f","103","","f","","","","","","","","./tasks/HMM-beads/Images/NewTrialBC.png","practice","19","1","1","1","1","true","","","","","","","","","","","","","","","","",""
"image-keyboard-response","72","1309227","0.0-4.0-4.0-1.0-1.19","5dd5db1ded7ea4574c7bc996","63690f60c96a0a9a64b48fbc","63691fddf0b0cc51dcef628f","null","","null","","","","","","","","./tasks/HMM-beads/Images/BlackBeadChoice.png","","","","","","","","","","","","","","","","","","","","","","","",""
"image-keyboard-response","73","1309747","0.0-4.0-4.0-1.0-2.19","5dd5db1ded7ea4574c7bc996","63690f60c96a0a9a64b48fbc","63691fddf0b0cc51dcef628f","null","","null","","","","","","","","./tasks/HMM-beads/Images/BlackBeadChoiceCorrect.png","","","","","","","","","","","","","","","","","","","","","","","",""
"html-keyboard-response","74","1312619","0.0-4.0-4.0-2.0","5dd5db1ded7ea4574c7bc996","63690f60c96a0a9a64b48fbc","63691fddf0b0cc51dcef628f","2870",""," ","","","","","","","","","","","","","","","","","","","","","","","","","","","","","","","",""
"instructions","75","1593842","0.0-4.0-5.0","5dd5db1ded7ea4574c7bc996","63690f60c96a0a9a64b48fbc","63691fddf0b0cc51dcef628f","281222","","","","[{""page_index"":0,""viewing_time"":11284},{""page_index"":1,""viewing_time"":269938}]","","","","","","","","","","","","","","","","","","","","","","","","","","","","","",""
"html-keyboard-response","76","1603304","0.0-4.0-6.0-0.0","5dd5db1ded7ea4574c7bc996","63690f60c96a0a9a64b48fbc","63691fddf0b0cc51dcef628f","9461",""," ","","","","","","","","<div align=center>In this block, there will be a <b>99%</b> chance that the jar on the next trial will be different from the jar on the current trial.<br><br></div>","","","","","","","","","","","","","","","","","","","","","","","",""
"image-keyboard-response","77","1604687","0.0-4.0-6.0-1.0-0.0","5dd5db1ded7ea4574c7bc996","63690f60c96a0a9a64b48fbc","63691fddf0b0cc51dcef628f","1380","","f","","","","","","","","./tasks/HMM-beads/Images/NoChoice.png","highH","0","1","1","0","1","true","","","","","","","","","","","","","","","","",""
"image-keyboard-response","78","1605005","0.0-4.0-6.0-1.0-1.0","5dd5db1ded7ea4574c7bc996","63690f60c96a0a9a64b48fbc","63691fddf0b0cc51dcef628f","null","","null","","","","","","","","./tasks/HMM-beads/Images/BlackBeadChoice.png","","","","","","","","","","","","","","","","","","","","","","","",""
"image-keyboard-response","79","1605524","0.0-4.0-6.0-1.0-2.0","5dd5db1ded7ea4574c7bc996","63690f60c96a0a9a64b48fbc","63691fddf0b0cc51dcef628f","null","","null","","","","","","","","./tasks/HMM-beads/Images/BlackBeadChoiceCorrect.png","","","","","","","","","","","","","","","","","","","","","","","",""
"image-keyboard-response","80","1605939","0.0-4.0-6.0-1.0-0.1","5dd5db1ded7ea4574c7bc996","63690f60c96a0a9a64b48fbc","63691fddf0b0cc51dcef628f","413","","j","","","","","","","","./tasks/HMM-beads/Images/NewTrialBC.png","highH","1","2","2","1","2","true","","","","","","","","","","","","","","","","",""
"image-keyboard-response","81","1606254","0.0-4.0-6.0-1.0-1.1","5dd5db1ded7ea4574c7bc996","63690f60c96a0a9a64b48fbc","63691fddf0b0cc51dcef628f","null","","null","","","","","","","","./tasks/HMM-beads/Images/WhiteBeadChoice.png","","","","","","","","","","","","","","","","","","","","","","","",""
"image-keyboard-response","82","1606761","0.0-4.0-6.0-1.0-2.1","5dd5db1ded7ea4574c7bc996","63690f60c96a0a9a64b48fbc","63691fddf0b0cc51dcef628f","null","","null","","","","","","","","./tasks/HMM-beads/Images/WhiteBeadChoiceCorrect.png","","","","","","","","","","","","","","","","","","","","","","","",""
"image-keyboard-response","83","1607178","0.0-4.0-6.0-1.0-0.2","5dd5db1ded7ea4574c7bc996","63690f60c96a0a9a64b48fbc","63691fddf0b0cc51dcef628f","415","","f","","","","","","","","./tasks/HMM-beads/Images/NewTrialWC.png","highH","2","1","1","2","1","true","","","","","","","","","","","","","","","","",""
"image-keyboard-response","84","1607488","0.0-4.0-6.0-1.0-1.2","5dd5db1ded7ea4574c7bc996","63690f60c96a0a9a64b48fbc","63691fddf0b0cc51dcef628f","null","","null","","","","","","","","./tasks/HMM-beads/Images/BlackBeadChoice.png","","","","","","","","","","","","","","","","","","","","","","","",""
"image-keyboard-response","85","1608057","0.0-4.0-6.0-1.0-2.2","5dd5db1ded7ea4574c7bc996","63690f60c96a0a9a64b48fbc","63691fddf0b0cc51dcef628f","null","","null","","","","","","","","./tasks/HMM-beads/Images/BlackBeadChoiceCorrect.png","","","","","","","","","","","","","","","","","","","","","","","",""
"image-keyboard-response","86","1608318","0.0-4.0-6.0-1.0-0.3","5dd5db1ded7ea4574c7bc996","63690f60c96a0a9a64b48fbc","63691fddf0b0cc51dcef628f","259","","j","","","","","","","","./tasks/HMM-beads/Images/NewTrialBC.png","highH","3","2","2","1","2","true","","","","","","","","","","","","","","","","",""
"image-keyboard-response","87","1608637","0.0-4.0-6.0-1.0-1.3","5dd5db1ded7ea4574c7bc996","63690f60c96a0a9a64b48fbc","63691fddf0b0cc51dcef628f","null","","null","","","","","","","","./tasks/HMM-beads/Images/WhiteBeadChoice.png","","","","","","","","","","","","","","","","","","","","","","","",""
"image-keyboard-response","88","1609157","0.0-4.0-6.0-1.0-2.3","5dd5db1ded7ea4574c7bc996","63690f60c96a0a9a64b48fbc","63691fddf0b0cc51dcef628f","null","","null","","","","","","","","./tasks/HMM-beads/Images/WhiteBeadChoiceCorrect.png","","","","","","","","","","","","","","","","","","","","","","","",""
"image-keyboard-response","89","1609411","0.0-4.0-6.0-1.0-0.4","5dd5db1ded7ea4574c7bc996","63690f60c96a0a9a64b48fbc","63691fddf0b0cc51dcef628f","252","","f","","","","","","","","./tasks/HMM-beads/Images/NewTrialWC.png","highH","4","1","1","2","1","true","","","","","","","","","","","","","","","","",""
"image-keyboard-response","90","1609720","0.0-4.0-6.0-1.0-1.4","5dd5db1ded7ea4574c7bc996","63690f60c96a0a9a64b48fbc","63691fddf0b0cc51dcef628f","null","","null","","","","","","","","./tasks/HMM-beads/Images/BlackBeadChoice.png","","","","","","","","","","","","","","","","","","","","","","","",""
"image-keyboard-response","91","1610242","0.0-4.0-6.0-1.0-2.4","5dd5db1ded7ea4574c7bc996","63690f60c96a0a9a64b48fbc","63691fddf0b0cc51dcef628f","null","","null","","","","","","","","./tasks/HMM-beads/Images/BlackBeadChoiceCorrect.png","","","","","","","","","","","","","","","","","","","","","","","",""
"image-keyboard-response","92","1610526","0.0-4.0-6.0-1.0-0.5","5dd5db1ded7ea4574c7bc996","63690f60c96a0a9a64b48fbc","63691fddf0b0cc51dcef628f","282","","j","","","","","","","","./tasks/HMM-beads/Images/NewTrialBC.png","highH","5","2","2","1","2","true","","","","","","","","","","","","","","","","",""
"image-keyboard-response","93","1610854","0.0-4.0-6.0-1.0-1.5","5dd5db1ded7ea4574c7bc996","63690f60c96a0a9a64b48fbc","63691fddf0b0cc51dcef628f","null","","null","","","","","","","","./tasks/HMM-beads/Images/WhiteBeadChoice.png","","","","","","","","","","","","","","","","","","","","","","","",""
"image-keyboard-response","94","1611373","0.0-4.0-6.0-1.0-2.5","5dd5db1ded7ea4574c7bc996","63690f60c96a0a9a64b48fbc","63691fddf0b0cc51dcef628f","null","","null","","","","","","","","./tasks/HMM-beads/Images/WhiteBeadChoiceCorrect.png","","","","","","","","","","","","","","","","","","","","","","","",""
"image-keyboard-response","95","1611637","0.0-4.0-6.0-1.0-0.6","5dd5db1ded7ea4574c7bc996","63690f60c96a0a9a64b48fbc","63691fddf0b0cc51dcef628f","262","","f","","","","","","","","./tasks/HMM-beads/Images/NewTrialWC.png","highH","6","1","1","2","1","true","","","","","","","","","","","","","","","","",""
"image-keyboard-response","96","1611956","0.0-4.0-6.0-1.0-1.6","5dd5db1ded7ea4574c7bc996","63690f60c96a0a9a64b48fbc","63691fddf0b0cc51dcef628f","null","","null","","","","","","","","./tasks/HMM-beads/Images/BlackBeadChoice.png","","","","","","","","","","","","","","","","","","","","","","","",""
"image-keyboard-response","97","1612475","0.0-4.0-6.0-1.0-2.6","5dd5db1ded7ea4574c7bc996","63690f60c96a0a9a64b48fbc","63691fddf0b0cc51dcef628f","null","","null","","","","","","","","./tasks/HMM-beads/Images/BlackBeadChoiceCorrect.png","","","","","","","","","","","","","","","","","","","","","","","",""
"image-keyboard-response","98","1612507","0.0-4.0-6.0-1.0-0.7","5dd5db1ded7ea4574c7bc996","63690f60c96a0a9a64b48fbc","63691fddf0b0cc51dcef628f","30","","j","","","","","","","","./tasks/HMM-beads/Images/NewTrialBC.png","highH","7","2","1","1","2","false","","","","","","","","","","","","","","","","",""
"image-keyboard-response","99","1612821","0.0-4.0-6.0-1.0-1.7","5dd5db1ded7ea4574c7bc996","63690f60c96a0a9a64b48fbc","63691fddf0b0cc51dcef628f","null","","null","","","","","","","","./tasks/HMM-beads/Images/WhiteBeadChoice.png","","","","","","","","","","","","","","","","","","","","","","","",""
"image-keyboard-response","100","1613340","0.0-4.0-6.0-1.0-2.7","5dd5db1ded7ea4574c7bc996","63690f60c96a0a9a64b48fbc","63691fddf0b0cc51dcef628f","null","","null","","","","","","","","./tasks/HMM-beads/Images/WhiteBeadChoiceWrong.png","","","","","","","","","","","","","","","","","","","","","","","",""
"image-keyboard-response","101","1615662","0.0-4.0-6.0-1.0-0.8","5dd5db1ded7ea4574c7bc996","63690f60c96a0a9a64b48fbc","63691fddf0b0cc51dcef628f","2321","","j","","","","","","","","./tasks/HMM-beads/Images/NewTrialBC.png","highH","8","1","1","1","2","false","","","","","","","","","","","","","","","","",""
"image-keyboard-response","102","1615971","0.0-4.0-6.0-1.0-1.8","5dd5db1ded7ea4574c7bc996","63690f60c96a0a9a64b48fbc","63691fddf0b0cc51dcef628f","null","","null","","","","","","","","./tasks/HMM-beads/Images/WhiteBeadChoice.png","","","","","","","","","","","","","","","","","","","","","","","",""
"image-keyboard-response","103","1616489","0.0-4.0-6.0-1.0-2.8","5dd5db1ded7ea4574c7bc996","63690f60c96a0a9a64b48fbc","63691fddf0b0cc51dcef628f","null","","null","","","","","","","","./tasks/HMM-beads/Images/WhiteBeadChoiceWrong.png","","","","","","","","","","","","","","","","","","","","","","","",""
"image-keyboard-response","104","1616977","0.0-4.0-6.0-1.0-0.9","5dd5db1ded7ea4574c7bc996","63690f60c96a0a9a64b48fbc","63691fddf0b0cc51dcef628f","485","","j","","","","","","","","./tasks/HMM-beads/Images/NewTrialBC.png","highH","9","2","2","1","2","true","","","","","","","","","","","","","","","","",""
"image-keyboard-response","105","1617304","0.0-4.0-6.0-1.0-1.9","5dd5db1ded7ea4574c7bc996","63690f60c96a0a9a64b48fbc","63691fddf0b0cc51dcef628f","null","","null","","","","","","","","./tasks/HMM-beads/Images/WhiteBeadChoice.png","","","","","","","","","","","","","","","","","","","","","","","",""
"image-keyboard-response","106","1617825","0.0-4.0-6.0-1.0-2.9","5dd5db1ded7ea4574c7bc996","63690f60c96a0a9a64b48fbc","63691fddf0b0cc51dcef628f","null","","null","","","","","","","","./tasks/HMM-beads/Images/WhiteBeadChoiceCorrect.png","","","","","","","","","","","","","","","","","","","","","","","",""
"image-keyboard-response","107","1618113","0.0-4.0-6.0-1.0-0.10","5dd5db1ded7ea4574c7bc996","63690f60c96a0a9a64b48fbc","63691fddf0b0cc51dcef628f","286","","f","","","","","","","","./tasks/HMM-beads/Images/NewTrialWC.png","highH","10","1","1","2","1","true","","","","","","","","","","","","","","","","",""
"image-keyboard-response","108","1618436","0.0-4.0-6.0-1.0-1.10","5dd5db1ded7ea4574c7bc996","63690f60c96a0a9a64b48fbc","63691fddf0b0cc51dcef628f","null","","null","","","","","","","","./tasks/HMM-beads/Images/BlackBeadChoice.png","","","","","","","","","","","","","","","","","","","","","","","",""
"image-keyboard-response","109","1618943","0.0-4.0-6.0-1.0-2.10","5dd5db1ded7ea4574c7bc996","63690f60c96a0a9a64b48fbc","63691fddf0b0cc51dcef628f","null","","null","","","","","","","","./tasks/HMM-beads/Images/BlackBeadChoiceCorrect.png","","","","","","","","","","","","","","","","","","","","","","","",""
"image-keyboard-response","110","1619295","0.0-4.0-6.0-1.0-0.11","5dd5db1ded7ea4574c7bc996","63690f60c96a0a9a64b48fbc","63691fddf0b0cc51dcef628f","350","","j","","","","","","","","./tasks/HMM-beads/Images/NewTrialBC.png","highH","11","2","2","1","2","true","","","","","","","","","","","","","","","","",""
"image-keyboard-response","111","1619618","0.0-4.0-6.0-1.0-1.11","5dd5db1ded7ea4574c7bc996","63690f60c96a0a9a64b48fbc","63691fddf0b0cc51dcef628f","null","","null","","","","","","","","./tasks/HMM-beads/Images/WhiteBeadChoice.png","","","","","","","","","","","","","","","","","","","","","","","",""
"image-keyboard-response","112","1620139","0.0-4.0-6.0-1.0-2.11","5dd5db1ded7ea4574c7bc996","63690f60c96a0a9a64b48fbc","63691fddf0b0cc51dcef628f","null","","null","","","","","","","","./tasks/HMM-beads/Images/WhiteBeadChoiceCorrect.png","","","","","","","","","","","","","","","","","","","","","","","",""
"image-keyboard-response","113","1620425","0.0-4.0-6.0-1.0-0.12","5dd5db1ded7ea4574c7bc996","63690f60c96a0a9a64b48fbc","63691fddf0b0cc51dcef628f","284","","f","","","","","","","","./tasks/HMM-beads/Images/NewTrialWC.png","highH","12","1","1","2","1","true","","","","","","","","","","","","","","","","",""
"image-keyboard-response","114","1620737","0.0-4.0-6.0-1.0-1.12","5dd5db1ded7ea4574c7bc996","63690f60c96a0a9a64b48fbc","63691fddf0b0cc51dcef628f","null","","null","","","","","","","","./tasks/HMM-beads/Images/BlackBeadChoice.png","","","","","","","","","","","","","","","","","","","","","","","",""
"image-keyboard-response","115","1621247","0.0-4.0-6.0-1.0-2.12","5dd5db1ded7ea4574c7bc996","63690f60c96a0a9a64b48fbc","63691fddf0b0cc51dcef628f","null","","null","","","","","","","","./tasks/HMM-beads/Images/BlackBeadChoiceCorrect.png","","","","","","","","","","","","","","","","","","","","","","","",""
"image-keyboard-response","116","1621758","0.0-4.0-6.0-1.0-0.13","5dd5db1ded7ea4574c7bc996","63690f60c96a0a9a64b48fbc","63691fddf0b0cc51dcef628f","509","","j","","","","","","","","./tasks/HMM-beads/Images/NewTrialBC.png","highH","13","2","1","1","2","false","","","","","","","","","","","","","","","","",""
"image-keyboard-response","117","1622069","0.0-4.0-6.0-1.0-1.13","5dd5db1ded7ea4574c7bc996","63690f60c96a0a9a64b48fbc","63691fddf0b0cc51dcef628f","null","","null","","","","","","","","./tasks/HMM-beads/Images/WhiteBeadChoice.png","","","","","","","","","","","","","","","","","","","","","","","",""
"image-keyboard-response","118","1622575","0.0-4.0-6.0-1.0-2.13","5dd5db1ded7ea4574c7bc996","63690f60c96a0a9a64b48fbc","63691fddf0b0cc51dcef628f","null","","null","","","","","","","","./tasks/HMM-beads/Images/WhiteBeadChoiceWrong.png","","","","","","","","","","","","","","","","","","","","","","","",""
"image-keyboard-response","119","1622872","0.0-4.0-6.0-1.0-0.14","5dd5db1ded7ea4574c7bc996","63690f60c96a0a9a64b48fbc","63691fddf0b0cc51dcef628f","295","","f","","","","","","","","./tasks/HMM-beads/Images/NewTrialBC.png","highH","14","1","2","1","1","false","","","","","","","","","","","","","","","","",""
"image-keyboard-response","120","1623186","0.0-4.0-6.0-1.0-1.14","5dd5db1ded7ea4574c7bc996","63690f60c96a0a9a64b48fbc","63691fddf0b0cc51dcef628f","null","","null","","","","","","","","./tasks/HMM-beads/Images/BlackBeadChoice.png","","","","","","","","","","","","","","","","","","","","","","","",""
"image-keyboard-response","121","1623707","0.0-4.0-6.0-1.0-2.14","5dd5db1ded7ea4574c7bc996","63690f60c96a0a9a64b48fbc","63691fddf0b0cc51dcef628f","null","","null","","","","","","","","./tasks/HMM-beads/Images/BlackBeadChoiceWrong.png","","","","","","","","","","","","","","","","","","","","","","","",""
"image-keyboard-response","122","1623952","0.0-4.0-6.0-1.0-0.15","5dd5db1ded7ea4574c7bc996","63690f60c96a0a9a64b48fbc","63691fddf0b0cc51dcef628f","242","","j","","","","","","","","./tasks/HMM-beads/Images/NewTrialWC.png","highH","15","2","2","2","2","true","","","","","","","","","","","","","","","","",""
"image-keyboard-response","123","1624272","0.0-4.0-6.0-1.0-1.15","5dd5db1ded7ea4574c7bc996","63690f60c96a0a9a64b48fbc","63691fddf0b0cc51dcef628f","null","","null","","","","","","","","./tasks/HMM-beads/Images/WhiteBeadChoice.png","","","","","","","","","","","","","","","","","","","","","","","",""
"image-keyboard-response","124","1624790","0.0-4.0-6.0-1.0-2.15","5dd5db1ded7ea4574c7bc996","63690f60c96a0a9a64b48fbc","63691fddf0b0cc51dcef628f","null","","null","","","","","","","","./tasks/HMM-beads/Images/WhiteBeadChoiceCorrect.png","","","","","","","","","","","","","","","","","","","","","","","",""
"image-keyboard-response","125","1625130","0.0-4.0-6.0-1.0-0.16","5dd5db1ded7ea4574c7bc996","63690f60c96a0a9a64b48fbc","63691fddf0b0cc51dcef628f","338","","f","","","","","","","","./tasks/HMM-beads/Images/NewTrialWC.png","highH","16","1","1","2","1","true","","","","","","","","","","","","","","","","",""
"image-keyboard-response","126","1625453","0.0-4.0-6.0-1.0-1.16","5dd5db1ded7ea4574c7bc996","63690f60c96a0a9a64b48fbc","63691fddf0b0cc51dcef628f","null","","null","","","","","","","","./tasks/HMM-beads/Images/BlackBeadChoice.png","","","","","","","","","","","","","","","","","","","","","","","",""
"image-keyboard-response","127","1625973","0.0-4.0-6.0-1.0-2.16","5dd5db1ded7ea4574c7bc996","63690f60c96a0a9a64b48fbc","63691fddf0b0cc51dcef628f","null","","null","","","","","","","","./tasks/HMM-beads/Images/BlackBeadChoiceCorrect.png","","","","","","","","","","","","","","","","","","","","","","","",""
"image-keyboard-response","128","1626207","0.0-4.0-6.0-1.0-0.17","5dd5db1ded7ea4574c7bc996","63690f60c96a0a9a64b48fbc","63691fddf0b0cc51dcef628f","231","","j","","","","","","","","./tasks/HMM-beads/Images/NewTrialBC.png","highH","17","2","2","1","2","true","","","","","","","","","","","","","","","","",""
"image-keyboard-response","129","1626519","0.0-4.0-6.0-1.0-1.17","5dd5db1ded7ea4574c7bc996","63690f60c96a0a9a64b48fbc","63691fddf0b0cc51dcef628f","null","","null","","","","","","","","./tasks/HMM-beads/Images/WhiteBeadChoice.png","","","","","","","","","","","","","","","","","","","","","","","",""
"image-keyboard-response","130","1627023","0.0-4.0-6.0-1.0-2.17","5dd5db1ded7ea4574c7bc996","63690f60c96a0a9a64b48fbc","63691fddf0b0cc51dcef628f","null","","null","","","","","","","","./tasks/HMM-beads/Images/WhiteBeadChoiceCorrect.png","","","","","","","","","","","","","","","","","","","","","","","",""
"image-keyboard-response","131","1627094","0.0-4.0-6.0-1.0-0.18","5dd5db1ded7ea4574c7bc996","63690f60c96a0a9a64b48fbc","63691fddf0b0cc51dcef628f","68","","f","","","","","","","","./tasks/HMM-beads/Images/NewTrialWC.png","highH","18","1","2","2","1","false","","","","","","","","","","","","","","","","",""
"image-keyboard-response","132","1627402","0.0-4.0-6.0-1.0-1.18","5dd5db1ded7ea4574c7bc996","63690f60c96a0a9a64b48fbc","63691fddf0b0cc51dcef628f","null","","null","","","","","","","","./tasks/HMM-beads/Images/BlackBeadChoice.png","","","","","","","","","","","","","","","","","","","","","","","",""
"image-keyboard-response","133","1627924","0.0-4.0-6.0-1.0-2.18","5dd5db1ded7ea4574c7bc996","63690f60c96a0a9a64b48fbc","63691fddf0b0cc51dcef628f","null","","null","","","","","","","","./tasks/HMM-beads/Images/BlackBeadChoiceWrong.png","","","","","","","","","","","","","","","","","","","","","","","",""
"image-keyboard-response","134","1628128","0.0-4.0-6.0-1.0-0.19","5dd5db1ded7ea4574c7bc996","63690f60c96a0a9a64b48fbc","63691fddf0b0cc51dcef628f","201","","j","","","","","","","","./tasks/HMM-beads/Images/NewTrialWC.png","highH","19","2","2","2","2","true","","","","","","","","","","","","","","","","",""
"image-keyboard-response","135","1628452","0.0-4.0-6.0-1.0-1.19","5dd5db1ded7ea4574c7bc996","63690f60c96a0a9a64b48fbc","63691fddf0b0cc51dcef628f","null","","null","","","","","","","","./tasks/HMM-beads/Images/WhiteBeadChoice.png","","","","","","","","","","","","","","","","","","","","","","","",""
"image-keyboard-response","136","1628974","0.0-4.0-6.0-1.0-2.19","5dd5db1ded7ea4574c7bc996","63690f60c96a0a9a64b48fbc","63691fddf0b0cc51dcef628f","null","","null","","","","","","","","./tasks/HMM-beads/Images/WhiteBeadChoiceCorrect.png","","","","","","","","","","","","","","","","","","","","","","","",""
"image-keyboard-response","137","1629018","0.0-4.0-6.0-1.0-0.20","5dd5db1ded7ea4574c7bc996","63690f60c96a0a9a64b48fbc","63691fddf0b0cc51dcef628f","41","","f","","","","","","","","./tasks/HMM-beads/Images/NewTrialWC.png","highH","20","1","1","2","1","true","","","","","","","","","","","","","","","","",""
"image-keyboard-response","138","1629337","0.0-4.0-6.0-1.0-1.20","5dd5db1ded7ea4574c7bc996","63690f60c96a0a9a64b48fbc","63691fddf0b0cc51dcef628f","null","","null","","","","","","","","./tasks/HMM-beads/Images/BlackBeadChoice.png","","","","","","","","","","","","","","","","","","","","","","","",""
"image-keyboard-response","139","1629856","0.0-4.0-6.0-1.0-2.20","5dd5db1ded7ea4574c7bc996","63690f60c96a0a9a64b48fbc","63691fddf0b0cc51dcef628f","null","","null","","","","","","","","./tasks/HMM-beads/Images/BlackBeadChoiceCorrect.png","","","","","","","","","","","","","","","","","","","","","","","",""
"image-keyboard-response","140","1629927","0.0-4.0-6.0-1.0-0.21","5dd5db1ded7ea4574c7bc996","63690f60c96a0a9a64b48fbc","63691fddf0b0cc51dcef628f","69","","j","","","","","","","","./tasks/HMM-beads/Images/NewTrialBC.png","highH","21","2","1","1","2","false","","","","","","","","","","","","","","","","",""
"image-keyboard-response","141","1630245","0.0-4.0-6.0-1.0-1.21","5dd5db1ded7ea4574c7bc996","63690f60c96a0a9a64b48fbc","63691fddf0b0cc51dcef628f","null","","null","","","","","","","","./tasks/HMM-beads/Images/WhiteBeadChoice.png","","","","","","","","","","","","","","","","","","","","","","","",""
"image-keyboard-response","142","1630755","0.0-4.0-6.0-1.0-2.21","5dd5db1ded7ea4574c7bc996","63690f60c96a0a9a64b48fbc","63691fddf0b0cc51dcef628f","null","","null","","","","","","","","./tasks/HMM-beads/Images/WhiteBeadChoiceWrong.png","","","","","","","","","","","","","","","","","","","","","","","",""
"image-keyboard-response","143","1631506","0.0-4.0-6.0-1.0-0.22","5dd5db1ded7ea4574c7bc996","63690f60c96a0a9a64b48fbc","63691fddf0b0cc51dcef628f","748","","f","","","","","","","","./tasks/HMM-beads/Images/NewTrialBC.png","highH","22","1","1","1","1","true","","","","","","","","","","","","","","","","",""
"image-keyboard-response","144","1631820","0.0-4.0-6.0-1.0-1.22","5dd5db1ded7ea4574c7bc996","63690f60c96a0a9a64b48fbc","63691fddf0b0cc51dcef628f","null","","null","","","","","","","","./tasks/HMM-beads/Images/BlackBeadChoice.png","","","","","","","","","","","","","","","","","","","","","","","",""
"image-keyboard-response","145","1632339","0.0-4.0-6.0-1.0-2.22","5dd5db1ded7ea4574c7bc996","63690f60c96a0a9a64b48fbc","63691fddf0b0cc51dcef628f","null","","null","","","","","","","","./tasks/HMM-beads/Images/BlackBeadChoiceCorrect.png","","","","","","","","","","","","","","","","","","","","","","","",""
"image-keyboard-response","146","1632783","0.0-4.0-6.0-1.0-0.23","5dd5db1ded7ea4574c7bc996","63690f60c96a0a9a64b48fbc","63691fddf0b0cc51dcef628f","442","","j","","","","","","","","./tasks/HMM-beads/Images/NewTrialBC.png","highH","23","2","2","1","2","true","","","","","","","","","","","","","","","","",""
"image-keyboard-response","147","1633103","0.0-4.0-6.0-1.0-1.23","5dd5db1ded7ea4574c7bc996","63690f60c96a0a9a64b48fbc","63691fddf0b0cc51dcef628f","null","","null","","","","","","","","./tasks/HMM-beads/Images/WhiteBeadChoice.png","","","","","","","","","","","","","","","","","","","","","","","",""
"image-keyboard-response","148","1633606","0.0-4.0-6.0-1.0-2.23","5dd5db1ded7ea4574c7bc996","63690f60c96a0a9a64b48fbc","63691fddf0b0cc51dcef628f","null","","null","","","","","","","","./tasks/HMM-beads/Images/WhiteBeadChoiceCorrect.png","","","","","","","","","","","","","","","","","","","","","","","",""
"image-keyboard-response","149","1634083","0.0-4.0-6.0-1.0-0.24","5dd5db1ded7ea4574c7bc996","63690f60c96a0a9a64b48fbc","63691fddf0b0cc51dcef628f","461","","f","","","","","","","","./tasks/HMM-beads/Images/NewTrialWC.png","highH","24","1","1","2","1","true","","","","","","","","","","","","","","","","",""
"image-keyboard-response","150","1634402","0.0-4.0-6.0-1.0-1.24","5dd5db1ded7ea4574c7bc996","63690f60c96a0a9a64b48fbc","63691fddf0b0cc51dcef628f","null","","null","","","","","","","","./tasks/HMM-beads/Images/BlackBeadChoice.png","","","","","","","","","","","","","","","","","","","","","","","",""
"image-keyboard-response","151","1634923","0.0-4.0-6.0-1.0-2.24","5dd5db1ded7ea4574c7bc996","63690f60c96a0a9a64b48fbc","63691fddf0b0cc51dcef628f","null","","null","","","","","","","","./tasks/HMM-beads/Images/BlackBeadChoiceCorrect.png","","","","","","","","","","","","","","","","","","","","","","","",""
"image-keyboard-response","152","1635164","0.0-4.0-6.0-1.0-0.25","5dd5db1ded7ea4574c7bc996","63690f60c96a0a9a64b48fbc","63691fddf0b0cc51dcef628f","239","","j","","","","","","","","./tasks/HMM-beads/Images/NewTrialBC.png","highH","25","2","1","1","2","false","","","","","","","","","","","","","","","","",""
"image-keyboard-response","153","1635470","0.0-4.0-6.0-1.0-1.25","5dd5db1ded7ea4574c7bc996","63690f60c96a0a9a64b48fbc","63691fddf0b0cc51dcef628f","null","","null","","","","","","","","./tasks/HMM-beads/Images/WhiteBeadChoice.png","","","","","","","","","","","","","","","","","","","","","","","",""
"image-keyboard-response","154","1635989","0.0-4.0-6.0-1.0-2.25","5dd5db1ded7ea4574c7bc996","63690f60c96a0a9a64b48fbc","63691fddf0b0cc51dcef628f","null","","null","","","","","","","","./tasks/HMM-beads/Images/WhiteBeadChoiceWrong.png","","","","","","","","","","","","","","","","","","","","","","","",""
"image-keyboard-response","155","1636270","0.0-4.0-6.0-1.0-0.26","5dd5db1ded7ea4574c7bc996","63690f60c96a0a9a64b48fbc","63691fddf0b0cc51dcef628f","280","","f","","","","","","","","./tasks/HMM-beads/Images/NewTrialBC.png","highH","26","1","1","1","1","true","","","","","","","","","","","","","","","","",""
"image-keyboard-response","156","1636585","0.0-4.0-6.0-1.0-1.26","5dd5db1ded7ea4574c7bc996","63690f60c96a0a9a64b48fbc","63691fddf0b0cc51dcef628f","null","","null","","","","","","","","./tasks/HMM-beads/Images/BlackBeadChoice.png","","","","","","","","","","","","","","","","","","","","","","","",""
"image-keyboard-response","157","1637106","0.0-4.0-6.0-1.0-2.26","5dd5db1ded7ea4574c7bc996","63690f60c96a0a9a64b48fbc","63691fddf0b0cc51dcef628f","null","","null","","","","","","","","./tasks/HMM-beads/Images/BlackBeadChoiceCorrect.png","","","","","","","","","","","","","","","","","","","","","","","",""
"image-keyboard-response","158","1637410","0.0-4.0-6.0-1.0-0.27","5dd5db1ded7ea4574c7bc996","63690f60c96a0a9a64b48fbc","63691fddf0b0cc51dcef628f","302","","j","","","","","","","","./tasks/HMM-beads/Images/NewTrialBC.png","highH","27","2","2","1","2","true","","","","","","","","","","","","","","","","",""
"image-keyboard-response","159","1637736","0.0-4.0-6.0-1.0-1.27","5dd5db1ded7ea4574c7bc996","63690f60c96a0a9a64b48fbc","63691fddf0b0cc51dcef628f","null","","null","","","","","","","","./tasks/HMM-beads/Images/WhiteBeadChoice.png","","","","","","","","","","","","","","","","","","","","","","","",""
"image-keyboard-response","160","1638255","0.0-4.0-6.0-1.0-2.27","5dd5db1ded7ea4574c7bc996","63690f60c96a0a9a64b48fbc","63691fddf0b0cc51dcef628f","null","","null","","","","","","","","./tasks/HMM-beads/Images/WhiteBeadChoiceCorrect.png","","","","","","","","","","","","","","","","","","","","","","","",""
"image-keyboard-response","161","1638634","0.0-4.0-6.0-1.0-0.28","5dd5db1ded7ea4574c7bc996","63690f60c96a0a9a64b48fbc","63691fddf0b0cc51dcef628f","377","","f","","","","","","","","./tasks/HMM-beads/Images/NewTrialWC.png","highH","28","2","1","2","1","true","","","","","","","","","","","","","","","","",""
"image-keyboard-response","162","1638953","0.0-4.0-6.0-1.0-1.28","5dd5db1ded7ea4574c7bc996","63690f60c96a0a9a64b48fbc","63691fddf0b0cc51dcef628f","null","","null","","","","","","","","./tasks/HMM-beads/Images/BlackBeadChoice.png","","","","","","","","","","","","","","","","","","","","","","","",""
"image-keyboard-response","163","1639472","0.0-4.0-6.0-1.0-2.28","5dd5db1ded7ea4574c7bc996","63690f60c96a0a9a64b48fbc","63691fddf0b0cc51dcef628f","null","","null","","","","","","","","./tasks/HMM-beads/Images/BlackBeadChoiceCorrect.png","","","","","","","","","","","","","","","","","","","","","","","",""
"image-keyboard-response","164","1639697","0.0-4.0-6.0-1.0-0.29","5dd5db1ded7ea4574c7bc996","63690f60c96a0a9a64b48fbc","63691fddf0b0cc51dcef628f","224","","j","","","","","","","","./tasks/HMM-beads/Images/NewTrialBC.png","highH","29","1","1","1","2","false","","","","","","","","","","","","","","","","",""
"image-keyboard-response","165","1640003","0.0-4.0-6.0-1.0-1.29","5dd5db1ded7ea4574c7bc996","63690f60c96a0a9a64b48fbc","63691fddf0b0cc51dcef628f","null","","null","","","","","","","","./tasks/HMM-beads/Images/WhiteBeadChoice.png","","","","","","","","","","","","","","","","","","","","","","","",""
"image-keyboard-response","166","1640522","0.0-4.0-6.0-1.0-2.29","5dd5db1ded7ea4574c7bc996","63690f60c96a0a9a64b48fbc","63691fddf0b0cc51dcef628f","null","","null","","","","","","","","./tasks/HMM-beads/Images/WhiteBeadChoiceWrong.png","","","","","","","","","","","","","","","","","","","","","","","",""
"image-keyboard-response","167","1640932","0.0-4.0-6.0-1.0-0.30","5dd5db1ded7ea4574c7bc996","63690f60c96a0a9a64b48fbc","63691fddf0b0cc51dcef628f","408","","f","","","","","","","","./tasks/HMM-beads/Images/NewTrialBC.png","highH","30","2","1","1","1","true","","","","","","","","","","","","","","","","",""
"image-keyboard-response","168","1641251","0.0-4.0-6.0-1.0-1.30","5dd5db1ded7ea4574c7bc996","63690f60c96a0a9a64b48fbc","63691fddf0b0cc51dcef628f","null","","null","","","","","","","","./tasks/HMM-beads/Images/BlackBeadChoice.png","","","","","","","","","","","","","","","","","","","","","","","",""
"image-keyboard-response","169","1641773","0.0-4.0-6.0-1.0-2.30","5dd5db1ded7ea4574c7bc996","63690f60c96a0a9a64b48fbc","63691fddf0b0cc51dcef628f","null","","null","","","","","","","","./tasks/HMM-beads/Images/BlackBeadChoiceCorrect.png","","","","","","","","","","","","","","","","","","","","","","","",""
"image-keyboard-response","170","1641893","0.0-4.0-6.0-1.0-0.31","5dd5db1ded7ea4574c7bc996","63690f60c96a0a9a64b48fbc","63691fddf0b0cc51dcef628f","118","","j","","","","","","","","./tasks/HMM-beads/Images/NewTrialBC.png","highH","31","1","1","1","2","false","","","","","","","","","","","","","","","","",""
"image-keyboard-response","171","1642201","0.0-4.0-6.0-1.0-1.31","5dd5db1ded7ea4574c7bc996","63690f60c96a0a9a64b48fbc","63691fddf0b0cc51dcef628f","null","","null","","","","","","","","./tasks/HMM-beads/Images/WhiteBeadChoice.png","","","","","","","","","","","","","","","","","","","","","","","",""
"image-keyboard-response","172","1642723","0.0-4.0-6.0-1.0-2.31","5dd5db1ded7ea4574c7bc996","63690f60c96a0a9a64b48fbc","63691fddf0b0cc51dcef628f","null","","null","","","","","","","","./tasks/HMM-beads/Images/WhiteBeadChoiceWrong.png","","","","","","","","","","","","","","","","","","","","","","","",""
"image-keyboard-response","173","1642854","0.0-4.0-6.0-1.0-0.32","5dd5db1ded7ea4574c7bc996","63690f60c96a0a9a64b48fbc","63691fddf0b0cc51dcef628f","129","","f","","","","","","","","./tasks/HMM-beads/Images/NewTrialBC.png","highH","32","2","2","1","1","false","","","","","","","","","","","","","","","","",""
"image-keyboard-response","174","1643167","0.0-4.0-6.0-1.0-1.32","5dd5db1ded7ea4574c7bc996","63690f60c96a0a9a64b48fbc","63691fddf0b0cc51dcef628f","null","","null","","","","","","","","./tasks/HMM-beads/Images/BlackBeadChoice.png","","","","","","","","","","","","","","","","","","","","","","","",""
"image-keyboard-response","175","1643688","0.0-4.0-6.0-1.0-2.32","5dd5db1ded7ea4574c7bc996","63690f60c96a0a9a64b48fbc","63691fddf0b0cc51dcef628f","null","","null","","","","","","","","./tasks/HMM-beads/Images/BlackBeadChoiceWrong.png","","","","","","","","","","","","","","","","","","","","","","","",""
"image-keyboard-response","176","1643896","0.0-4.0-6.0-1.0-0.33","5dd5db1ded7ea4574c7bc996","63690f60c96a0a9a64b48fbc","63691fddf0b0cc51dcef628f","205","","j","","","","","","","","./tasks/HMM-beads/Images/NewTrialWC.png","highH","33","1","1","2","2","false","","","","","","","","","","","","","","","","",""
"image-keyboard-response","177","1644219","0.0-4.0-6.0-1.0-1.33","5dd5db1ded7ea4574c7bc996","63690f60c96a0a9a64b48fbc","63691fddf0b0cc51dcef628f","null","","null","","","","","","","","./tasks/HMM-beads/Images/WhiteBeadChoice.png","","","","","","","","","","","","","","","","","","","","","","","",""
"image-keyboard-response","178","1644738","0.0-4.0-6.0-1.0-2.33","5dd5db1ded7ea4574c7bc996","63690f60c96a0a9a64b48fbc","63691fddf0b0cc51dcef628f","null","","null","","","","","","","","./tasks/HMM-beads/Images/WhiteBeadChoiceWrong.png","","","","","","","","","","","","","","","","","","","","","","","",""
"image-keyboard-response","179","1645351","0.0-4.0-6.0-1.0-0.34","5dd5db1ded7ea4574c7bc996","63690f60c96a0a9a64b48fbc","63691fddf0b0cc51dcef628f","611","","f","","","","","","","","./tasks/HMM-beads/Images/NewTrialBC.png","highH","34","2","2","1","1","false","","","","","","","","","","","","","","","","",""
"image-keyboard-response","180","1645668","0.0-4.0-6.0-1.0-1.34","5dd5db1ded7ea4574c7bc996","63690f60c96a0a9a64b48fbc","63691fddf0b0cc51dcef628f","null","","null","","","","","","","","./tasks/HMM-beads/Images/BlackBeadChoice.png","","","","","","","","","","","","","","","","","","","","","","","",""
"image-keyboard-response","181","1646187","0.0-4.0-6.0-1.0-2.34","5dd5db1ded7ea4574c7bc996","63690f60c96a0a9a64b48fbc","63691fddf0b0cc51dcef628f","null","","null","","","","","","","","./tasks/HMM-beads/Images/BlackBeadChoiceWrong.png","","","","","","","","","","","","","","","","","","","","","","","",""
"image-keyboard-response","182","1646429","0.0-4.0-6.0-1.0-0.35","5dd5db1ded7ea4574c7bc996","63690f60c96a0a9a64b48fbc","63691fddf0b0cc51dcef628f","240","","j","","","","","","","","./tasks/HMM-beads/Images/NewTrialWC.png","highH","35","1","1","2","2","false","","","","","","","","","","","","","","","","",""
"image-keyboard-response","183","1646735","0.0-4.0-6.0-1.0-1.35","5dd5db1ded7ea4574c7bc996","63690f60c96a0a9a64b48fbc","63691fddf0b0cc51dcef628f","null","","null","","","","","","","","./tasks/HMM-beads/Images/WhiteBeadChoice.png","","","","","","","","","","","","","","","","","","","","","","","",""
"image-keyboard-response","184","1647254","0.0-4.0-6.0-1.0-2.35","5dd5db1ded7ea4574c7bc996","63690f60c96a0a9a64b48fbc","63691fddf0b0cc51dcef628f","null","","null","","","","","","","","./tasks/HMM-beads/Images/WhiteBeadChoiceWrong.png","","","","","","","","","","","","","","","","","","","","","","","",""
"image-keyboard-response","185","1648506","0.0-4.0-6.0-1.0-0.36","5dd5db1ded7ea4574c7bc996","63690f60c96a0a9a64b48fbc","63691fddf0b0cc51dcef628f","1252","","j","","","","","","","","./tasks/HMM-beads/Images/NewTrialBC.png","highH","36","2","1","1","2","false","","","","","","","","","","","","","","","","",""
"image-keyboard-response","186","1648816","0.0-4.0-6.0-1.0-1.36","5dd5db1ded7ea4574c7bc996","63690f60c96a0a9a64b48fbc","63691fddf0b0cc51dcef628f","null","","null","","","","","","","","./tasks/HMM-beads/Images/WhiteBeadChoice.png","","","","","","","","","","","","","","","","","","","","","","","",""
"image-keyboard-response","187","1649334","0.0-4.0-6.0-1.0-2.36","5dd5db1ded7ea4574c7bc996","63690f60c96a0a9a64b48fbc","63691fddf0b0cc51dcef628f","null","","null","","","","","","","","./tasks/HMM-beads/Images/WhiteBeadChoiceWrong.png","","","","","","","","","","","","","","","","","","","","","","","",""
"image-keyboard-response","188","1649768","0.0-4.0-6.0-1.0-0.37","5dd5db1ded7ea4574c7bc996","63690f60c96a0a9a64b48fbc","63691fddf0b0cc51dcef628f","431","","j","","","","","","","","./tasks/HMM-beads/Images/NewTrialBC.png","highH","37","1","1","1","2","false","","","","","","","","","","","","","","","","",""
"image-keyboard-response","189","1650082","0.0-4.0-6.0-1.0-1.37","5dd5db1ded7ea4574c7bc996","63690f60c96a0a9a64b48fbc","63691fddf0b0cc51dcef628f","null","","null","","","","","","","","./tasks/HMM-beads/Images/WhiteBeadChoice.png","","","","","","","","","","","","","","","","","","","","","","","",""
"image-keyboard-response","190","1650602","0.0-4.0-6.0-1.0-2.37","5dd5db1ded7ea4574c7bc996","63690f60c96a0a9a64b48fbc","63691fddf0b0cc51dcef628f","null","","null","","","","","","","","./tasks/HMM-beads/Images/WhiteBeadChoiceWrong.png","","","","","","","","","","","","","","","","","","","","","","","",""
"image-keyboard-response","191","1650989","0.0-4.0-6.0-1.0-0.38","5dd5db1ded7ea4574c7bc996","63690f60c96a0a9a64b48fbc","63691fddf0b0cc51dcef628f","387","","f","","","","","","","","./tasks/HMM-beads/Images/NewTrialBC.png","highH","38","2","2","1","1","false","","","","","","","","","","","","","","","","",""
"image-keyboard-response","192","1651299","0.0-4.0-6.0-1.0-1.38","5dd5db1ded7ea4574c7bc996","63690f60c96a0a9a64b48fbc","63691fddf0b0cc51dcef628f","null","","null","","","","","","","","./tasks/HMM-beads/Images/BlackBeadChoice.png","","","","","","","","","","","","","","","","","","","","","","","",""
"image-keyboard-response","193","1651817","0.0-4.0-6.0-1.0-2.38","5dd5db1ded7ea4574c7bc996","63690f60c96a0a9a64b48fbc","63691fddf0b0cc51dcef628f","null","","null","","","","","","","","./tasks/HMM-beads/Images/BlackBeadChoiceWrong.png","","","","","","","","","","","","","","","","","","","","","","","",""
"image-keyboard-response","194","1652175","0.0-4.0-6.0-1.0-0.39","5dd5db1ded7ea4574c7bc996","63690f60c96a0a9a64b48fbc","63691fddf0b0cc51dcef628f","356","","j","","","","","","","","./tasks/HMM-beads/Images/NewTrialWC.png","highH","39","1","1","2","2","false","","","","","","","","","","","","","","","","",""
"image-keyboard-response","195","1652496","0.0-4.0-6.0-1.0-1.39","5dd5db1ded7ea4574c7bc996","63690f60c96a0a9a64b48fbc","63691fddf0b0cc51dcef628f","null","","null","","","","","","","","./tasks/HMM-beads/Images/WhiteBeadChoice.png","","","","","","","","","","","","","","","","","","","","","","","",""
"image-keyboard-response","196","1653018","0.0-4.0-6.0-1.0-2.39","5dd5db1ded7ea4574c7bc996","63690f60c96a0a9a64b48fbc","63691fddf0b0cc51dcef628f","null","","null","","","","","","","","./tasks/HMM-beads/Images/WhiteBeadChoiceWrong.png","","","","","","","","","","","","","","","","","","","","","","","",""
"image-keyboard-response","197","1653302","0.0-4.0-6.0-1.0-0.40","5dd5db1ded7ea4574c7bc996","63690f60c96a0a9a64b48fbc","63691fddf0b0cc51dcef628f","282","","j","","","","","","","","./tasks/HMM-beads/Images/NewTrialBC.png","highH","40","2","2","1","2","true","","","","","","","","","","","","","","","","",""
"image-keyboard-response","198","1653630","0.0-4.0-6.0-1.0-1.40","5dd5db1ded7ea4574c7bc996","63690f60c96a0a9a64b48fbc","63691fddf0b0cc51dcef628f","null","","null","","","","","","","","./tasks/HMM-beads/Images/WhiteBeadChoice.png","","","","","","","","","","","","","","","","","","","","","","","",""
"image-keyboard-response","199","1654152","0.0-4.0-6.0-1.0-2.40","5dd5db1ded7ea4574c7bc996","63690f60c96a0a9a64b48fbc","63691fddf0b0cc51dcef628f","null","","null","","","","","","","","./tasks/HMM-beads/Images/WhiteBeadChoiceCorrect.png","","","","","","","","","","","","","","","","","","","","","","","",""
"image-keyboard-response","200","1654405","0.0-4.0-6.0-1.0-0.41","5dd5db1ded7ea4574c7bc996","63690f60c96a0a9a64b48fbc","63691fddf0b0cc51dcef628f","251","","f","","","","","","","","./tasks/HMM-beads/Images/NewTrialWC.png","highH","41","1","2","2","1","false","","","","","","","","","","","","","","","","",""
"image-keyboard-response","201","1654731","0.0-4.0-6.0-1.0-1.41","5dd5db1ded7ea4574c7bc996","63690f60c96a0a9a64b48fbc","63691fddf0b0cc51dcef628f","null","","null","","","","","","","","./tasks/HMM-beads/Images/BlackBeadChoice.png","","","","","","","","","","","","","","","","","","","","","","","",""
"image-keyboard-response","202","1655237","0.0-4.0-6.0-1.0-2.41","5dd5db1ded7ea4574c7bc996","63690f60c96a0a9a64b48fbc","63691fddf0b0cc51dcef628f","null","","null","","","","","","","","./tasks/HMM-beads/Images/BlackBeadChoiceWrong.png","","","","","","","","","","","","","","","","","","","","","","","",""
"image-keyboard-response","203","1655550","0.0-4.0-6.0-1.0-0.42","5dd5db1ded7ea4574c7bc996","63690f60c96a0a9a64b48fbc","63691fddf0b0cc51dcef628f","311","","j","","","","","","","","./tasks/HMM-beads/Images/NewTrialWC.png","highH","42","2","2","2","2","true","","","","","","","","","","","","","","","","",""
"image-keyboard-response","204","1655864","0.0-4.0-6.0-1.0-1.42","5dd5db1ded7ea4574c7bc996","63690f60c96a0a9a64b48fbc","63691fddf0b0cc51dcef628f","null","","null","","","","","","","","./tasks/HMM-beads/Images/WhiteBeadChoice.png","","","","","","","","","","","","","","","","","","","","","","","",""
"image-keyboard-response","205","1656385","0.0-4.0-6.0-1.0-2.42","5dd5db1ded7ea4574c7bc996","63690f60c96a0a9a64b48fbc","63691fddf0b0cc51dcef628f","null","","null","","","","","","","","./tasks/HMM-beads/Images/WhiteBeadChoiceCorrect.png","","","","","","","","","","","","","","","","","","","","","","","",""
"image-keyboard-response","206","1656922","0.0-4.0-6.0-1.0-0.43","5dd5db1ded7ea4574c7bc996","63690f60c96a0a9a64b48fbc","63691fddf0b0cc51dcef628f","535","","j","","","","","","","","./tasks/HMM-beads/Images/NewTrialWC.png","highH","43","1","1","2","2","false","","","","","","","","","","","","","","","","",""
"image-keyboard-response","207","1657230","0.0-4.0-6.0-1.0-1.43","5dd5db1ded7ea4574c7bc996","63690f60c96a0a9a64b48fbc","63691fddf0b0cc51dcef628f","null","","null","","","","","","","","./tasks/HMM-beads/Images/WhiteBeadChoice.png","","","","","","","","","","","","","","","","","","","","","","","",""
"image-keyboard-response","208","1657753","0.0-4.0-6.0-1.0-2.43","5dd5db1ded7ea4574c7bc996","63690f60c96a0a9a64b48fbc","63691fddf0b0cc51dcef628f","null","","null","","","","","","","","./tasks/HMM-beads/Images/WhiteBeadChoiceWrong.png","","","","","","","","","","","","","","","","","","","","","","","",""
"image-keyboard-response","209","1658089","0.0-4.0-6.0-1.0-0.44","5dd5db1ded7ea4574c7bc996","63690f60c96a0a9a64b48fbc","63691fddf0b0cc51dcef628f","334","","f","","","","","","","","./tasks/HMM-beads/Images/NewTrialBC.png","highH","44","2","1","1","1","true","","","","","","","","","","","","","","","","",""
"image-keyboard-response","210","1658397","0.0-4.0-6.0-1.0-1.44","5dd5db1ded7ea4574c7bc996","63690f60c96a0a9a64b48fbc","63691fddf0b0cc51dcef628f","null","","null","","","","","","","","./tasks/HMM-beads/Images/BlackBeadChoice.png","","","","","","","","","","","","","","","","","","","","","","","",""
"image-keyboard-response","211","1658919","0.0-4.0-6.0-1.0-2.44","5dd5db1ded7ea4574c7bc996","63690f60c96a0a9a64b48fbc","63691fddf0b0cc51dcef628f","null","","null","","","","","","","","./tasks/HMM-beads/Images/BlackBeadChoiceCorrect.png","","","","","","","","","","","","","","","","","","","","","","","",""
"image-keyboard-response","212","1659440","0.0-4.0-6.0-1.0-0.45","5dd5db1ded7ea4574c7bc996","63690f60c96a0a9a64b48fbc","63691fddf0b0cc51dcef628f","519","","f","","","","","","","","./tasks/HMM-beads/Images/NewTrialBC.png","highH","45","1","1","1","1","true","","","","","","","","","","","","","","","","",""
"image-keyboard-response","213","1659749","0.0-4.0-6.0-1.0-1.45","5dd5db1ded7ea4574c7bc996","63690f60c96a0a9a64b48fbc","63691fddf0b0cc51dcef628f","null","","null","","","","","","","","./tasks/HMM-beads/Images/BlackBeadChoice.png","","","","","","","","","","","","","","","","","","","","","","","",""
"image-keyboard-response","214","1660267","0.0-4.0-6.0-1.0-2.45","5dd5db1ded7ea4574c7bc996","63690f60c96a0a9a64b48fbc","63691fddf0b0cc51dcef628f","null","","null","","","","","","","","./tasks/HMM-beads/Images/BlackBeadChoiceCorrect.png","","","","","","","","","","","","","","","","","","","","","","","",""
"image-keyboard-response","215","1660573","0.0-4.0-6.0-1.0-0.46","5dd5db1ded7ea4574c7bc996","63690f60c96a0a9a64b48fbc","63691fddf0b0cc51dcef628f","304","","f","","","","","","","","./tasks/HMM-beads/Images/NewTrialBC.png","highH","46","2","2","1","1","false","","","","","","","","","","","","","","","","",""
"image-keyboard-response","216","1660896","0.0-4.0-6.0-1.0-1.46","5dd5db1ded7ea4574c7bc996","63690f60c96a0a9a64b48fbc","63691fddf0b0cc51dcef628f","null","","null","","","","","","","","./tasks/HMM-beads/Images/BlackBeadChoice.png","","","","","","","","","","","","","","","","","","","","","","","",""
"image-keyboard-response","217","1661417","0.0-4.0-6.0-1.0-2.46","5dd5db1ded7ea4574c7bc996","63690f60c96a0a9a64b48fbc","63691fddf0b0cc51dcef628f","null","","null","","","","","","","","./tasks/HMM-beads/Images/BlackBeadChoiceWrong.png","","","","","","","","","","","","","","","","","","","","","","","",""
"image-keyboard-response","218","1661587","0.0-4.0-6.0-1.0-0.47","5dd5db1ded7ea4574c7bc996","63690f60c96a0a9a64b48fbc","63691fddf0b0cc51dcef628f","168","","j","","","","","","","","./tasks/HMM-beads/Images/NewTrialWC.png","highH","47","1","1","2","2","false","","","","","","","","","","","","","","","","",""
"image-keyboard-response","219","1661914","0.0-4.0-6.0-1.0-1.47","5dd5db1ded7ea4574c7bc996","63690f60c96a0a9a64b48fbc","63691fddf0b0cc51dcef628f","null","","null","","","","","","","","./tasks/HMM-beads/Images/WhiteBeadChoice.png","","","","","","","","","","","","","","","","","","","","","","","",""
"image-keyboard-response","220","1662434","0.0-4.0-6.0-1.0-2.47","5dd5db1ded7ea4574c7bc996","63690f60c96a0a9a64b48fbc","63691fddf0b0cc51dcef628f","null","","null","","","","","","","","./tasks/HMM-beads/Images/WhiteBeadChoiceWrong.png","","","","","","","","","","","","","","","","","","","","","","","",""
"image-keyboard-response","221","1662834","0.0-4.0-6.0-1.0-0.48","5dd5db1ded7ea4574c7bc996","63690f60c96a0a9a64b48fbc","63691fddf0b0cc51dcef628f","398","","f","","","","","","","","./tasks/HMM-beads/Images/NewTrialBC.png","highH","48","2","2","1","1","false","","","","","","","","","","","","","","","","",""
"image-keyboard-response","222","1663147","0.0-4.0-6.0-1.0-1.48","5dd5db1ded7ea4574c7bc996","63690f60c96a0a9a64b48fbc","63691fddf0b0cc51dcef628f","null","","null","","","","","","","","./tasks/HMM-beads/Images/BlackBeadChoice.png","","","","","","","","","","","","","","","","","","","","","","","",""
"image-keyboard-response","223","1663651","0.0-4.0-6.0-1.0-2.48","5dd5db1ded7ea4574c7bc996","63690f60c96a0a9a64b48fbc","63691fddf0b0cc51dcef628f","null","","null","","","","","","","","./tasks/HMM-beads/Images/BlackBeadChoiceWrong.png","","","","","","","","","","","","","","","","","","","","","","","",""
"image-keyboard-response","224","1664295","0.0-4.0-6.0-1.0-0.49","5dd5db1ded7ea4574c7bc996","63690f60c96a0a9a64b48fbc","63691fddf0b0cc51dcef628f","641","","f","","","","","","","","./tasks/HMM-beads/Images/NewTrialWC.png","highH","49","1","1","2","1","true","","","","","","","","","","","","","","","","",""
"image-keyboard-response","225","1664615","0.0-4.0-6.0-1.0-1.49","5dd5db1ded7ea4574c7bc996","63690f60c96a0a9a64b48fbc","63691fddf0b0cc51dcef628f","null","","null","","","","","","","","./tasks/HMM-beads/Images/BlackBeadChoice.png","","","","","","","","","","","","","","","","","","","","","","","",""
"image-keyboard-response","226","1665134","0.0-4.0-6.0-1.0-2.49","5dd5db1ded7ea4574c7bc996","63690f60c96a0a9a64b48fbc","63691fddf0b0cc51dcef628f","null","","null","","","","","","","","./tasks/HMM-beads/Images/BlackBeadChoiceCorrect.png","","","","","","","","","","","","","","","","","","","","","","","",""
"image-keyboard-response","227","1665213","0.0-4.0-6.0-1.0-0.50","5dd5db1ded7ea4574c7bc996","63690f60c96a0a9a64b48fbc","63691fddf0b0cc51dcef628f","78","","j","","","","","","","","./tasks/HMM-beads/Images/NewTrialBC.png","highH","50","2","1","1","2","false","","","","","","","","","","","","","","","","",""
"image-keyboard-response","228","1665532","0.0-4.0-6.0-1.0-1.50","5dd5db1ded7ea4574c7bc996","63690f60c96a0a9a64b48fbc","63691fddf0b0cc51dcef628f","null","","null","","","","","","","","./tasks/HMM-beads/Images/WhiteBeadChoice.png","","","","","","","","","","","","","","","","","","","","","","","",""
"image-keyboard-response","229","1666050","0.0-4.0-6.0-1.0-2.50","5dd5db1ded7ea4574c7bc996","63690f60c96a0a9a64b48fbc","63691fddf0b0cc51dcef628f","null","","null","","","","","","","","./tasks/HMM-beads/Images/WhiteBeadChoiceWrong.png","","","","","","","","","","","","","","","","","","","","","","","",""
"image-keyboard-response","230","1666731","0.0-4.0-6.0-1.0-0.51","5dd5db1ded7ea4574c7bc996","63690f60c96a0a9a64b48fbc","63691fddf0b0cc51dcef628f","678","","j","","","","","","","","./tasks/HMM-beads/Images/NewTrialBC.png","highH","51","1","1","1","2","false","","","","","","","","","","","","","","","","",""
"image-keyboard-response","231","1667064","0.0-4.0-6.0-1.0-1.51","5dd5db1ded7ea4574c7bc996","63690f60c96a0a9a64b48fbc","63691fddf0b0cc51dcef628f","null","","null","","","","","","","","./tasks/HMM-beads/Images/WhiteBeadChoice.png","","","","","","","","","","","","","","","","","","","","","","","",""
"image-keyboard-response","232","1667583","0.0-4.0-6.0-1.0-2.51","5dd5db1ded7ea4574c7bc996","63690f60c96a0a9a64b48fbc","63691fddf0b0cc51dcef628f","null","","null","","","","","","","","./tasks/HMM-beads/Images/WhiteBeadChoiceWrong.png","","","","","","","","","","","","","","","","","","","","","","","",""
"image-keyboard-response","233","1667938","0.0-4.0-6.0-1.0-0.52","5dd5db1ded7ea4574c7bc996","63690f60c96a0a9a64b48fbc","63691fddf0b0cc51dcef628f","353","","j","","","","","","","","./tasks/HMM-beads/Images/NewTrialBC.png","highH","52","2","2","1","2","true","","","","","","","","","","","","","","","","",""
"image-keyboard-response","234","1668247","0.0-4.0-6.0-1.0-1.52","5dd5db1ded7ea4574c7bc996","63690f60c96a0a9a64b48fbc","63691fddf0b0cc51dcef628f","null","","null","","","","","","","","./tasks/HMM-beads/Images/WhiteBeadChoice.png","","","","","","","","","","","","","","","","","","","","","","","",""
"image-keyboard-response","235","1668767","0.0-4.0-6.0-1.0-2.52","5dd5db1ded7ea4574c7bc996","63690f60c96a0a9a64b48fbc","63691fddf0b0cc51dcef628f","null","","null","","","","","","","","./tasks/HMM-beads/Images/WhiteBeadChoiceCorrect.png","","","","","","","","","","","","","","","","","","","","","","","",""
"image-keyboard-response","236","1669173","0.0-4.0-6.0-1.0-0.53","5dd5db1ded7ea4574c7bc996","63690f60c96a0a9a64b48fbc","63691fddf0b0cc51dcef628f","404","","f","","","","","","","","./tasks/HMM-beads/Images/NewTrialWC.png","highH","53","1","1","2","1","true","","","","","","","","","","","","","","","","",""
"image-keyboard-response","237","1669496","0.0-4.0-6.0-1.0-1.53","5dd5db1ded7ea4574c7bc996","63690f60c96a0a9a64b48fbc","63691fddf0b0cc51dcef628f","null","","null","","","","","","","","./tasks/HMM-beads/Images/BlackBeadChoice.png","","","","","","","","","","","","","","","","","","","","","","","",""
"image-keyboard-response","238","1670018","0.0-4.0-6.0-1.0-2.53","5dd5db1ded7ea4574c7bc996","63690f60c96a0a9a64b48fbc","63691fddf0b0cc51dcef628f","null","","null","","","","","","","","./tasks/HMM-beads/Images/BlackBeadChoiceCorrect.png","","","","","","","","","","","","","","","","","","","","","","","",""
"image-keyboard-response","239","1670321","0.0-4.0-6.0-1.0-0.54","5dd5db1ded7ea4574c7bc996","63690f60c96a0a9a64b48fbc","63691fddf0b0cc51dcef628f","300","","j","","","","","","","","./tasks/HMM-beads/Images/NewTrialBC.png","highH","54","2","2","1","2","true","","","","","","","","","","","","","","","","",""
"image-keyboard-response","240","1670630","0.0-4.0-6.0-1.0-1.54","5dd5db1ded7ea4574c7bc996","63690f60c96a0a9a64b48fbc","63691fddf0b0cc51dcef628f","null","","null","","","","","","","","./tasks/HMM-beads/Images/WhiteBeadChoice.png","","","","","","","","","","","","","","","","","","","","","","","",""
"image-keyboard-response","241","1671150","0.0-4.0-6.0-1.0-2.54","5dd5db1ded7ea4574c7bc996","63690f60c96a0a9a64b48fbc","63691fddf0b0cc51dcef628f","null","","null","","","","","","","","./tasks/HMM-beads/Images/WhiteBeadChoiceCorrect.png","","","","","","","","","","","","","","","","","","","","","","","",""
"image-keyboard-response","242","1671320","0.0-4.0-6.0-1.0-0.55","5dd5db1ded7ea4574c7bc996","63690f60c96a0a9a64b48fbc","63691fddf0b0cc51dcef628f","154","","f","","","","","","","","./tasks/HMM-beads/Images/NewTrialWC.png","highH","55","1","1","2","1","true","","","","","","","","","","","","","","","","",""
"image-keyboard-response","243","1671630","0.0-4.0-6.0-1.0-1.55","5dd5db1ded7ea4574c7bc996","63690f60c96a0a9a64b48fbc","63691fddf0b0cc51dcef628f","null","","null","","","","","","","","./tasks/HMM-beads/Images/BlackBeadChoice.png","","","","","","","","","","","","","","","","","","","","","","","",""
"image-keyboard-response","244","1672149","0.0-4.0-6.0-1.0-2.55","5dd5db1ded7ea4574c7bc996","63690f60c96a0a9a64b48fbc","63691fddf0b0cc51dcef628f","null","","null","","","","","","","","./tasks/HMM-beads/Images/BlackBeadChoiceCorrect.png","","","","","","","","","","","","","","","","","","","","","","","",""
"image-keyboard-response","245","1672495","0.0-4.0-6.0-1.0-0.56","5dd5db1ded7ea4574c7bc996","63690f60c96a0a9a64b48fbc","63691fddf0b0cc51dcef628f","344","","f","","","","","","","","./tasks/HMM-beads/Images/NewTrialBC.png","highH","56","2","2","1","1","false","","","","","","","","","","","","","","","","",""
"image-keyboard-response","246","1672814","0.0-4.0-6.0-1.0-1.56","5dd5db1ded7ea4574c7bc996","63690f60c96a0a9a64b48fbc","63691fddf0b0cc51dcef628f","null","","null","","","","","","","","./tasks/HMM-beads/Images/BlackBeadChoice.png","","","","","","","","","","","","","","","","","","","","","","","",""
"image-keyboard-response","247","1673333","0.0-4.0-6.0-1.0-2.56","5dd5db1ded7ea4574c7bc996","63690f60c96a0a9a64b48fbc","63691fddf0b0cc51dcef628f","null","","null","","","","","","","","./tasks/HMM-beads/Images/BlackBeadChoiceWrong.png","","","","","","","","","","","","","","","","","","","","","","","",""
"image-keyboard-response","248","1673826","0.0-4.0-6.0-1.0-0.57","5dd5db1ded7ea4574c7bc996","63690f60c96a0a9a64b48fbc","63691fddf0b0cc51dcef628f","491","","j","","","","","","","","./tasks/HMM-beads/Images/NewTrialWC.png","highH","57","1","1","2","2","false","","","","","","","","","","","","","","","","",""
"image-keyboard-response","249","1674146","0.0-4.0-6.0-1.0-1.57","5dd5db1ded7ea4574c7bc996","63690f60c96a0a9a64b48fbc","63691fddf0b0cc51dcef628f","null","","null","","","","","","","","./tasks/HMM-beads/Images/WhiteBeadChoice.png","","","","","","","","","","","","","","","","","","","","","","","",""
"image-keyboard-response","250","1674651","0.0-4.0-6.0-1.0-2.57","5dd5db1ded7ea4574c7bc996","63690f60c96a0a9a64b48fbc","63691fddf0b0cc51dcef628f","null","","null","","","","","","","","./tasks/HMM-beads/Images/WhiteBeadChoiceWrong.png","","","","","","","","","","","","","","","","","","","","","","","",""
"image-keyboard-response","251","1674829","0.0-4.0-6.0-1.0-0.58","5dd5db1ded7ea4574c7bc996","63690f60c96a0a9a64b48fbc","63691fddf0b0cc51dcef628f","175","","f","","","","","","","","./tasks/HMM-beads/Images/NewTrialBC.png","highH","58","2","2","1","1","false","","","","","","","","","","","","","","","","",""
"image-keyboard-response","252","1675148","0.0-4.0-6.0-1.0-1.58","5dd5db1ded7ea4574c7bc996","63690f60c96a0a9a64b48fbc","63691fddf0b0cc51dcef628f","null","","null","","","","","","","","./tasks/HMM-beads/Images/BlackBeadChoice.png","","","","","","","","","","","","","","","","","","","","","","","",""
"image-keyboard-response","253","1675651","0.0-4.0-6.0-1.0-2.58","5dd5db1ded7ea4574c7bc996","63690f60c96a0a9a64b48fbc","63691fddf0b0cc51dcef628f","null","","null","","","","","","","","./tasks/HMM-beads/Images/BlackBeadChoiceWrong.png","","","","","","","","","","","","","","","","","","","","","","","",""
"image-keyboard-response","254","1676380","0.0-4.0-6.0-1.0-0.59","5dd5db1ded7ea4574c7bc996","63690f60c96a0a9a64b48fbc","63691fddf0b0cc51dcef628f","727","","f","","","","","","","","./tasks/HMM-beads/Images/NewTrialWC.png","highH","59","1","1","2","1","true","","","","","","","","","","","","","","","","",""
"image-keyboard-response","255","1676695","0.0-4.0-6.0-1.0-1.59","5dd5db1ded7ea4574c7bc996","63690f60c96a0a9a64b48fbc","63691fddf0b0cc51dcef628f","null","","null","","","","","","","","./tasks/HMM-beads/Images/BlackBeadChoice.png","","","","","","","","","","","","","","","","","","","","","","","",""
"image-keyboard-response","256","1677216","0.0-4.0-6.0-1.0-2.59","5dd5db1ded7ea4574c7bc996","63690f60c96a0a9a64b48fbc","63691fddf0b0cc51dcef628f","null","","null","","","","","","","","./tasks/HMM-beads/Images/BlackBeadChoiceCorrect.png","","","","","","","","","","","","","","","","","","","","","","","",""
"image-keyboard-response","257","1677297","0.0-4.0-6.0-1.0-0.60","5dd5db1ded7ea4574c7bc996","63690f60c96a0a9a64b48fbc","63691fddf0b0cc51dcef628f","79","","j","","","","","","","","./tasks/HMM-beads/Images/NewTrialBC.png","highH","60","2","2","1","2","true","","","","","","","","","","","","","","","","",""
"image-keyboard-response","258","1677614","0.0-4.0-6.0-1.0-1.60","5dd5db1ded7ea4574c7bc996","63690f60c96a0a9a64b48fbc","63691fddf0b0cc51dcef628f","null","","null","","","","","","","","./tasks/HMM-beads/Images/WhiteBeadChoice.png","","","","","","","","","","","","","","","","","","","","","","","",""
"image-keyboard-response","259","1678132","0.0-4.0-6.0-1.0-2.60","5dd5db1ded7ea4574c7bc996","63690f60c96a0a9a64b48fbc","63691fddf0b0cc51dcef628f","null","","null","","","","","","","","./tasks/HMM-beads/Images/WhiteBeadChoiceCorrect.png","","","","","","","","","","","","","","","","","","","","","","","",""
"image-keyboard-response","260","1678672","0.0-4.0-6.0-1.0-0.61","5dd5db1ded7ea4574c7bc996","63690f60c96a0a9a64b48fbc","63691fddf0b0cc51dcef628f","537","","j","","","","","","","","./tasks/HMM-beads/Images/NewTrialWC.png","highH","61","1","2","2","2","true","","","","","","","","","","","","","","","","",""
"image-keyboard-response","261","1678980","0.0-4.0-6.0-1.0-1.61","5dd5db1ded7ea4574c7bc996","63690f60c96a0a9a64b48fbc","63691fddf0b0cc51dcef628f","null","","null","","","","","","","","./tasks/HMM-beads/Images/WhiteBeadChoice.png","","","","","","","","","","","","","","","","","","","","","","","",""
"image-keyboard-response","262","1679484","0.0-4.0-6.0-1.0-2.61","5dd5db1ded7ea4574c7bc996","63690f60c96a0a9a64b48fbc","63691fddf0b0cc51dcef628f","null","","null","","","","","","","","./tasks/HMM-beads/Images/WhiteBeadChoiceCorrect.png","","","","","","","","","","","","","","","","","","","","","","","",""
"image-keyboard-response","263","1679841","0.0-4.0-6.0-1.0-0.62","5dd5db1ded7ea4574c7bc996","63690f60c96a0a9a64b48fbc","63691fddf0b0cc51dcef628f","355","","f","","","","","","","","./tasks/HMM-beads/Images/NewTrialWC.png","highH","62","2","2","2","1","false","","","","","","","","","","","","","","","","",""
"image-keyboard-response","264","1680178","0.0-4.0-6.0-1.0-1.62","5dd5db1ded7ea4574c7bc996","63690f60c96a0a9a64b48fbc","63691fddf0b0cc51dcef628f","null","","null","","","","","","","","./tasks/HMM-beads/Images/BlackBeadChoice.png","","","","","","","","","","","","","","","","","","","","","","","",""
"image-keyboard-response","265","1680684","0.0-4.0-6.0-1.0-2.62","5dd5db1ded7ea4574c7bc996","63690f60c96a0a9a64b48fbc","63691fddf0b0cc51dcef628f","null","","null","","","","","","","","./tasks/HMM-beads/Images/BlackBeadChoiceWrong.png","","","","","","","","","","","","","","","","","","","","","","","",""
"image-keyboard-response","266","1681009","0.0-4.0-6.0-1.0-0.63","5dd5db1ded7ea4574c7bc996","63690f60c96a0a9a64b48fbc","63691fddf0b0cc51dcef628f","323","","j","","","","","","","","./tasks/HMM-beads/Images/NewTrialWC.png","highH","63","1","1","2","2","false","","","","","","","","","","","","","","","","",""
"image-keyboard-response","267","1681328","0.0-4.0-6.0-1.0-1.63","5dd5db1ded7ea4574c7bc996","63690f60c96a0a9a64b48fbc","63691fddf0b0cc51dcef628f","null","","null","","","","","","","","./tasks/HMM-beads/Images/WhiteBeadChoice.png","","","","","","","","","","","","","","","","","","","","","","","",""
"image-keyboard-response","268","1681835","0.0-4.0-6.0-1.0-2.63","5dd5db1ded7ea4574c7bc996","63690f60c96a0a9a64b48fbc","63691fddf0b0cc51dcef628f","null","","null","","","","","","","","./tasks/HMM-beads/Images/WhiteBeadChoiceWrong.png","","","","","","","","","","","","","","","","","","","","","","","",""
"image-keyboard-response","269","1682303","0.0-4.0-6.0-1.0-0.64","5dd5db1ded7ea4574c7bc996","63690f60c96a0a9a64b48fbc","63691fddf0b0cc51dcef628f","466","","j","","","","","","","","./tasks/HMM-beads/Images/NewTrialBC.png","highH","64","2","2","1","2","true","","","","","","","","","","","","","","","","",""
"image-keyboard-response","270","1682613","0.0-4.0-6.0-1.0-1.64","5dd5db1ded7ea4574c7bc996","63690f60c96a0a9a64b48fbc","63691fddf0b0cc51dcef628f","null","","null","","","","","","","","./tasks/HMM-beads/Images/WhiteBeadChoice.png","","","","","","","","","","","","","","","","","","","","","","","",""
"image-keyboard-response","271","1683133","0.0-4.0-6.0-1.0-2.64","5dd5db1ded7ea4574c7bc996","63690f60c96a0a9a64b48fbc","63691fddf0b0cc51dcef628f","null","","null","","","","","","","","./tasks/HMM-beads/Images/WhiteBeadChoiceCorrect.png","","","","","","","","","","","","","","","","","","","","","","","",""
"image-keyboard-response","272","1683638","0.0-4.0-6.0-1.0-0.65","5dd5db1ded7ea4574c7bc996","63690f60c96a0a9a64b48fbc","63691fddf0b0cc51dcef628f","503","","j","","","","","","","","./tasks/HMM-beads/Images/NewTrialWC.png","highH","65","1","1","2","2","false","","","","","","","","","","","","","","","","",""
"image-keyboard-response","273","1683961","0.0-4.0-6.0-1.0-1.65","5dd5db1ded7ea4574c7bc996","63690f60c96a0a9a64b48fbc","63691fddf0b0cc51dcef628f","null","","null","","","","","","","","./tasks/HMM-beads/Images/WhiteBeadChoice.png","","","","","","","","","","","","","","","","","","","","","","","",""
"image-keyboard-response","274","1684466","0.0-4.0-6.0-1.0-2.65","5dd5db1ded7ea4574c7bc996","63690f60c96a0a9a64b48fbc","63691fddf0b0cc51dcef628f","null","","null","","","","","","","","./tasks/HMM-beads/Images/WhiteBeadChoiceWrong.png","","","","","","","","","","","","","","","","","","","","","","","",""
"image-keyboard-response","275","1684557","0.0-4.0-6.0-1.0-0.66","5dd5db1ded7ea4574c7bc996","63690f60c96a0a9a64b48fbc","63691fddf0b0cc51dcef628f","89","","f","","","","","","","","./tasks/HMM-beads/Images/NewTrialBC.png","highH","66","2","2","1","1","false","","","","","","","","","","","","","","","","",""
"image-keyboard-response","276","1684878","0.0-4.0-6.0-1.0-1.66","5dd5db1ded7ea4574c7bc996","63690f60c96a0a9a64b48fbc","63691fddf0b0cc51dcef628f","null","","null","","","","","","","","./tasks/HMM-beads/Images/BlackBeadChoice.png","","","","","","","","","","","","","","","","","","","","","","","",""
"image-keyboard-response","277","1685399","0.0-4.0-6.0-1.0-2.66","5dd5db1ded7ea4574c7bc996","63690f60c96a0a9a64b48fbc","63691fddf0b0cc51dcef628f","null","","null","","","","","","","","./tasks/HMM-beads/Images/BlackBeadChoiceWrong.png","","","","","","","","","","","","","","","","","","","","","","","",""
"image-keyboard-response","278","1685686","0.0-4.0-6.0-1.0-0.67","5dd5db1ded7ea4574c7bc996","63690f60c96a0a9a64b48fbc","63691fddf0b0cc51dcef628f","284","","j","","","","","","","","./tasks/HMM-beads/Images/NewTrialWC.png","highH","67","1","1","2","2","false","","","","","","","","","","","","","","","","",""
"image-keyboard-response","279","1685996","0.0-4.0-6.0-1.0-1.67","5dd5db1ded7ea4574c7bc996","63690f60c96a0a9a64b48fbc","63691fddf0b0cc51dcef628f","null","","null","","","","","","","","./tasks/HMM-beads/Images/WhiteBeadChoice.png","","","","","","","","","","","","","","","","","","","","","","","",""
"image-keyboard-response","280","1686514","0.0-4.0-6.0-1.0-2.67","5dd5db1ded7ea4574c7bc996","63690f60c96a0a9a64b48fbc","63691fddf0b0cc51dcef628f","null","","null","","","","","","","","./tasks/HMM-beads/Images/WhiteBeadChoiceWrong.png","","","","","","","","","","","","","","","","","","","","","","","",""
"image-keyboard-response","281","1686695","0.0-4.0-6.0-1.0-0.68","5dd5db1ded7ea4574c7bc996","63690f60c96a0a9a64b48fbc","63691fddf0b0cc51dcef628f","178","","f","","","","","","","","./tasks/HMM-beads/Images/NewTrialBC.png","highH","68","2","2","1","1","false","","","","","","","","","","","","","","","","",""
"image-keyboard-response","282","1687013","0.0-4.0-6.0-1.0-1.68","5dd5db1ded7ea4574c7bc996","63690f60c96a0a9a64b48fbc","63691fddf0b0cc51dcef628f","null","","null","","","","","","","","./tasks/HMM-beads/Images/BlackBeadChoice.png","","","","","","","","","","","","","","","","","","","","","","","",""
"image-keyboard-response","283","1687532","0.0-4.0-6.0-1.0-2.68","5dd5db1ded7ea4574c7bc996","63690f60c96a0a9a64b48fbc","63691fddf0b0cc51dcef628f","null","","null","","","","","","","","./tasks/HMM-beads/Images/BlackBeadChoiceWrong.png","","","","","","","","","","","","","","","","","","","","","","","",""
"image-keyboard-response","284","1687848","0.0-4.0-6.0-1.0-0.69","5dd5db1ded7ea4574c7bc996","63690f60c96a0a9a64b48fbc","63691fddf0b0cc51dcef628f","314","","f","","","","","","","","./tasks/HMM-beads/Images/NewTrialWC.png","highH","69","1","2","2","1","false","","","","","","","","","","","","","","","","",""
"image-keyboard-response","285","1688162","0.0-4.0-6.0-1.0-1.69","5dd5db1ded7ea4574c7bc996","63690f60c96a0a9a64b48fbc","63691fddf0b0cc51dcef628f","null","","null","","","","","","","","./tasks/HMM-beads/Images/BlackBeadChoice.png","","","","","","","","","","","","","","","","","","","","","","","",""
"image-keyboard-response","286","1688682","0.0-4.0-6.0-1.0-2.69","5dd5db1ded7ea4574c7bc996","63690f60c96a0a9a64b48fbc","63691fddf0b0cc51dcef628f","null","","null","","","","","","","","./tasks/HMM-beads/Images/BlackBeadChoiceWrong.png","","","","","","","","","","","","","","","","","","","","","","","",""
"image-keyboard-response","287","1689054","0.0-4.0-6.0-1.0-0.70","5dd5db1ded7ea4574c7bc996","63690f60c96a0a9a64b48fbc","63691fddf0b0cc51dcef628f","371","","j","","","","","","","","./tasks/HMM-beads/Images/NewTrialWC.png","highH","70","2","2","2","2","true","","","","","","","","","","","","","","","","",""
"image-keyboard-response","288","1689377","0.0-4.0-6.0-1.0-1.70","5dd5db1ded7ea4574c7bc996","63690f60c96a0a9a64b48fbc","63691fddf0b0cc51dcef628f","null","","null","","","","","","","","./tasks/HMM-beads/Images/WhiteBeadChoice.png","","","","","","","","","","","","","","","","","","","","","","","",""
"image-keyboard-response","289","1689915","0.0-4.0-6.0-1.0-2.70","5dd5db1ded7ea4574c7bc996","63690f60c96a0a9a64b48fbc","63691fddf0b0cc51dcef628f","null","","null","","","","","","","","./tasks/HMM-beads/Images/WhiteBeadChoiceCorrect.png","","","","","","","","","","","","","","","","","","","","","","","",""
"image-keyboard-response","290","1690356","0.0-4.0-6.0-1.0-0.71","5dd5db1ded7ea4574c7bc996","63690f60c96a0a9a64b48fbc","63691fddf0b0cc51dcef628f","438","","j","","","","","","","","./tasks/HMM-beads/Images/NewTrialWC.png","highH","71","1","2","2","2","true","","","","","","","","","","","","","","","","",""
"image-keyboard-response","291","1690662","0.0-4.0-6.0-1.0-1.71","5dd5db1ded7ea4574c7bc996","63690f60c96a0a9a64b48fbc","63691fddf0b0cc51dcef628f","null","","null","","","","","","","","./tasks/HMM-beads/Images/WhiteBeadChoice.png","","","","","","","","","","","","","","","","","","","","","","","",""
"image-keyboard-response","292","1691173","0.0-4.0-6.0-1.0-2.71","5dd5db1ded7ea4574c7bc996","63690f60c96a0a9a64b48fbc","63691fddf0b0cc51dcef628f","null","","null","","","","","","","","./tasks/HMM-beads/Images/WhiteBeadChoiceCorrect.png","","","","","","","","","","","","","","","","","","","","","","","",""
"image-keyboard-response","293","1691467","0.0-4.0-6.0-1.0-0.72","5dd5db1ded7ea4574c7bc996","63690f60c96a0a9a64b48fbc","63691fddf0b0cc51dcef628f","291","","j","","","","","","","","./tasks/HMM-beads/Images/NewTrialWC.png","highH","72","2","2","2","2","true","","","","","","","","","","","","","","","","",""
"image-keyboard-response","294","1691779","0.0-4.0-6.0-1.0-1.72","5dd5db1ded7ea4574c7bc996","63690f60c96a0a9a64b48fbc","63691fddf0b0cc51dcef628f","null","","null","","","","","","","","./tasks/HMM-beads/Images/WhiteBeadChoice.png","","","","","","","","","","","","","","","","","","","","","","","",""
"image-keyboard-response","295","1692298","0.0-4.0-6.0-1.0-2.72","5dd5db1ded7ea4574c7bc996","63690f60c96a0a9a64b48fbc","63691fddf0b0cc51dcef628f","null","","null","","","","","","","","./tasks/HMM-beads/Images/WhiteBeadChoiceCorrect.png","","","","","","","","","","","","","","","","","","","","","","","",""
"image-keyboard-response","296","1692582","0.0-4.0-6.0-1.0-0.73","5dd5db1ded7ea4574c7bc996","63690f60c96a0a9a64b48fbc","63691fddf0b0cc51dcef628f","283","","j","","","","","","","","./tasks/HMM-beads/Images/NewTrialWC.png","highH","73","1","1","2","2","false","","","","","","","","","","","","","","","","",""
"image-keyboard-response","297","1692895","0.0-4.0-6.0-1.0-1.73","5dd5db1ded7ea4574c7bc996","63690f60c96a0a9a64b48fbc","63691fddf0b0cc51dcef628f","null","","null","","","","","","","","./tasks/HMM-beads/Images/WhiteBeadChoice.png","","","","","","","","","","","","","","","","","","","","","","","",""
"image-keyboard-response","298","1693415","0.0-4.0-6.0-1.0-2.73","5dd5db1ded7ea4574c7bc996","63690f60c96a0a9a64b48fbc","63691fddf0b0cc51dcef628f","null","","null","","","","","","","","./tasks/HMM-beads/Images/WhiteBeadChoiceWrong.png","","","","","","","","","","","","","","","","","","","","","","","",""
"image-keyboard-response","299","1693504","0.0-4.0-6.0-1.0-0.74","5dd5db1ded7ea4574c7bc996","63690f60c96a0a9a64b48fbc","63691fddf0b0cc51dcef628f","87","","f","","","","","","","","./tasks/HMM-beads/Images/NewTrialBC.png","highH","74","2","2","1","1","false","","","","","","","","","","","","","","","","",""
"image-keyboard-response","300","1693812","0.0-4.0-6.0-1.0-1.74","5dd5db1ded7ea4574c7bc996","63690f60c96a0a9a64b48fbc","63691fddf0b0cc51dcef628f","null","","null","","","","","","","","./tasks/HMM-beads/Images/BlackBeadChoice.png","","","","","","","","","","","","","","","","","","","","","","","",""
"image-keyboard-response","301","1694315","0.0-4.0-6.0-1.0-2.74","5dd5db1ded7ea4574c7bc996","63690f60c96a0a9a64b48fbc","63691fddf0b0cc51dcef628f","null","","null","","","","","","","","./tasks/HMM-beads/Images/BlackBeadChoiceWrong.png","","","","","","","","","","","","","","","","","","","","","","","",""
"image-keyboard-response","302","1694931","0.0-4.0-6.0-1.0-0.75","5dd5db1ded7ea4574c7bc996","63690f60c96a0a9a64b48fbc","63691fddf0b0cc51dcef628f","599","","j","","","","","","","","./tasks/HMM-beads/Images/NewTrialWC.png","highH","75","1","1","2","2","false","","","","","","","","","","","","","","","","",""
"image-keyboard-response","303","1695245","0.0-4.0-6.0-1.0-1.75","5dd5db1ded7ea4574c7bc996","63690f60c96a0a9a64b48fbc","63691fddf0b0cc51dcef628f","null","","null","","","","","","","","./tasks/HMM-beads/Images/WhiteBeadChoice.png","","","","","","","","","","","","","","","","","","","","","","","",""
"image-keyboard-response","304","1695764","0.0-4.0-6.0-1.0-2.75","5dd5db1ded7ea4574c7bc996","63690f60c96a0a9a64b48fbc","63691fddf0b0cc51dcef628f","null","","null","","","","","","","","./tasks/HMM-beads/Images/WhiteBeadChoiceWrong.png","","","","","","","","","","","","","","","","","","","","","","","",""
"image-keyboard-response","305","1695782","0.0-4.0-6.0-1.0-0.76","5dd5db1ded7ea4574c7bc996","63690f60c96a0a9a64b48fbc","63691fddf0b0cc51dcef628f","16","","f","","","","","","","","./tasks/HMM-beads/Images/NewTrialBC.png","highH","76","2","2","1","1","false","","","","","","","","","","","","","","","","",""
"image-keyboard-response","306","1696095","0.0-4.0-6.0-1.0-1.76","5dd5db1ded7ea4574c7bc996","63690f60c96a0a9a64b48fbc","63691fddf0b0cc51dcef628f","null","","null","","","","","","","","./tasks/HMM-beads/Images/BlackBeadChoice.png","","","","","","","","","","","","","","","","","","","","","","","",""
"image-keyboard-response","307","1696615","0.0-4.0-6.0-1.0-2.76","5dd5db1ded7ea4574c7bc996","63690f60c96a0a9a64b48fbc","63691fddf0b0cc51dcef628f","null","","null","","","","","","","","./tasks/HMM-beads/Images/BlackBeadChoiceWrong.png","","","","","","","","","","","","","","","","","","","","","","","",""
"image-keyboard-response","308","1698143","0.0-4.0-6.0-1.0-0.77","5dd5db1ded7ea4574c7bc996","63690f60c96a0a9a64b48fbc","63691fddf0b0cc51dcef628f","1526","","f","","","","","","","","./tasks/HMM-beads/Images/NewTrialWC.png","highH","77","1","1","2","1","true","","","","","","","","","","","","","","","","",""
"image-keyboard-response","309","1698461","0.0-4.0-6.0-1.0-1.77","5dd5db1ded7ea4574c7bc996","63690f60c96a0a9a64b48fbc","63691fddf0b0cc51dcef628f","null","","null","","","","","","","","./tasks/HMM-beads/Images/BlackBeadChoice.png","","","","","","","","","","","","","","","","","","","","","","","",""
"image-keyboard-response","310","1698982","0.0-4.0-6.0-1.0-2.77","5dd5db1ded7ea4574c7bc996","63690f60c96a0a9a64b48fbc","63691fddf0b0cc51dcef628f","null","","null","","","","","","","","./tasks/HMM-beads/Images/BlackBeadChoiceCorrect.png","","","","","","","","","","","","","","","","","","","","","","","",""
"image-keyboard-response","311","1700170","0.0-4.0-6.0-1.0-0.78","5dd5db1ded7ea4574c7bc996","63690f60c96a0a9a64b48fbc","63691fddf0b0cc51dcef628f","1186","","f","","","","","","","","./tasks/HMM-beads/Images/NewTrialBC.png","highH","78","2","2","1","1","false","","","","","","","","","","","","","","","","",""
"image-keyboard-response","312","1700479","0.0-4.0-6.0-1.0-1.78","5dd5db1ded7ea4574c7bc996","63690f60c96a0a9a64b48fbc","63691fddf0b0cc51dcef628f","null","","null","","","","","","","","./tasks/HMM-beads/Images/BlackBeadChoice.png","","","","","","","","","","","","","","","","","","","","","","","",""
"image-keyboard-response","313","1700998","0.0-4.0-6.0-1.0-2.78","5dd5db1ded7ea4574c7bc996","63690f60c96a0a9a64b48fbc","63691fddf0b0cc51dcef628f","null","","null","","","","","","","","./tasks/HMM-beads/Images/BlackBeadChoiceWrong.png","","","","","","","","","","","","","","","","","","","","","","","",""
"image-keyboard-response","314","1701569","0.0-4.0-6.0-1.0-0.79","5dd5db1ded7ea4574c7bc996","63690f60c96a0a9a64b48fbc","63691fddf0b0cc51dcef628f","569","","j","","","","","","","","./tasks/HMM-beads/Images/NewTrialWC.png","highH","79","1","1","2","2","false","","","","","","","","","","","","","","","","",""
"image-keyboard-response","315","1701877","0.0-4.0-6.0-1.0-1.79","5dd5db1ded7ea4574c7bc996","63690f60c96a0a9a64b48fbc","63691fddf0b0cc51dcef628f","null","","null","","","","","","","","./tasks/HMM-beads/Images/WhiteBeadChoice.png","","","","","","","","","","","","","","","","","","","","","","","",""
"image-keyboard-response","316","1702383","0.0-4.0-6.0-1.0-2.79","5dd5db1ded7ea4574c7bc996","63690f60c96a0a9a64b48fbc","63691fddf0b0cc51dcef628f","null","","null","","","","","","","","./tasks/HMM-beads/Images/WhiteBeadChoiceWrong.png","","","","","","","","","","","","","","","","","","","","","","","",""
"image-keyboard-response","317","1702992","0.0-4.0-6.0-1.0-0.80","5dd5db1ded7ea4574c7bc996","63690f60c96a0a9a64b48fbc","63691fddf0b0cc51dcef628f","606","","f","","","","","","","","./tasks/HMM-beads/Images/NewTrialBC.png","highH","80","2","1","1","1","true","","","","","","","","","","","","","","","","",""
"image-keyboard-response","318","1703312","0.0-4.0-6.0-1.0-1.80","5dd5db1ded7ea4574c7bc996","63690f60c96a0a9a64b48fbc","63691fddf0b0cc51dcef628f","null","","null","","","","","","","","./tasks/HMM-beads/Images/BlackBeadChoice.png","","","","","","","","","","","","","","","","","","","","","","","",""
"image-keyboard-response","319","1703831","0.0-4.0-6.0-1.0-2.80","5dd5db1ded7ea4574c7bc996","63690f60c96a0a9a64b48fbc","63691fddf0b0cc51dcef628f","null","","null","","","","","","","","./tasks/HMM-beads/Images/BlackBeadChoiceCorrect.png","","","","","","","","","","","","","","","","","","","","","","","",""
"image-keyboard-response","320","1704286","0.0-4.0-6.0-1.0-0.81","5dd5db1ded7ea4574c7bc996","63690f60c96a0a9a64b48fbc","63691fddf0b0cc51dcef628f","453","","j","","","","","","","","./tasks/HMM-beads/Images/NewTrialBC.png","highH","81","1","1","1","2","false","","","","","","","","","","","","","","","","",""
