"trial_type","trial_index","time_elapsed","internal_node_id","subject_id","study_id","session_id","rt","url","response","question_order","view_history","success","timeout","failed_images","failed_audio","failed_video","stimulus","block","trial_number","jar","bead","previous_bead","choice","correct","highH_score","lowH_score","state","rewarded","state1_action","state2_visited","state1_key","state2_key","state1_rt","state2_rt","two_arm_score_block1","block_num","seq_file","trial_seq_info","two_arm_score_block2","two_arm_score_total","total_bonus"
"pavlovia","0","1341","0.0-0.0","5c1bc0ab84ff14000184c2ce","63690f60c96a0a9a64b48fbc","63692122e86f66446f93f897","","","","","","","","","","","","","","","","","","","","","","","","","","","","","","","","","","",""
"external-html","1","322901","0.0-1.0-0.0","5c1bc0ab84ff14000184c2ce","63690f60c96a0a9a64b48fbc","63692122e86f66446f93f897","321424","new_consent.html","","","","","","","","","","","","","","","","","","","","","","","","","","","","","","","","",""
"survey-multi-choice","2","327661","0.0-1.0-1.0","5c1bc0ab84ff14000184c2ce","63690f60c96a0a9a64b48fbc","63692122e86f66446f93f897","4755","","{""Q0"":""Male"",""Q1"":""Hispanic or Latino""}","[0,1]","","","","","","","","","","","","","","","","","","","","","","","","","","","","","","",""
"survey-text","3","331261","0.0-1.0-2.0","5c1bc0ab84ff14000184c2ce","63690f60c96a0a9a64b48fbc","63692122e86f66446f93f897","3597","","{""Q0"":""38""}","","","","","","","","","","","","","","","","","","","","","","","","","","","","","","","",""
"instructions","4","1869477","0.0-2.0","5c1bc0ab84ff14000184c2ce","63690f60c96a0a9a64b48fbc","63692122e86f66446f93f897","1538108","","","","[{""page_index"":0,""viewing_time"":1536420},{""page_index"":1,""viewing_time"":1688}]","","","","","","","","","","","","","","","","","","","","","","","","","","","","","",""
"instructions","5","1870837","0.0-3.0","5c1bc0ab84ff14000184c2ce","63690f60c96a0a9a64b48fbc","63692122e86f66446f93f897","1359","","","","[{""page_index"":0,""viewing_time"":1358}]","","","","","","","","","","","","","","","","","","","","","","","","","","","","","",""
"preload","6","1872332","0.0-4.0-0.0","5c1bc0ab84ff14000184c2ce","63690f60c96a0a9a64b48fbc","63692122e86f66446f93f897","","","","","","true","false","[]","[]","[]","","","","","","","","","","","","","","","","","","","","","","","","",""
"instructions","7","1961797","0.0-4.0-1.0","5c1bc0ab84ff14000184c2ce","63690f60c96a0a9a64b48fbc","63692122e86f66446f93f897","89464","","","","[{""page_index"":0,""viewing_time"":12745},{""page_index"":1,""viewing_time"":9824},{""page_index"":2,""viewing_time"":3967},{""page_index"":3,""viewing_time"":2616},{""page_index"":4,""viewing_time"":8032},{""page_index"":5,""viewing_time"":26473},{""page_index"":6,""viewing_time"":4136},{""page_index"":7,""viewing_time"":7312},{""page_index"":8,""viewing_time"":3136},{""page_index"":9,""viewing_time"":3296},{""page_index"":10,""viewing_time"":5912},{""page_index"":11,""viewing_time"":2016}]","","","","","","","","","","","","","","","","","","","","","","","","","","","","","",""
"html-button-response","8","1965086","0.0-4.0-2.0-0.0-0.0","5c1bc0ab84ff14000184c2ce","63690f60c96a0a9a64b48fbc","63692122e86f66446f93f897","3287","","1","","","","","","","","<div align=center>Your goal is to predict…?<br><br></div>","","","","","","","","","","","","","","","","","","","","","","","",""
"html-button-response","9","1970269","0.0-4.0-2.0-1.0-0.0","5c1bc0ab84ff14000184c2ce","63690f60c96a0a9a64b48fbc","63692122e86f66446f93f897","2962","","2","","","","","","","","<div align=center>In the jar with mostly white beads, there are ___% white beads and ___% black beads?<br><br></div>","","","","","","","","","","","","","","","","","","","","","","","",""
"html-button-response","10","1978854","0.0-4.0-2.0-2.0-0.0","5c1bc0ab84ff14000184c2ce","63690f60c96a0a9a64b48fbc","63692122e86f66446f93f897","7200","","0","","","","","","","","<div align=center>When there is a 1% probability that the jars will switch, the next bead will most likely be drawn from the…<br><br></div>","","","","","","","","","","","","","","","","","","","","","","","",""
"html-button-response","11","1982005","0.0-4.0-2.0-3.0-0.0","5c1bc0ab84ff14000184c2ce","63690f60c96a0a9a64b48fbc","63692122e86f66446f93f897","1734","","1","","","","","","","","<div align=center>When there is a 99% probability that the jars will switch, the next bead will most likely be drawn from the…<br><br></div>","","","","","","","","","","","","","","","","","","","","","","","",""
"instructions","12","2043125","0.0-4.0-3.0","5c1bc0ab84ff14000184c2ce","63690f60c96a0a9a64b48fbc","63692122e86f66446f93f897","60128","","","","[{""page_index"":0,""viewing_time"":60127}]","","","","","","","","","","","","","","","","","","","","","","","","","","","","","",""
"html-keyboard-response","13","2048486","0.0-4.0-4.0-0.0","5c1bc0ab84ff14000184c2ce","63690f60c96a0a9a64b48fbc","63692122e86f66446f93f897","5356",""," ","","","","","","","","<div align=center>In this practice block, there will be a <b>10% chance</b> that the jar on the next trial will be different from the jar on the current trial.<br><br></div>","","","","","","","","","","","","","","","","","","","","","","","",""
"image-keyboard-response","14","2051019","0.0-4.0-4.0-1.0-0.0","5c1bc0ab84ff14000184c2ce","63690f60c96a0a9a64b48fbc","63692122e86f66446f93f897","2525","","f","","","","","","","","./tasks/HMM-beads/Images/NoChoice.png","practice","0","1","1","0","1","true","","","","","","","","","","","","","","","","",""
"image-keyboard-response","15","2051330","0.0-4.0-4.0-1.0-1.0","5c1bc0ab84ff14000184c2ce","63690f60c96a0a9a64b48fbc","63692122e86f66446f93f897","null","","null","","","","","","","","./tasks/HMM-beads/Images/BlackBeadChoice.png","","","","","","","","","","","","","","","","","","","","","","","",""
"image-keyboard-response","16","2051842","0.0-4.0-4.0-1.0-2.0","5c1bc0ab84ff14000184c2ce","63690f60c96a0a9a64b48fbc","63692122e86f66446f93f897","null","","null","","","","","","","","./tasks/HMM-beads/Images/BlackBeadChoiceCorrect.png","","","","","","","","","","","","","","","","","","","","","","","",""
"image-keyboard-response","17","2053166","0.0-4.0-4.0-1.0-0.1","5c1bc0ab84ff14000184c2ce","63690f60c96a0a9a64b48fbc","63692122e86f66446f93f897","1323","","f","","","","","","","","./tasks/HMM-beads/Images/NewTrialBC.png","practice","1","1","1","1","1","true","","","","","","","","","","","","","","","","",""
"image-keyboard-response","18","2053472","0.0-4.0-4.0-1.0-1.1","5c1bc0ab84ff14000184c2ce","63690f60c96a0a9a64b48fbc","63692122e86f66446f93f897","null","","null","","","","","","","","./tasks/HMM-beads/Images/BlackBeadChoice.png","","","","","","","","","","","","","","","","","","","","","","","",""
"image-keyboard-response","19","2053987","0.0-4.0-4.0-1.0-2.1","5c1bc0ab84ff14000184c2ce","63690f60c96a0a9a64b48fbc","63692122e86f66446f93f897","null","","null","","","","","","","","./tasks/HMM-beads/Images/BlackBeadChoiceCorrect.png","","","","","","","","","","","","","","","","","","","","","","","",""
"image-keyboard-response","20","2054716","0.0-4.0-4.0-1.0-0.2","5c1bc0ab84ff14000184c2ce","63690f60c96a0a9a64b48fbc","63692122e86f66446f93f897","727","","f","","","","","","","","./tasks/HMM-beads/Images/NewTrialBC.png","practice","2","1","2","1","1","false","","","","","","","","","","","","","","","","",""
"image-keyboard-response","21","2055021","0.0-4.0-4.0-1.0-1.2","5c1bc0ab84ff14000184c2ce","63690f60c96a0a9a64b48fbc","63692122e86f66446f93f897","null","","null","","","","","","","","./tasks/HMM-beads/Images/BlackBeadChoice.png","","","","","","","","","","","","","","","","","","","","","","","",""
"image-keyboard-response","22","2055536","0.0-4.0-4.0-1.0-2.2","5c1bc0ab84ff14000184c2ce","63690f60c96a0a9a64b48fbc","63692122e86f66446f93f897","null","","null","","","","","","","","./tasks/HMM-beads/Images/BlackBeadChoiceWrong.png","","","","","","","","","","","","","","","","","","","","","","","",""
"image-keyboard-response","23","2056266","0.0-4.0-4.0-1.0-0.3","5c1bc0ab84ff14000184c2ce","63690f60c96a0a9a64b48fbc","63692122e86f66446f93f897","728","","f","","","","","","","","./tasks/HMM-beads/Images/NewTrialWC.png","practice","3","1","1","2","1","true","","","","","","","","","","","","","","","","",""
"image-keyboard-response","24","2056581","0.0-4.0-4.0-1.0-1.3","5c1bc0ab84ff14000184c2ce","63690f60c96a0a9a64b48fbc","63692122e86f66446f93f897","null","","null","","","","","","","","./tasks/HMM-beads/Images/BlackBeadChoice.png","","","","","","","","","","","","","","","","","","","","","","","",""
"image-keyboard-response","25","2057093","0.0-4.0-4.0-1.0-2.3","5c1bc0ab84ff14000184c2ce","63690f60c96a0a9a64b48fbc","63692122e86f66446f93f897","null","","null","","","","","","","","./tasks/HMM-beads/Images/BlackBeadChoiceCorrect.png","","","","","","","","","","","","","","","","","","","","","","","",""
"image-keyboard-response","26","2057585","0.0-4.0-4.0-1.0-0.4","5c1bc0ab84ff14000184c2ce","63690f60c96a0a9a64b48fbc","63692122e86f66446f93f897","491","","f","","","","","","","","./tasks/HMM-beads/Images/NewTrialBC.png","practice","4","1","2","1","1","false","","","","","","","","","","","","","","","","",""
"image-keyboard-response","27","2057886","0.0-4.0-4.0-1.0-1.4","5c1bc0ab84ff14000184c2ce","63690f60c96a0a9a64b48fbc","63692122e86f66446f93f897","null","","null","","","","","","","","./tasks/HMM-beads/Images/BlackBeadChoice.png","","","","","","","","","","","","","","","","","","","","","","","",""
"image-keyboard-response","28","2058400","0.0-4.0-4.0-1.0-2.4","5c1bc0ab84ff14000184c2ce","63690f60c96a0a9a64b48fbc","63692122e86f66446f93f897","null","","null","","","","","","","","./tasks/HMM-beads/Images/BlackBeadChoiceWrong.png","","","","","","","","","","","","","","","","","","","","","","","",""
"image-keyboard-response","29","2058906","0.0-4.0-4.0-1.0-0.5","5c1bc0ab84ff14000184c2ce","63690f60c96a0a9a64b48fbc","63692122e86f66446f93f897","505","","f","","","","","","","","./tasks/HMM-beads/Images/NewTrialWC.png","practice","5","1","1","2","1","true","","","","","","","","","","","","","","","","",""
"image-keyboard-response","30","2059221","0.0-4.0-4.0-1.0-1.5","5c1bc0ab84ff14000184c2ce","63690f60c96a0a9a64b48fbc","63692122e86f66446f93f897","null","","null","","","","","","","","./tasks/HMM-beads/Images/BlackBeadChoice.png","","","","","","","","","","","","","","","","","","","","","","","",""
"image-keyboard-response","31","2059735","0.0-4.0-4.0-1.0-2.5","5c1bc0ab84ff14000184c2ce","63690f60c96a0a9a64b48fbc","63692122e86f66446f93f897","null","","null","","","","","","","","./tasks/HMM-beads/Images/BlackBeadChoiceCorrect.png","","","","","","","","","","","","","","","","","","","","","","","",""
"image-keyboard-response","32","2060176","0.0-4.0-4.0-1.0-0.6","5c1bc0ab84ff14000184c2ce","63690f60c96a0a9a64b48fbc","63692122e86f66446f93f897","440","","f","","","","","","","","./tasks/HMM-beads/Images/NewTrialBC.png","practice","6","1","2","1","1","false","","","","","","","","","","","","","","","","",""
"image-keyboard-response","33","2060481","0.0-4.0-4.0-1.0-1.6","5c1bc0ab84ff14000184c2ce","63690f60c96a0a9a64b48fbc","63692122e86f66446f93f897","null","","null","","","","","","","","./tasks/HMM-beads/Images/BlackBeadChoice.png","","","","","","","","","","","","","","","","","","","","","","","",""
"image-keyboard-response","34","2060990","0.0-4.0-4.0-1.0-2.6","5c1bc0ab84ff14000184c2ce","63690f60c96a0a9a64b48fbc","63692122e86f66446f93f897","null","","null","","","","","","","","./tasks/HMM-beads/Images/BlackBeadChoiceWrong.png","","","","","","","","","","","","","","","","","","","","","","","",""
"image-keyboard-response","35","2061446","0.0-4.0-4.0-1.0-0.7","5c1bc0ab84ff14000184c2ce","63690f60c96a0a9a64b48fbc","63692122e86f66446f93f897","455","","f","","","","","","","","./tasks/HMM-beads/Images/NewTrialWC.png","practice","7","1","1","2","1","true","","","","","","","","","","","","","","","","",""
"image-keyboard-response","36","2061752","0.0-4.0-4.0-1.0-1.7","5c1bc0ab84ff14000184c2ce","63690f60c96a0a9a64b48fbc","63692122e86f66446f93f897","null","","null","","","","","","","","./tasks/HMM-beads/Images/BlackBeadChoice.png","","","","","","","","","","","","","","","","","","","","","","","",""
"image-keyboard-response","37","2062262","0.0-4.0-4.0-1.0-2.7","5c1bc0ab84ff14000184c2ce","63690f60c96a0a9a64b48fbc","63692122e86f66446f93f897","null","","null","","","","","","","","./tasks/HMM-beads/Images/BlackBeadChoiceCorrect.png","","","","","","","","","","","","","","","","","","","","","","","",""
"image-keyboard-response","38","2062866","0.0-4.0-4.0-1.0-0.8","5c1bc0ab84ff14000184c2ce","63690f60c96a0a9a64b48fbc","63692122e86f66446f93f897","602","","f","","","","","","","","./tasks/HMM-beads/Images/NewTrialBC.png","practice","8","1","1","1","1","true","","","","","","","","","","","","","","","","",""
"image-keyboard-response","39","2063173","0.0-4.0-4.0-1.0-1.8","5c1bc0ab84ff14000184c2ce","63690f60c96a0a9a64b48fbc","63692122e86f66446f93f897","null","","null","","","","","","","","./tasks/HMM-beads/Images/BlackBeadChoice.png","","","","","","","","","","","","","","","","","","","","","","","",""
"image-keyboard-response","40","2063692","0.0-4.0-4.0-1.0-2.8","5c1bc0ab84ff14000184c2ce","63690f60c96a0a9a64b48fbc","63692122e86f66446f93f897","null","","null","","","","","","","","./tasks/HMM-beads/Images/BlackBeadChoiceCorrect.png","","","","","","","","","","","","","","","","","","","","","","","",""
"image-keyboard-response","41","2064096","0.0-4.0-4.0-1.0-0.9","5c1bc0ab84ff14000184c2ce","63690f60c96a0a9a64b48fbc","63692122e86f66446f93f897","403","","f","","","","","","","","./tasks/HMM-beads/Images/NewTrialBC.png","practice","9","2","2","1","1","false","","","","","","","","","","","","","","","","",""
"image-keyboard-response","42","2064400","0.0-4.0-4.0-1.0-1.9","5c1bc0ab84ff14000184c2ce","63690f60c96a0a9a64b48fbc","63692122e86f66446f93f897","null","","null","","","","","","","","./tasks/HMM-beads/Images/BlackBeadChoice.png","","","","","","","","","","","","","","","","","","","","","","","",""
"image-keyboard-response","43","2064914","0.0-4.0-4.0-1.0-2.9","5c1bc0ab84ff14000184c2ce","63690f60c96a0a9a64b48fbc","63692122e86f66446f93f897","null","","null","","","","","","","","./tasks/HMM-beads/Images/BlackBeadChoiceWrong.png","","","","","","","","","","","","","","","","","","","","","","","",""
"image-keyboard-response","44","2065416","0.0-4.0-4.0-1.0-0.10","5c1bc0ab84ff14000184c2ce","63690f60c96a0a9a64b48fbc","63692122e86f66446f93f897","501","","f","","","","","","","","./tasks/HMM-beads/Images/NewTrialWC.png","practice","10","2","1","2","1","true","","","","","","","","","","","","","","","","",""
"image-keyboard-response","45","2065725","0.0-4.0-4.0-1.0-1.10","5c1bc0ab84ff14000184c2ce","63690f60c96a0a9a64b48fbc","63692122e86f66446f93f897","null","","null","","","","","","","","./tasks/HMM-beads/Images/BlackBeadChoice.png","","","","","","","","","","","","","","","","","","","","","","","",""
"image-keyboard-response","46","2066234","0.0-4.0-4.0-1.0-2.10","5c1bc0ab84ff14000184c2ce","63690f60c96a0a9a64b48fbc","63692122e86f66446f93f897","null","","null","","","","","","","","./tasks/HMM-beads/Images/BlackBeadChoiceCorrect.png","","","","","","","","","","","","","","","","","","","","","","","",""
"image-keyboard-response","47","2067485","0.0-4.0-4.0-1.0-0.11","5c1bc0ab84ff14000184c2ce","63690f60c96a0a9a64b48fbc","63692122e86f66446f93f897","1251","","j","","","","","","","","./tasks/HMM-beads/Images/NewTrialBC.png","practice","11","2","2","1","2","true","","","","","","","","","","","","","","","","",""
"image-keyboard-response","48","2067802","0.0-4.0-4.0-1.0-1.11","5c1bc0ab84ff14000184c2ce","63690f60c96a0a9a64b48fbc","63692122e86f66446f93f897","null","","null","","","","","","","","./tasks/HMM-beads/Images/WhiteBeadChoice.png","","","","","","","","","","","","","","","","","","","","","","","",""
"image-keyboard-response","49","2068319","0.0-4.0-4.0-1.0-2.11","5c1bc0ab84ff14000184c2ce","63690f60c96a0a9a64b48fbc","63692122e86f66446f93f897","null","","null","","","","","","","","./tasks/HMM-beads/Images/WhiteBeadChoiceCorrect.png","","","","","","","","","","","","","","","","","","","","","","","",""
"image-keyboard-response","50","2069526","0.0-4.0-4.0-1.0-0.12","5c1bc0ab84ff14000184c2ce","63690f60c96a0a9a64b48fbc","63692122e86f66446f93f897","1206","","f","","","","","","","","./tasks/HMM-beads/Images/NewTrialWC.png","practice","12","2","2","2","1","false","","","","","","","","","","","","","","","","",""
"image-keyboard-response","51","2069839","0.0-4.0-4.0-1.0-1.12","5c1bc0ab84ff14000184c2ce","63690f60c96a0a9a64b48fbc","63692122e86f66446f93f897","null","","null","","","","","","","","./tasks/HMM-beads/Images/BlackBeadChoice.png","","","","","","","","","","","","","","","","","","","","","","","",""
"image-keyboard-response","52","2070354","0.0-4.0-4.0-1.0-2.12","5c1bc0ab84ff14000184c2ce","63690f60c96a0a9a64b48fbc","63692122e86f66446f93f897","null","","null","","","","","","","","./tasks/HMM-beads/Images/BlackBeadChoiceWrong.png","","","","","","","","","","","","","","","","","","","","","","","",""
"image-keyboard-response","53","2071246","0.0-4.0-4.0-1.0-0.13","5c1bc0ab84ff14000184c2ce","63690f60c96a0a9a64b48fbc","63692122e86f66446f93f897","891","","f","","","","","","","","./tasks/HMM-beads/Images/NewTrialWC.png","practice","13","2","2","2","1","false","","","","","","","","","","","","","","","","",""
"image-keyboard-response","54","2071554","0.0-4.0-4.0-1.0-1.13","5c1bc0ab84ff14000184c2ce","63690f60c96a0a9a64b48fbc","63692122e86f66446f93f897","null","","null","","","","","","","","./tasks/HMM-beads/Images/BlackBeadChoice.png","","","","","","","","","","","","","","","","","","","","","","","",""
"image-keyboard-response","55","2072068","0.0-4.0-4.0-1.0-2.13","5c1bc0ab84ff14000184c2ce","63690f60c96a0a9a64b48fbc","63692122e86f66446f93f897","null","","null","","","","","","","","./tasks/HMM-beads/Images/BlackBeadChoiceWrong.png","","","","","","","","","","","","","","","","","","","","","","","",""
"image-keyboard-response","56","2072456","0.0-4.0-4.0-1.0-0.14","5c1bc0ab84ff14000184c2ce","63690f60c96a0a9a64b48fbc","63692122e86f66446f93f897","387","","j","","","","","","","","./tasks/HMM-beads/Images/NewTrialWC.png","practice","14","2","2","2","2","true","","","","","","","","","","","","","","","","",""
"image-keyboard-response","57","2072766","0.0-4.0-4.0-1.0-1.14","5c1bc0ab84ff14000184c2ce","63690f60c96a0a9a64b48fbc","63692122e86f66446f93f897","null","","null","","","","","","","","./tasks/HMM-beads/Images/WhiteBeadChoice.png","","","","","","","","","","","","","","","","","","","","","","","",""
"image-keyboard-response","58","2073281","0.0-4.0-4.0-1.0-2.14","5c1bc0ab84ff14000184c2ce","63690f60c96a0a9a64b48fbc","63692122e86f66446f93f897","null","","null","","","","","","","","./tasks/HMM-beads/Images/WhiteBeadChoiceCorrect.png","","","","","","","","","","","","","","","","","","","","","","","",""
"image-keyboard-response","59","2073886","0.0-4.0-4.0-1.0-0.15","5c1bc0ab84ff14000184c2ce","63690f60c96a0a9a64b48fbc","63692122e86f66446f93f897","604","","j","","","","","","","","./tasks/HMM-beads/Images/NewTrialWC.png","practice","15","1","1","2","2","false","","","","","","","","","","","","","","","","",""
"image-keyboard-response","60","2074198","0.0-4.0-4.0-1.0-1.15","5c1bc0ab84ff14000184c2ce","63690f60c96a0a9a64b48fbc","63692122e86f66446f93f897","null","","null","","","","","","","","./tasks/HMM-beads/Images/WhiteBeadChoice.png","","","","","","","","","","","","","","","","","","","","","","","",""
"image-keyboard-response","61","2074709","0.0-4.0-4.0-1.0-2.15","5c1bc0ab84ff14000184c2ce","63690f60c96a0a9a64b48fbc","63692122e86f66446f93f897","null","","null","","","","","","","","./tasks/HMM-beads/Images/WhiteBeadChoiceWrong.png","","","","","","","","","","","","","","","","","","","","","","","",""
"image-keyboard-response","62","2076446","0.0-4.0-4.0-1.0-0.16","5c1bc0ab84ff14000184c2ce","63690f60c96a0a9a64b48fbc","63692122e86f66446f93f897","1736","","f","","","","","","","","./tasks/HMM-beads/Images/NewTrialBC.png","practice","16","1","2","1","1","false","","","","","","","","","","","","","","","","",""
"image-keyboard-response","63","2076759","0.0-4.0-4.0-1.0-1.16","5c1bc0ab84ff14000184c2ce","63690f60c96a0a9a64b48fbc","63692122e86f66446f93f897","null","","null","","","","","","","","./tasks/HMM-beads/Images/BlackBeadChoice.png","","","","","","","","","","","","","","","","","","","","","","","",""
"image-keyboard-response","64","2077273","0.0-4.0-4.0-1.0-2.16","5c1bc0ab84ff14000184c2ce","63690f60c96a0a9a64b48fbc","63692122e86f66446f93f897","null","","null","","","","","","","","./tasks/HMM-beads/Images/BlackBeadChoiceWrong.png","","","","","","","","","","","","","","","","","","","","","","","",""
"image-keyboard-response","65","2077935","0.0-4.0-4.0-1.0-0.17","5c1bc0ab84ff14000184c2ce","63690f60c96a0a9a64b48fbc","63692122e86f66446f93f897","661","","f","","","","","","","","./tasks/HMM-beads/Images/NewTrialWC.png","practice","17","1","1","2","1","true","","","","","","","","","","","","","","","","",""
"image-keyboard-response","66","2078243","0.0-4.0-4.0-1.0-1.17","5c1bc0ab84ff14000184c2ce","63690f60c96a0a9a64b48fbc","63692122e86f66446f93f897","null","","null","","","","","","","","./tasks/HMM-beads/Images/BlackBeadChoice.png","","","","","","","","","","","","","","","","","","","","","","","",""
"image-keyboard-response","67","2078754","0.0-4.0-4.0-1.0-2.17","5c1bc0ab84ff14000184c2ce","63690f60c96a0a9a64b48fbc","63692122e86f66446f93f897","null","","null","","","","","","","","./tasks/HMM-beads/Images/BlackBeadChoiceCorrect.png","","","","","","","","","","","","","","","","","","","","","","","",""
"image-keyboard-response","68","2079226","0.0-4.0-4.0-1.0-0.18","5c1bc0ab84ff14000184c2ce","63690f60c96a0a9a64b48fbc","63692122e86f66446f93f897","471","","f","","","","","","","","./tasks/HMM-beads/Images/NewTrialBC.png","practice","18","1","1","1","1","true","","","","","","","","","","","","","","","","",""
"image-keyboard-response","69","2079531","0.0-4.0-4.0-1.0-1.18","5c1bc0ab84ff14000184c2ce","63690f60c96a0a9a64b48fbc","63692122e86f66446f93f897","null","","null","","","","","","","","./tasks/HMM-beads/Images/BlackBeadChoice.png","","","","","","","","","","","","","","","","","","","","","","","",""
"image-keyboard-response","70","2080046","0.0-4.0-4.0-1.0-2.18","5c1bc0ab84ff14000184c2ce","63690f60c96a0a9a64b48fbc","63692122e86f66446f93f897","null","","null","","","","","","","","./tasks/HMM-beads/Images/BlackBeadChoiceCorrect.png","","","","","","","","","","","","","","","","","","","","","","","",""
"image-keyboard-response","71","2080505","0.0-4.0-4.0-1.0-0.19","5c1bc0ab84ff14000184c2ce","63690f60c96a0a9a64b48fbc","63692122e86f66446f93f897","459","","f","","","","","","","","./tasks/HMM-beads/Images/NewTrialBC.png","practice","19","1","1","1","1","true","","","","","","","","","","","","","","","","",""
"image-keyboard-response","72","2080808","0.0-4.0-4.0-1.0-1.19","5c1bc0ab84ff14000184c2ce","63690f60c96a0a9a64b48fbc","63692122e86f66446f93f897","null","","null","","","","","","","","./tasks/HMM-beads/Images/BlackBeadChoice.png","","","","","","","","","","","","","","","","","","","","","","","",""
"image-keyboard-response","73","2081322","0.0-4.0-4.0-1.0-2.19","5c1bc0ab84ff14000184c2ce","63690f60c96a0a9a64b48fbc","63692122e86f66446f93f897","null","","null","","","","","","","","./tasks/HMM-beads/Images/BlackBeadChoiceCorrect.png","","","","","","","","","","","","","","","","","","","","","","","",""
"html-keyboard-response","74","2085896","0.0-4.0-4.0-2.0","5c1bc0ab84ff14000184c2ce","63690f60c96a0a9a64b48fbc","63692122e86f66446f93f897","4573",""," ","","","","","","","","","","","","","","","","","","","","","","","","","","","","","","","",""
"instructions","75","2147181","0.0-4.0-5.0","5c1bc0ab84ff14000184c2ce","63690f60c96a0a9a64b48fbc","63692122e86f66446f93f897","61284","","","","[{""page_index"":0,""viewing_time"":58524},{""page_index"":1,""viewing_time"":2760}]","","","","","","","","","","","","","","","","","","","","","","","","","","","","","",""
"html-keyboard-response","76","2154256","0.0-4.0-6.0-0.0","5c1bc0ab84ff14000184c2ce","63690f60c96a0a9a64b48fbc","63692122e86f66446f93f897","7075",""," ","","","","","","","","<div align=center>In this block, there will be a <b>99%</b> chance that the jar on the next trial will be different from the jar on the current trial.<br><br></div>","","","","","","","","","","","","","","","","","","","","","","","",""
"image-keyboard-response","77","2155956","0.0-4.0-6.0-1.0-0.0","5c1bc0ab84ff14000184c2ce","63690f60c96a0a9a64b48fbc","63692122e86f66446f93f897","1700","","f","","","","","","","","./tasks/HMM-beads/Images/NoChoice.png","highH","0","1","1","0","1","true","","","","","","","","","","","","","","","","",""
"image-keyboard-response","78","2156270","0.0-4.0-6.0-1.0-1.0","5c1bc0ab84ff14000184c2ce","63690f60c96a0a9a64b48fbc","63692122e86f66446f93f897","null","","null","","","","","","","","./tasks/HMM-beads/Images/BlackBeadChoice.png","","","","","","","","","","","","","","","","","","","","","","","",""
"image-keyboard-response","79","2156787","0.0-4.0-6.0-1.0-2.0","5c1bc0ab84ff14000184c2ce","63690f60c96a0a9a64b48fbc","63692122e86f66446f93f897","null","","null","","","","","","","","./tasks/HMM-beads/Images/BlackBeadChoiceCorrect.png","","","","","","","","","","","","","","","","","","","","","","","",""
"image-keyboard-response","80","2157516","0.0-4.0-6.0-1.0-0.1","5c1bc0ab84ff14000184c2ce","63690f60c96a0a9a64b48fbc","63692122e86f66446f93f897","729","","f","","","","","","","","./tasks/HMM-beads/Images/NewTrialBC.png","highH","1","2","2","1","1","false","","","","","","","","","","","","","","","","",""
"image-keyboard-response","81","2157831","0.0-4.0-6.0-1.0-1.1","5c1bc0ab84ff14000184c2ce","63690f60c96a0a9a64b48fbc","63692122e86f66446f93f897","null","","null","","","","","","","","./tasks/HMM-beads/Images/BlackBeadChoice.png","","","","","","","","","","","","","","","","","","","","","","","",""
"image-keyboard-response","82","2158343","0.0-4.0-6.0-1.0-2.1","5c1bc0ab84ff14000184c2ce","63690f60c96a0a9a64b48fbc","63692122e86f66446f93f897","null","","null","","","","","","","","./tasks/HMM-beads/Images/BlackBeadChoiceWrong.png","","","","","","","","","","","","","","","","","","","","","","","",""
"image-keyboard-response","83","2158856","0.0-4.0-6.0-1.0-0.2","5c1bc0ab84ff14000184c2ce","63690f60c96a0a9a64b48fbc","63692122e86f66446f93f897","512","","f","","","","","","","","./tasks/HMM-beads/Images/NewTrialWC.png","highH","2","1","1","2","1","true","","","","","","","","","","","","","","","","",""
"image-keyboard-response","84","2159172","0.0-4.0-6.0-1.0-1.2","5c1bc0ab84ff14000184c2ce","63690f60c96a0a9a64b48fbc","63692122e86f66446f93f897","null","","null","","","","","","","","./tasks/HMM-beads/Images/BlackBeadChoice.png","","","","","","","","","","","","","","","","","","","","","","","",""
"image-keyboard-response","85","2159680","0.0-4.0-6.0-1.0-2.2","5c1bc0ab84ff14000184c2ce","63690f60c96a0a9a64b48fbc","63692122e86f66446f93f897","null","","null","","","","","","","","./tasks/HMM-beads/Images/BlackBeadChoiceCorrect.png","","","","","","","","","","","","","","","","","","","","","","","",""
"image-keyboard-response","86","2160886","0.0-4.0-6.0-1.0-0.3","5c1bc0ab84ff14000184c2ce","63690f60c96a0a9a64b48fbc","63692122e86f66446f93f897","1206","","j","","","","","","","","./tasks/HMM-beads/Images/NewTrialBC.png","highH","3","2","2","1","2","true","","","","","","","","","","","","","","","","",""
"image-keyboard-response","87","2161201","0.0-4.0-6.0-1.0-1.3","5c1bc0ab84ff14000184c2ce","63690f60c96a0a9a64b48fbc","63692122e86f66446f93f897","null","","null","","","","","","","","./tasks/HMM-beads/Images/WhiteBeadChoice.png","","","","","","","","","","","","","","","","","","","","","","","",""
"image-keyboard-response","88","2161717","0.0-4.0-6.0-1.0-2.3","5c1bc0ab84ff14000184c2ce","63690f60c96a0a9a64b48fbc","63692122e86f66446f93f897","null","","null","","","","","","","","./tasks/HMM-beads/Images/WhiteBeadChoiceCorrect.png","","","","","","","","","","","","","","","","","","","","","","","",""
"image-keyboard-response","89","2162576","0.0-4.0-6.0-1.0-0.4","5c1bc0ab84ff14000184c2ce","63690f60c96a0a9a64b48fbc","63692122e86f66446f93f897","858","","f","","","","","","","","./tasks/HMM-beads/Images/NewTrialWC.png","highH","4","1","1","2","1","true","","","","","","","","","","","","","","","","",""
"image-keyboard-response","90","2162878","0.0-4.0-6.0-1.0-1.4","5c1bc0ab84ff14000184c2ce","63690f60c96a0a9a64b48fbc","63692122e86f66446f93f897","null","","null","","","","","","","","./tasks/HMM-beads/Images/BlackBeadChoice.png","","","","","","","","","","","","","","","","","","","","","","","",""
"image-keyboard-response","91","2163390","0.0-4.0-6.0-1.0-2.4","5c1bc0ab84ff14000184c2ce","63690f60c96a0a9a64b48fbc","63692122e86f66446f93f897","null","","null","","","","","","","","./tasks/HMM-beads/Images/BlackBeadChoiceCorrect.png","","","","","","","","","","","","","","","","","","","","","","","",""
"image-keyboard-response","92","2164206","0.0-4.0-6.0-1.0-0.5","5c1bc0ab84ff14000184c2ce","63690f60c96a0a9a64b48fbc","63692122e86f66446f93f897","816","","f","","","","","","","","./tasks/HMM-beads/Images/NewTrialBC.png","highH","5","2","2","1","1","false","","","","","","","","","","","","","","","","",""
"image-keyboard-response","93","2164512","0.0-4.0-6.0-1.0-1.5","5c1bc0ab84ff14000184c2ce","63690f60c96a0a9a64b48fbc","63692122e86f66446f93f897","null","","null","","","","","","","","./tasks/HMM-beads/Images/BlackBeadChoice.png","","","","","","","","","","","","","","","","","","","","","","","",""
"image-keyboard-response","94","2165020","0.0-4.0-6.0-1.0-2.5","5c1bc0ab84ff14000184c2ce","63690f60c96a0a9a64b48fbc","63692122e86f66446f93f897","null","","null","","","","","","","","./tasks/HMM-beads/Images/BlackBeadChoiceWrong.png","","","","","","","","","","","","","","","","","","","","","","","",""
"image-keyboard-response","95","2165496","0.0-4.0-6.0-1.0-0.6","5c1bc0ab84ff14000184c2ce","63690f60c96a0a9a64b48fbc","63692122e86f66446f93f897","475","","f","","","","","","","","./tasks/HMM-beads/Images/NewTrialWC.png","highH","6","1","1","2","1","true","","","","","","","","","","","","","","","","",""
"image-keyboard-response","96","2165810","0.0-4.0-6.0-1.0-1.6","5c1bc0ab84ff14000184c2ce","63690f60c96a0a9a64b48fbc","63692122e86f66446f93f897","null","","null","","","","","","","","./tasks/HMM-beads/Images/BlackBeadChoice.png","","","","","","","","","","","","","","","","","","","","","","","",""
"image-keyboard-response","97","2166322","0.0-4.0-6.0-1.0-2.6","5c1bc0ab84ff14000184c2ce","63690f60c96a0a9a64b48fbc","63692122e86f66446f93f897","null","","null","","","","","","","","./tasks/HMM-beads/Images/BlackBeadChoiceCorrect.png","","","","","","","","","","","","","","","","","","","","","","","",""
"image-keyboard-response","98","2167117","0.0-4.0-6.0-1.0-0.7","5c1bc0ab84ff14000184c2ce","63690f60c96a0a9a64b48fbc","63692122e86f66446f93f897","794","","j","","","","","","","","./tasks/HMM-beads/Images/NewTrialBC.png","highH","7","2","1","1","2","false","","","","","","","","","","","","","","","","",""
"image-keyboard-response","99","2167421","0.0-4.0-6.0-1.0-1.7","5c1bc0ab84ff14000184c2ce","63690f60c96a0a9a64b48fbc","63692122e86f66446f93f897","null","","null","","","","","","","","./tasks/HMM-beads/Images/WhiteBeadChoice.png","","","","","","","","","","","","","","","","","","","","","","","",""
"image-keyboard-response","100","2167936","0.0-4.0-6.0-1.0-2.7","5c1bc0ab84ff14000184c2ce","63690f60c96a0a9a64b48fbc","63692122e86f66446f93f897","null","","null","","","","","","","","./tasks/HMM-beads/Images/WhiteBeadChoiceWrong.png","","","","","","","","","","","","","","","","","","","","","","","",""
"image-keyboard-response","101","2168786","0.0-4.0-6.0-1.0-0.8","5c1bc0ab84ff14000184c2ce","63690f60c96a0a9a64b48fbc","63692122e86f66446f93f897","850","","f","","","","","","","","./tasks/HMM-beads/Images/NewTrialBC.png","highH","8","1","1","1","1","true","","","","","","","","","","","","","","","","",""
"image-keyboard-response","102","2169102","0.0-4.0-6.0-1.0-1.8","5c1bc0ab84ff14000184c2ce","63690f60c96a0a9a64b48fbc","63692122e86f66446f93f897","null","","null","","","","","","","","./tasks/HMM-beads/Images/BlackBeadChoice.png","","","","","","","","","","","","","","","","","","","","","","","",""
"image-keyboard-response","103","2169615","0.0-4.0-6.0-1.0-2.8","5c1bc0ab84ff14000184c2ce","63690f60c96a0a9a64b48fbc","63692122e86f66446f93f897","null","","null","","","","","","","","./tasks/HMM-beads/Images/BlackBeadChoiceCorrect.png","","","","","","","","","","","","","","","","","","","","","","","",""
"image-keyboard-response","104","2170126","0.0-4.0-6.0-1.0-0.9","5c1bc0ab84ff14000184c2ce","63690f60c96a0a9a64b48fbc","63692122e86f66446f93f897","511","","j","","","","","","","","./tasks/HMM-beads/Images/NewTrialBC.png","highH","9","2","2","1","2","true","","","","","","","","","","","","","","","","",""
"image-keyboard-response","105","2170427","0.0-4.0-6.0-1.0-1.9","5c1bc0ab84ff14000184c2ce","63690f60c96a0a9a64b48fbc","63692122e86f66446f93f897","null","","null","","","","","","","","./tasks/HMM-beads/Images/WhiteBeadChoice.png","","","","","","","","","","","","","","","","","","","","","","","",""
"image-keyboard-response","106","2170936","0.0-4.0-6.0-1.0-2.9","5c1bc0ab84ff14000184c2ce","63690f60c96a0a9a64b48fbc","63692122e86f66446f93f897","null","","null","","","","","","","","./tasks/HMM-beads/Images/WhiteBeadChoiceCorrect.png","","","","","","","","","","","","","","","","","","","","","","","",""
"image-keyboard-response","107","2171656","0.0-4.0-6.0-1.0-0.10","5c1bc0ab84ff14000184c2ce","63690f60c96a0a9a64b48fbc","63692122e86f66446f93f897","719","","f","","","","","","","","./tasks/HMM-beads/Images/NewTrialWC.png","highH","10","1","1","2","1","true","","","","","","","","","","","","","","","","",""
"image-keyboard-response","108","2171966","0.0-4.0-6.0-1.0-1.10","5c1bc0ab84ff14000184c2ce","63690f60c96a0a9a64b48fbc","63692122e86f66446f93f897","null","","null","","","","","","","","./tasks/HMM-beads/Images/BlackBeadChoice.png","","","","","","","","","","","","","","","","","","","","","","","",""
"image-keyboard-response","109","2172480","0.0-4.0-6.0-1.0-2.10","5c1bc0ab84ff14000184c2ce","63690f60c96a0a9a64b48fbc","63692122e86f66446f93f897","null","","null","","","","","","","","./tasks/HMM-beads/Images/BlackBeadChoiceCorrect.png","","","","","","","","","","","","","","","","","","","","","","","",""
"image-keyboard-response","110","2172836","0.0-4.0-6.0-1.0-0.11","5c1bc0ab84ff14000184c2ce","63690f60c96a0a9a64b48fbc","63692122e86f66446f93f897","355","","f","","","","","","","","./tasks/HMM-beads/Images/NewTrialBC.png","highH","11","2","2","1","1","false","","","","","","","","","","","","","","","","",""
"image-keyboard-response","111","2173150","0.0-4.0-6.0-1.0-1.11","5c1bc0ab84ff14000184c2ce","63690f60c96a0a9a64b48fbc","63692122e86f66446f93f897","null","","null","","","","","","","","./tasks/HMM-beads/Images/BlackBeadChoice.png","","","","","","","","","","","","","","","","","","","","","","","",""
"image-keyboard-response","112","2173653","0.0-4.0-6.0-1.0-2.11","5c1bc0ab84ff14000184c2ce","63690f60c96a0a9a64b48fbc","63692122e86f66446f93f897","null","","null","","","","","","","","./tasks/HMM-beads/Images/BlackBeadChoiceWrong.png","","","","","","","","","","","","","","","","","","","","","","","",""
"image-keyboard-response","113","2174056","0.0-4.0-6.0-1.0-0.12","5c1bc0ab84ff14000184c2ce","63690f60c96a0a9a64b48fbc","63692122e86f66446f93f897","403","","f","","","","","","","","./tasks/HMM-beads/Images/NewTrialWC.png","highH","12","1","1","2","1","true","","","","","","","","","","","","","","","","",""
"image-keyboard-response","114","2174365","0.0-4.0-6.0-1.0-1.12","5c1bc0ab84ff14000184c2ce","63690f60c96a0a9a64b48fbc","63692122e86f66446f93f897","null","","null","","","","","","","","./tasks/HMM-beads/Images/BlackBeadChoice.png","","","","","","","","","","","","","","","","","","","","","","","",""
"image-keyboard-response","115","2174881","0.0-4.0-6.0-1.0-2.12","5c1bc0ab84ff14000184c2ce","63690f60c96a0a9a64b48fbc","63692122e86f66446f93f897","null","","null","","","","","","","","./tasks/HMM-beads/Images/BlackBeadChoiceCorrect.png","","","","","","","","","","","","","","","","","","","","","","","",""
"image-keyboard-response","116","2175506","0.0-4.0-6.0-1.0-0.13","5c1bc0ab84ff14000184c2ce","63690f60c96a0a9a64b48fbc","63692122e86f66446f93f897","625","","f","","","","","","","","./tasks/HMM-beads/Images/NewTrialBC.png","highH","13","2","1","1","1","true","","","","","","","","","","","","","","","","",""
"image-keyboard-response","117","2175810","0.0-4.0-6.0-1.0-1.13","5c1bc0ab84ff14000184c2ce","63690f60c96a0a9a64b48fbc","63692122e86f66446f93f897","null","","null","","","","","","","","./tasks/HMM-beads/Images/BlackBeadChoice.png","","","","","","","","","","","","","","","","","","","","","","","",""
"image-keyboard-response","118","2176326","0.0-4.0-6.0-1.0-2.13","5c1bc0ab84ff14000184c2ce","63690f60c96a0a9a64b48fbc","63692122e86f66446f93f897","null","","null","","","","","","","","./tasks/HMM-beads/Images/BlackBeadChoiceCorrect.png","","","","","","","","","","","","","","","","","","","","","","","",""
"image-keyboard-response","119","2176896","0.0-4.0-6.0-1.0-0.14","5c1bc0ab84ff14000184c2ce","63690f60c96a0a9a64b48fbc","63692122e86f66446f93f897","570","","j","","","","","","","","./tasks/HMM-beads/Images/NewTrialBC.png","highH","14","1","2","1","2","true","","","","","","","","","","","","","","","","",""
"image-keyboard-response","120","2177197","0.0-4.0-6.0-1.0-1.14","5c1bc0ab84ff14000184c2ce","63690f60c96a0a9a64b48fbc","63692122e86f66446f93f897","null","","null","","","","","","","","./tasks/HMM-beads/Images/WhiteBeadChoice.png","","","","","","","","","","","","","","","","","","","","","","","",""
"image-keyboard-response","121","2177710","0.0-4.0-6.0-1.0-2.14","5c1bc0ab84ff14000184c2ce","63690f60c96a0a9a64b48fbc","63692122e86f66446f93f897","null","","null","","","","","","","","./tasks/HMM-beads/Images/WhiteBeadChoiceCorrect.png","","","","","","","","","","","","","","","","","","","","","","","",""
"image-keyboard-response","122","2178866","0.0-4.0-6.0-1.0-0.15","5c1bc0ab84ff14000184c2ce","63690f60c96a0a9a64b48fbc","63692122e86f66446f93f897","1156","","f","","","","","","","","./tasks/HMM-beads/Images/NewTrialWC.png","highH","15","2","2","2","1","false","","","","","","","","","","","","","","","","",""
"image-keyboard-response","123","2179176","0.0-4.0-6.0-1.0-1.15","5c1bc0ab84ff14000184c2ce","63690f60c96a0a9a64b48fbc","63692122e86f66446f93f897","null","","null","","","","","","","","./tasks/HMM-beads/Images/BlackBeadChoice.png","","","","","","","","","","","","","","","","","","","","","","","",""
"image-keyboard-response","124","2179687","0.0-4.0-6.0-1.0-2.15","5c1bc0ab84ff14000184c2ce","63690f60c96a0a9a64b48fbc","63692122e86f66446f93f897","null","","null","","","","","","","","./tasks/HMM-beads/Images/BlackBeadChoiceWrong.png","","","","","","","","","","","","","","","","","","","","","","","",""
"image-keyboard-response","125","2180156","0.0-4.0-6.0-1.0-0.16","5c1bc0ab84ff14000184c2ce","63690f60c96a0a9a64b48fbc","63692122e86f66446f93f897","469","","f","","","","","","","","./tasks/HMM-beads/Images/NewTrialWC.png","highH","16","1","1","2","1","true","","","","","","","","","","","","","","","","",""
"image-keyboard-response","126","2180465","0.0-4.0-6.0-1.0-1.16","5c1bc0ab84ff14000184c2ce","63690f60c96a0a9a64b48fbc","63692122e86f66446f93f897","null","","null","","","","","","","","./tasks/HMM-beads/Images/BlackBeadChoice.png","","","","","","","","","","","","","","","","","","","","","","","",""
"image-keyboard-response","127","2180976","0.0-4.0-6.0-1.0-2.16","5c1bc0ab84ff14000184c2ce","63690f60c96a0a9a64b48fbc","63692122e86f66446f93f897","null","","null","","","","","","","","./tasks/HMM-beads/Images/BlackBeadChoiceCorrect.png","","","","","","","","","","","","","","","","","","","","","","","",""
"image-keyboard-response","128","2182786","0.0-4.0-6.0-1.0-0.17","5c1bc0ab84ff14000184c2ce","63690f60c96a0a9a64b48fbc","63692122e86f66446f93f897","1807","","f","","","","","","","","./tasks/HMM-beads/Images/NewTrialBC.png","highH","17","2","2","1","1","false","","","","","","","","","","","","","","","","",""
"image-keyboard-response","129","2183096","0.0-4.0-6.0-1.0-1.17","5c1bc0ab84ff14000184c2ce","63690f60c96a0a9a64b48fbc","63692122e86f66446f93f897","null","","null","","","","","","","","./tasks/HMM-beads/Images/BlackBeadChoice.png","","","","","","","","","","","","","","","","","","","","","","","",""
"image-keyboard-response","130","2183607","0.0-4.0-6.0-1.0-2.17","5c1bc0ab84ff14000184c2ce","63690f60c96a0a9a64b48fbc","63692122e86f66446f93f897","null","","null","","","","","","","","./tasks/HMM-beads/Images/BlackBeadChoiceWrong.png","","","","","","","","","","","","","","","","","","","","","","","",""
"image-keyboard-response","131","2184536","0.0-4.0-6.0-1.0-0.18","5c1bc0ab84ff14000184c2ce","63690f60c96a0a9a64b48fbc","63692122e86f66446f93f897","929","","f","","","","","","","","./tasks/HMM-beads/Images/NewTrialWC.png","highH","18","1","2","2","1","false","","","","","","","","","","","","","","","","",""
"image-keyboard-response","132","2184848","0.0-4.0-6.0-1.0-1.18","5c1bc0ab84ff14000184c2ce","63690f60c96a0a9a64b48fbc","63692122e86f66446f93f897","null","","null","","","","","","","","./tasks/HMM-beads/Images/BlackBeadChoice.png","","","","","","","","","","","","","","","","","","","","","","","",""
"image-keyboard-response","133","2185361","0.0-4.0-6.0-1.0-2.18","5c1bc0ab84ff14000184c2ce","63690f60c96a0a9a64b48fbc","63692122e86f66446f93f897","null","","null","","","","","","","","./tasks/HMM-beads/Images/BlackBeadChoiceWrong.png","","","","","","","","","","","","","","","","","","","","","","","",""
"image-keyboard-response","134","2186086","0.0-4.0-6.0-1.0-0.19","5c1bc0ab84ff14000184c2ce","63690f60c96a0a9a64b48fbc","63692122e86f66446f93f897","725","","f","","","","","","","","./tasks/HMM-beads/Images/NewTrialWC.png","highH","19","2","2","2","1","false","","","","","","","","","","","","","","","","",""
"image-keyboard-response","135","2186400","0.0-4.0-6.0-1.0-1.19","5c1bc0ab84ff14000184c2ce","63690f60c96a0a9a64b48fbc","63692122e86f66446f93f897","null","","null","","","","","","","","./tasks/HMM-beads/Images/BlackBeadChoice.png","","","","","","","","","","","","","","","","","","","","","","","",""
"image-keyboard-response","136","2186910","0.0-4.0-6.0-1.0-2.19","5c1bc0ab84ff14000184c2ce","63690f60c96a0a9a64b48fbc","63692122e86f66446f93f897","null","","null","","","","","","","","./tasks/HMM-beads/Images/BlackBeadChoiceWrong.png","","","","","","","","","","","","","","","","","","","","","","","",""
"image-keyboard-response","137","2187396","0.0-4.0-6.0-1.0-0.20","5c1bc0ab84ff14000184c2ce","63690f60c96a0a9a64b48fbc","63692122e86f66446f93f897","484","","j","","","","","","","","./tasks/HMM-beads/Images/NewTrialWC.png","highH","20","1","1","2","2","false","","","","","","","","","","","","","","","","",""
"image-keyboard-response","138","2187707","0.0-4.0-6.0-1.0-1.20","5c1bc0ab84ff14000184c2ce","63690f60c96a0a9a64b48fbc","63692122e86f66446f93f897","null","","null","","","","","","","","./tasks/HMM-beads/Images/WhiteBeadChoice.png","","","","","","","","","","","","","","","","","","","","","","","",""
"image-keyboard-response","139","2188219","0.0-4.0-6.0-1.0-2.20","5c1bc0ab84ff14000184c2ce","63690f60c96a0a9a64b48fbc","63692122e86f66446f93f897","null","","null","","","","","","","","./tasks/HMM-beads/Images/WhiteBeadChoiceWrong.png","","","","","","","","","","","","","","","","","","","","","","","",""
"image-keyboard-response","140","2189246","0.0-4.0-6.0-1.0-0.21","5c1bc0ab84ff14000184c2ce","63690f60c96a0a9a64b48fbc","63692122e86f66446f93f897","1026","","j","","","","","","","","./tasks/HMM-beads/Images/NewTrialBC.png","highH","21","2","1","1","2","false","","","","","","","","","","","","","","","","",""
"image-keyboard-response","141","2189554","0.0-4.0-6.0-1.0-1.21","5c1bc0ab84ff14000184c2ce","63690f60c96a0a9a64b48fbc","63692122e86f66446f93f897","null","","null","","","","","","","","./tasks/HMM-beads/Images/WhiteBeadChoice.png","","","","","","","","","","","","","","","","","","","","","","","",""
"image-keyboard-response","142","2190065","0.0-4.0-6.0-1.0-2.21","5c1bc0ab84ff14000184c2ce","63690f60c96a0a9a64b48fbc","63692122e86f66446f93f897","null","","null","","","","","","","","./tasks/HMM-beads/Images/WhiteBeadChoiceWrong.png","","","","","","","","","","","","","","","","","","","","","","","",""
"image-keyboard-response","143","2190426","0.0-4.0-6.0-1.0-0.22","5c1bc0ab84ff14000184c2ce","63690f60c96a0a9a64b48fbc","63692122e86f66446f93f897","361","","f","","","","","","","","./tasks/HMM-beads/Images/NewTrialBC.png","highH","22","1","1","1","1","true","","","","","","","","","","","","","","","","",""
"image-keyboard-response","144","2190737","0.0-4.0-6.0-1.0-1.22","5c1bc0ab84ff14000184c2ce","63690f60c96a0a9a64b48fbc","63692122e86f66446f93f897","null","","null","","","","","","","","./tasks/HMM-beads/Images/BlackBeadChoice.png","","","","","","","","","","","","","","","","","","","","","","","",""
"image-keyboard-response","145","2191251","0.0-4.0-6.0-1.0-2.22","5c1bc0ab84ff14000184c2ce","63690f60c96a0a9a64b48fbc","63692122e86f66446f93f897","null","","null","","","","","","","","./tasks/HMM-beads/Images/BlackBeadChoiceCorrect.png","","","","","","","","","","","","","","","","","","","","","","","",""
"image-keyboard-response","146","2191546","0.0-4.0-6.0-1.0-0.23","5c1bc0ab84ff14000184c2ce","63690f60c96a0a9a64b48fbc","63692122e86f66446f93f897","294","","f","","","","","","","","./tasks/HMM-beads/Images/NewTrialBC.png","highH","23","2","2","1","1","false","","","","","","","","","","","","","","","","",""
"image-keyboard-response","147","2191857","0.0-4.0-6.0-1.0-1.23","5c1bc0ab84ff14000184c2ce","63690f60c96a0a9a64b48fbc","63692122e86f66446f93f897","null","","null","","","","","","","","./tasks/HMM-beads/Images/BlackBeadChoice.png","","","","","","","","","","","","","","","","","","","","","","","",""
"image-keyboard-response","148","2192362","0.0-4.0-6.0-1.0-2.23","5c1bc0ab84ff14000184c2ce","63690f60c96a0a9a64b48fbc","63692122e86f66446f93f897","null","","null","","","","","","","","./tasks/HMM-beads/Images/BlackBeadChoiceWrong.png","","","","","","","","","","","","","","","","","","","","","","","",""
"image-keyboard-response","149","2192706","0.0-4.0-6.0-1.0-0.24","5c1bc0ab84ff14000184c2ce","63690f60c96a0a9a64b48fbc","63692122e86f66446f93f897","343","","j","","","","","","","","./tasks/HMM-beads/Images/NewTrialWC.png","highH","24","1","1","2","2","false","","","","","","","","","","","","","","","","",""
"image-keyboard-response","150","2193018","0.0-4.0-6.0-1.0-1.24","5c1bc0ab84ff14000184c2ce","63690f60c96a0a9a64b48fbc","63692122e86f66446f93f897","null","","null","","","","","","","","./tasks/HMM-beads/Images/WhiteBeadChoice.png","","","","","","","","","","","","","","","","","","","","","","","",""
"image-keyboard-response","151","2193533","0.0-4.0-6.0-1.0-2.24","5c1bc0ab84ff14000184c2ce","63690f60c96a0a9a64b48fbc","63692122e86f66446f93f897","null","","null","","","","","","","","./tasks/HMM-beads/Images/WhiteBeadChoiceWrong.png","","","","","","","","","","","","","","","","","","","","","","","",""
"image-keyboard-response","152","2194066","0.0-4.0-6.0-1.0-0.25","5c1bc0ab84ff14000184c2ce","63690f60c96a0a9a64b48fbc","63692122e86f66446f93f897","533","","f","","","","","","","","./tasks/HMM-beads/Images/NewTrialBC.png","highH","25","2","1","1","1","true","","","","","","","","","","","","","","","","",""
"image-keyboard-response","153","2194373","0.0-4.0-6.0-1.0-1.25","5c1bc0ab84ff14000184c2ce","63690f60c96a0a9a64b48fbc","63692122e86f66446f93f897","null","","null","","","","","","","","./tasks/HMM-beads/Images/BlackBeadChoice.png","","","","","","","","","","","","","","","","","","","","","","","",""
"image-keyboard-response","154","2194887","0.0-4.0-6.0-1.0-2.25","5c1bc0ab84ff14000184c2ce","63690f60c96a0a9a64b48fbc","63692122e86f66446f93f897","null","","null","","","","","","","","./tasks/HMM-beads/Images/BlackBeadChoiceCorrect.png","","","","","","","","","","","","","","","","","","","","","","","",""
"image-keyboard-response","155","2195246","0.0-4.0-6.0-1.0-0.26","5c1bc0ab84ff14000184c2ce","63690f60c96a0a9a64b48fbc","63692122e86f66446f93f897","359","","j","","","","","","","","./tasks/HMM-beads/Images/NewTrialBC.png","highH","26","1","1","1","2","false","","","","","","","","","","","","","","","","",""
"image-keyboard-response","156","2195551","0.0-4.0-6.0-1.0-1.26","5c1bc0ab84ff14000184c2ce","63690f60c96a0a9a64b48fbc","63692122e86f66446f93f897","null","","null","","","","","","","","./tasks/HMM-beads/Images/WhiteBeadChoice.png","","","","","","","","","","","","","","","","","","","","","","","",""
"image-keyboard-response","157","2196065","0.0-4.0-6.0-1.0-2.26","5c1bc0ab84ff14000184c2ce","63690f60c96a0a9a64b48fbc","63692122e86f66446f93f897","null","","null","","","","","","","","./tasks/HMM-beads/Images/WhiteBeadChoiceWrong.png","","","","","","","","","","","","","","","","","","","","","","","",""
"image-keyboard-response","158","2196426","0.0-4.0-6.0-1.0-0.27","5c1bc0ab84ff14000184c2ce","63690f60c96a0a9a64b48fbc","63692122e86f66446f93f897","360","","f","","","","","","","","./tasks/HMM-beads/Images/NewTrialBC.png","highH","27","2","2","1","1","false","","","","","","","","","","","","","","","","",""
"image-keyboard-response","159","2196735","0.0-4.0-6.0-1.0-1.27","5c1bc0ab84ff14000184c2ce","63690f60c96a0a9a64b48fbc","63692122e86f66446f93f897","null","","null","","","","","","","","./tasks/HMM-beads/Images/BlackBeadChoice.png","","","","","","","","","","","","","","","","","","","","","","","",""
"image-keyboard-response","160","2197247","0.0-4.0-6.0-1.0-2.27","5c1bc0ab84ff14000184c2ce","63690f60c96a0a9a64b48fbc","63692122e86f66446f93f897","null","","null","","","","","","","","./tasks/HMM-beads/Images/BlackBeadChoiceWrong.png","","","","","","","","","","","","","","","","","","","","","","","",""
"image-keyboard-response","161","2197686","0.0-4.0-6.0-1.0-0.28","5c1bc0ab84ff14000184c2ce","63690f60c96a0a9a64b48fbc","63692122e86f66446f93f897","438","","j","","","","","","","","./tasks/HMM-beads/Images/NewTrialWC.png","highH","28","2","1","2","2","false","","","","","","","","","","","","","","","","",""
"image-keyboard-response","162","2197997","0.0-4.0-6.0-1.0-1.28","5c1bc0ab84ff14000184c2ce","63690f60c96a0a9a64b48fbc","63692122e86f66446f93f897","null","","null","","","","","","","","./tasks/HMM-beads/Images/WhiteBeadChoice.png","","","","","","","","","","","","","","","","","","","","","","","",""
"image-keyboard-response","163","2198512","0.0-4.0-6.0-1.0-2.28","5c1bc0ab84ff14000184c2ce","63690f60c96a0a9a64b48fbc","63692122e86f66446f93f897","null","","null","","","","","","","","./tasks/HMM-beads/Images/WhiteBeadChoiceWrong.png","","","","","","","","","","","","","","","","","","","","","","","",""
"image-keyboard-response","164","2198896","0.0-4.0-6.0-1.0-0.29","5c1bc0ab84ff14000184c2ce","63690f60c96a0a9a64b48fbc","63692122e86f66446f93f897","384","","f","","","","","","","","./tasks/HMM-beads/Images/NewTrialBC.png","highH","29","1","1","1","1","true","","","","","","","","","","","","","","","","",""
"image-keyboard-response","165","2199209","0.0-4.0-6.0-1.0-1.29","5c1bc0ab84ff14000184c2ce","63690f60c96a0a9a64b48fbc","63692122e86f66446f93f897","null","","null","","","","","","","","./tasks/HMM-beads/Images/BlackBeadChoice.png","","","","","","","","","","","","","","","","","","","","","","","",""
"image-keyboard-response","166","2199724","0.0-4.0-6.0-1.0-2.29","5c1bc0ab84ff14000184c2ce","63690f60c96a0a9a64b48fbc","63692122e86f66446f93f897","null","","null","","","","","","","","./tasks/HMM-beads/Images/BlackBeadChoiceCorrect.png","","","","","","","","","","","","","","","","","","","","","","","",""
"image-keyboard-response","167","2200077","0.0-4.0-6.0-1.0-0.30","5c1bc0ab84ff14000184c2ce","63690f60c96a0a9a64b48fbc","63692122e86f66446f93f897","352","","f","","","","","","","","./tasks/HMM-beads/Images/NewTrialBC.png","highH","30","2","1","1","1","true","","","","","","","","","","","","","","","","",""
"image-keyboard-response","168","2200385","0.0-4.0-6.0-1.0-1.30","5c1bc0ab84ff14000184c2ce","63690f60c96a0a9a64b48fbc","63692122e86f66446f93f897","null","","null","","","","","","","","./tasks/HMM-beads/Images/BlackBeadChoice.png","","","","","","","","","","","","","","","","","","","","","","","",""
"image-keyboard-response","169","2200897","0.0-4.0-6.0-1.0-2.30","5c1bc0ab84ff14000184c2ce","63690f60c96a0a9a64b48fbc","63692122e86f66446f93f897","null","","null","","","","","","","","./tasks/HMM-beads/Images/BlackBeadChoiceCorrect.png","","","","","","","","","","","","","","","","","","","","","","","",""
"image-keyboard-response","170","2201246","0.0-4.0-6.0-1.0-0.31","5c1bc0ab84ff14000184c2ce","63690f60c96a0a9a64b48fbc","63692122e86f66446f93f897","348","","f","","","","","","","","./tasks/HMM-beads/Images/NewTrialBC.png","highH","31","1","1","1","1","true","","","","","","","","","","","","","","","","",""
"image-keyboard-response","171","2201562","0.0-4.0-6.0-1.0-1.31","5c1bc0ab84ff14000184c2ce","63690f60c96a0a9a64b48fbc","63692122e86f66446f93f897","null","","null","","","","","","","","./tasks/HMM-beads/Images/BlackBeadChoice.png","","","","","","","","","","","","","","","","","","","","","","","",""
"image-keyboard-response","172","2202077","0.0-4.0-6.0-1.0-2.31","5c1bc0ab84ff14000184c2ce","63690f60c96a0a9a64b48fbc","63692122e86f66446f93f897","null","","null","","","","","","","","./tasks/HMM-beads/Images/BlackBeadChoiceCorrect.png","","","","","","","","","","","","","","","","","","","","","","","",""
"image-keyboard-response","173","2202626","0.0-4.0-6.0-1.0-0.32","5c1bc0ab84ff14000184c2ce","63690f60c96a0a9a64b48fbc","63692122e86f66446f93f897","548","","j","","","","","","","","./tasks/HMM-beads/Images/NewTrialBC.png","highH","32","2","2","1","2","true","","","","","","","","","","","","","","","","",""
"image-keyboard-response","174","2202932","0.0-4.0-6.0-1.0-1.32","5c1bc0ab84ff14000184c2ce","63690f60c96a0a9a64b48fbc","63692122e86f66446f93f897","null","","null","","","","","","","","./tasks/HMM-beads/Images/WhiteBeadChoice.png","","","","","","","","","","","","","","","","","","","","","","","",""
"image-keyboard-response","175","2203444","0.0-4.0-6.0-1.0-2.32","5c1bc0ab84ff14000184c2ce","63690f60c96a0a9a64b48fbc","63692122e86f66446f93f897","null","","null","","","","","","","","./tasks/HMM-beads/Images/WhiteBeadChoiceCorrect.png","","","","","","","","","","","","","","","","","","","","","","","",""
"image-keyboard-response","176","2203906","0.0-4.0-6.0-1.0-0.33","5c1bc0ab84ff14000184c2ce","63690f60c96a0a9a64b48fbc","63692122e86f66446f93f897","462","","f","","","","","","","","./tasks/HMM-beads/Images/NewTrialWC.png","highH","33","1","1","2","1","true","","","","","","","","","","","","","","","","",""
"image-keyboard-response","177","2204222","0.0-4.0-6.0-1.0-1.33","5c1bc0ab84ff14000184c2ce","63690f60c96a0a9a64b48fbc","63692122e86f66446f93f897","null","","null","","","","","","","","./tasks/HMM-beads/Images/BlackBeadChoice.png","","","","","","","","","","","","","","","","","","","","","","","",""
"image-keyboard-response","178","2204736","0.0-4.0-6.0-1.0-2.33","5c1bc0ab84ff14000184c2ce","63690f60c96a0a9a64b48fbc","63692122e86f66446f93f897","null","","null","","","","","","","","./tasks/HMM-beads/Images/BlackBeadChoiceCorrect.png","","","","","","","","","","","","","","","","","","","","","","","",""
"image-keyboard-response","179","2204986","0.0-4.0-6.0-1.0-0.34","5c1bc0ab84ff14000184c2ce","63690f60c96a0a9a64b48fbc","63692122e86f66446f93f897","250","","f","","","","","","","","./tasks/HMM-beads/Images/NewTrialBC.png","highH","34","2","2","1","1","false","","","","","","","","","","","","","","","","",""
"image-keyboard-response","180","2205293","0.0-4.0-6.0-1.0-1.34","5c1bc0ab84ff14000184c2ce","63690f60c96a0a9a64b48fbc","63692122e86f66446f93f897","null","","null","","","","","","","","./tasks/HMM-beads/Images/BlackBeadChoice.png","","","","","","","","","","","","","","","","","","","","","","","",""
"image-keyboard-response","181","2205805","0.0-4.0-6.0-1.0-2.34","5c1bc0ab84ff14000184c2ce","63690f60c96a0a9a64b48fbc","63692122e86f66446f93f897","null","","null","","","","","","","","./tasks/HMM-beads/Images/BlackBeadChoiceWrong.png","","","","","","","","","","","","","","","","","","","","","","","",""
"image-keyboard-response","182","2206196","0.0-4.0-6.0-1.0-0.35","5c1bc0ab84ff14000184c2ce","63690f60c96a0a9a64b48fbc","63692122e86f66446f93f897","390","","f","","","","","","","","./tasks/HMM-beads/Images/NewTrialWC.png","highH","35","1","1","2","1","true","","","","","","","","","","","","","","","","",""
"image-keyboard-response","183","2206508","0.0-4.0-6.0-1.0-1.35","5c1bc0ab84ff14000184c2ce","63690f60c96a0a9a64b48fbc","63692122e86f66446f93f897","null","","null","","","","","","","","./tasks/HMM-beads/Images/BlackBeadChoice.png","","","","","","","","","","","","","","","","","","","","","","","",""
"image-keyboard-response","184","2207024","0.0-4.0-6.0-1.0-2.35","5c1bc0ab84ff14000184c2ce","63690f60c96a0a9a64b48fbc","63692122e86f66446f93f897","null","","null","","","","","","","","./tasks/HMM-beads/Images/BlackBeadChoiceCorrect.png","","","","","","","","","","","","","","","","","","","","","","","",""
"image-keyboard-response","185","2207696","0.0-4.0-6.0-1.0-0.36","5c1bc0ab84ff14000184c2ce","63690f60c96a0a9a64b48fbc","63692122e86f66446f93f897","670","","f","","","","","","","","./tasks/HMM-beads/Images/NewTrialBC.png","highH","36","2","1","1","1","true","","","","","","","","","","","","","","","","",""
"image-keyboard-response","186","2208002","0.0-4.0-6.0-1.0-1.36","5c1bc0ab84ff14000184c2ce","63690f60c96a0a9a64b48fbc","63692122e86f66446f93f897","null","","null","","","","","","","","./tasks/HMM-beads/Images/BlackBeadChoice.png","","","","","","","","","","","","","","","","","","","","","","","",""
"image-keyboard-response","187","2208514","0.0-4.0-6.0-1.0-2.36","5c1bc0ab84ff14000184c2ce","63690f60c96a0a9a64b48fbc","63692122e86f66446f93f897","null","","null","","","","","","","","./tasks/HMM-beads/Images/BlackBeadChoiceCorrect.png","","","","","","","","","","","","","","","","","","","","","","","",""
"image-keyboard-response","188","2208906","0.0-4.0-6.0-1.0-0.37","5c1bc0ab84ff14000184c2ce","63690f60c96a0a9a64b48fbc","63692122e86f66446f93f897","392","","j","","","","","","","","./tasks/HMM-beads/Images/NewTrialBC.png","highH","37","1","1","1","2","false","","","","","","","","","","","","","","","","",""
"image-keyboard-response","189","2209214","0.0-4.0-6.0-1.0-1.37","5c1bc0ab84ff14000184c2ce","63690f60c96a0a9a64b48fbc","63692122e86f66446f93f897","null","","null","","","","","","","","./tasks/HMM-beads/Images/WhiteBeadChoice.png","","","","","","","","","","","","","","","","","","","","","","","",""
"image-keyboard-response","190","2209728","0.0-4.0-6.0-1.0-2.37","5c1bc0ab84ff14000184c2ce","63690f60c96a0a9a64b48fbc","63692122e86f66446f93f897","null","","null","","","","","","","","./tasks/HMM-beads/Images/WhiteBeadChoiceWrong.png","","","","","","","","","","","","","","","","","","","","","","","",""
"image-keyboard-response","191","2210096","0.0-4.0-6.0-1.0-0.38","5c1bc0ab84ff14000184c2ce","63690f60c96a0a9a64b48fbc","63692122e86f66446f93f897","367","","j","","","","","","","","./tasks/HMM-beads/Images/NewTrialBC.png","highH","38","2","2","1","2","true","","","","","","","","","","","","","","","","",""
"image-keyboard-response","192","2210411","0.0-4.0-6.0-1.0-1.38","5c1bc0ab84ff14000184c2ce","63690f60c96a0a9a64b48fbc","63692122e86f66446f93f897","null","","null","","","","","","","","./tasks/HMM-beads/Images/WhiteBeadChoice.png","","","","","","","","","","","","","","","","","","","","","","","",""
"image-keyboard-response","193","2210921","0.0-4.0-6.0-1.0-2.38","5c1bc0ab84ff14000184c2ce","63690f60c96a0a9a64b48fbc","63692122e86f66446f93f897","null","","null","","","","","","","","./tasks/HMM-beads/Images/WhiteBeadChoiceCorrect.png","","","","","","","","","","","","","","","","","","","","","","","",""
"image-keyboard-response","194","2211266","0.0-4.0-6.0-1.0-0.39","5c1bc0ab84ff14000184c2ce","63690f60c96a0a9a64b48fbc","63692122e86f66446f93f897","344","","f","","","","","","","","./tasks/HMM-beads/Images/NewTrialWC.png","highH","39","1","1","2","1","true","","","","","","","","","","","","","","","","",""
"image-keyboard-response","195","2211570","0.0-4.0-6.0-1.0-1.39","5c1bc0ab84ff14000184c2ce","63690f60c96a0a9a64b48fbc","63692122e86f66446f93f897","null","","null","","","","","","","","./tasks/HMM-beads/Images/BlackBeadChoice.png","","","","","","","","","","","","","","","","","","","","","","","",""
"image-keyboard-response","196","2212086","0.0-4.0-6.0-1.0-2.39","5c1bc0ab84ff14000184c2ce","63690f60c96a0a9a64b48fbc","63692122e86f66446f93f897","null","","null","","","","","","","","./tasks/HMM-beads/Images/BlackBeadChoiceCorrect.png","","","","","","","","","","","","","","","","","","","","","","","",""
"image-keyboard-response","197","2212486","0.0-4.0-6.0-1.0-0.40","5c1bc0ab84ff14000184c2ce","63690f60c96a0a9a64b48fbc","63692122e86f66446f93f897","399","","f","","","","","","","","./tasks/HMM-beads/Images/NewTrialBC.png","highH","40","2","2","1","1","false","","","","","","","","","","","","","","","","",""
"image-keyboard-response","198","2212792","0.0-4.0-6.0-1.0-1.40","5c1bc0ab84ff14000184c2ce","63690f60c96a0a9a64b48fbc","63692122e86f66446f93f897","null","","null","","","","","","","","./tasks/HMM-beads/Images/BlackBeadChoice.png","","","","","","","","","","","","","","","","","","","","","","","",""
"image-keyboard-response","199","2213303","0.0-4.0-6.0-1.0-2.40","5c1bc0ab84ff14000184c2ce","63690f60c96a0a9a64b48fbc","63692122e86f66446f93f897","null","","null","","","","","","","","./tasks/HMM-beads/Images/BlackBeadChoiceWrong.png","","","","","","","","","","","","","","","","","","","","","","","",""
"image-keyboard-response","200","2213856","0.0-4.0-6.0-1.0-0.41","5c1bc0ab84ff14000184c2ce","63690f60c96a0a9a64b48fbc","63692122e86f66446f93f897","552","","j","","","","","","","","./tasks/HMM-beads/Images/NewTrialWC.png","highH","41","1","2","2","2","true","","","","","","","","","","","","","","","","",""
"image-keyboard-response","201","2214172","0.0-4.0-6.0-1.0-1.41","5c1bc0ab84ff14000184c2ce","63690f60c96a0a9a64b48fbc","63692122e86f66446f93f897","null","","null","","","","","","","","./tasks/HMM-beads/Images/WhiteBeadChoice.png","","","","","","","","","","","","","","","","","","","","","","","",""
"image-keyboard-response","202","2214683","0.0-4.0-6.0-1.0-2.41","5c1bc0ab84ff14000184c2ce","63690f60c96a0a9a64b48fbc","63692122e86f66446f93f897","null","","null","","","","","","","","./tasks/HMM-beads/Images/WhiteBeadChoiceCorrect.png","","","","","","","","","","","","","","","","","","","","","","","",""
"image-keyboard-response","203","2215016","0.0-4.0-6.0-1.0-0.42","5c1bc0ab84ff14000184c2ce","63690f60c96a0a9a64b48fbc","63692122e86f66446f93f897","332","","f","","","","","","","","./tasks/HMM-beads/Images/NewTrialWC.png","highH","42","2","2","2","1","false","","","","","","","","","","","","","","","","",""
"image-keyboard-response","204","2215321","0.0-4.0-6.0-1.0-1.42","5c1bc0ab84ff14000184c2ce","63690f60c96a0a9a64b48fbc","63692122e86f66446f93f897","null","","null","","","","","","","","./tasks/HMM-beads/Images/BlackBeadChoice.png","","","","","","","","","","","","","","","","","","","","","","","",""
"image-keyboard-response","205","2215828","0.0-4.0-6.0-1.0-2.42","5c1bc0ab84ff14000184c2ce","63690f60c96a0a9a64b48fbc","63692122e86f66446f93f897","null","","null","","","","","","","","./tasks/HMM-beads/Images/BlackBeadChoiceWrong.png","","","","","","","","","","","","","","","","","","","","","","","",""
"image-keyboard-response","206","2216156","0.0-4.0-6.0-1.0-0.43","5c1bc0ab84ff14000184c2ce","63690f60c96a0a9a64b48fbc","63692122e86f66446f93f897","327","","j","","","","","","","","./tasks/HMM-beads/Images/NewTrialWC.png","highH","43","1","1","2","2","false","","","","","","","","","","","","","","","","",""
"image-keyboard-response","207","2216472","0.0-4.0-6.0-1.0-1.43","5c1bc0ab84ff14000184c2ce","63690f60c96a0a9a64b48fbc","63692122e86f66446f93f897","null","","null","","","","","","","","./tasks/HMM-beads/Images/WhiteBeadChoice.png","","","","","","","","","","","","","","","","","","","","","","","",""
"image-keyboard-response","208","2216987","0.0-4.0-6.0-1.0-2.43","5c1bc0ab84ff14000184c2ce","63690f60c96a0a9a64b48fbc","63692122e86f66446f93f897","null","","null","","","","","","","","./tasks/HMM-beads/Images/WhiteBeadChoiceWrong.png","","","","","","","","","","","","","","","","","","","","","","","",""
"image-keyboard-response","209","2217246","0.0-4.0-6.0-1.0-0.44","5c1bc0ab84ff14000184c2ce","63690f60c96a0a9a64b48fbc","63692122e86f66446f93f897","259","","f","","","","","","","","./tasks/HMM-beads/Images/NewTrialBC.png","highH","44","2","1","1","1","true","","","","","","","","","","","","","","","","",""
"image-keyboard-response","210","2217561","0.0-4.0-6.0-1.0-1.44","5c1bc0ab84ff14000184c2ce","63690f60c96a0a9a64b48fbc","63692122e86f66446f93f897","null","","null","","","","","","","","./tasks/HMM-beads/Images/BlackBeadChoice.png","","","","","","","","","","","","","","","","","","","","","","","",""
"image-keyboard-response","211","2218075","0.0-4.0-6.0-1.0-2.44","5c1bc0ab84ff14000184c2ce","63690f60c96a0a9a64b48fbc","63692122e86f66446f93f897","null","","null","","","","","","","","./tasks/HMM-beads/Images/BlackBeadChoiceCorrect.png","","","","","","","","","","","","","","","","","","","","","","","",""
"image-keyboard-response","212","2218236","0.0-4.0-6.0-1.0-0.45","5c1bc0ab84ff14000184c2ce","63690f60c96a0a9a64b48fbc","63692122e86f66446f93f897","160","","f","","","","","","","","./tasks/HMM-beads/Images/NewTrialBC.png","highH","45","1","1","1","1","true","","","","","","","","","","","","","","","","",""
"image-keyboard-response","213","2218541","0.0-4.0-6.0-1.0-1.45","5c1bc0ab84ff14000184c2ce","63690f60c96a0a9a64b48fbc","63692122e86f66446f93f897","null","","null","","","","","","","","./tasks/HMM-beads/Images/BlackBeadChoice.png","","","","","","","","","","","","","","","","","","","","","","","",""
"image-keyboard-response","214","2219052","0.0-4.0-6.0-1.0-2.45","5c1bc0ab84ff14000184c2ce","63690f60c96a0a9a64b48fbc","63692122e86f66446f93f897","null","","null","","","","","","","","./tasks/HMM-beads/Images/BlackBeadChoiceCorrect.png","","","","","","","","","","","","","","","","","","","","","","","",""
"image-keyboard-response","215","2219206","0.0-4.0-6.0-1.0-0.46","5c1bc0ab84ff14000184c2ce","63690f60c96a0a9a64b48fbc","63692122e86f66446f93f897","154","","f","","","","","","","","./tasks/HMM-beads/Images/NewTrialBC.png","highH","46","2","2","1","1","false","","","","","","","","","","","","","","","","",""
"image-keyboard-response","216","2219518","0.0-4.0-6.0-1.0-1.46","5c1bc0ab84ff14000184c2ce","63690f60c96a0a9a64b48fbc","63692122e86f66446f93f897","null","","null","","","","","","","","./tasks/HMM-beads/Images/BlackBeadChoice.png","","","","","","","","","","","","","","","","","","","","","","","",""
"image-keyboard-response","217","2220031","0.0-4.0-6.0-1.0-2.46","5c1bc0ab84ff14000184c2ce","63690f60c96a0a9a64b48fbc","63692122e86f66446f93f897","null","","null","","","","","","","","./tasks/HMM-beads/Images/BlackBeadChoiceWrong.png","","","","","","","","","","","","","","","","","","","","","","","",""
"image-keyboard-response","218","2220217","0.0-4.0-6.0-1.0-0.47","5c1bc0ab84ff14000184c2ce","63690f60c96a0a9a64b48fbc","63692122e86f66446f93f897","186","","f","","","","","","","","./tasks/HMM-beads/Images/NewTrialWC.png","highH","47","1","1","2","1","true","","","","","","","","","","","","","","","","",""
"image-keyboard-response","219","2220527","0.0-4.0-6.0-1.0-1.47","5c1bc0ab84ff14000184c2ce","63690f60c96a0a9a64b48fbc","63692122e86f66446f93f897","null","","null","","","","","","","","./tasks/HMM-beads/Images/BlackBeadChoice.png","","","","","","","","","","","","","","","","","","","","","","","",""
"image-keyboard-response","220","2221039","0.0-4.0-6.0-1.0-2.47","5c1bc0ab84ff14000184c2ce","63690f60c96a0a9a64b48fbc","63692122e86f66446f93f897","null","","null","","","","","","","","./tasks/HMM-beads/Images/BlackBeadChoiceCorrect.png","","","","","","","","","","","","","","","","","","","","","","","",""
"image-keyboard-response","221","2221266","0.0-4.0-6.0-1.0-0.48","5c1bc0ab84ff14000184c2ce","63690f60c96a0a9a64b48fbc","63692122e86f66446f93f897","227","","f","","","","","","","","./tasks/HMM-beads/Images/NewTrialBC.png","highH","48","2","2","1","1","false","","","","","","","","","","","","","","","","",""
"image-keyboard-response","222","2221583","0.0-4.0-6.0-1.0-1.48","5c1bc0ab84ff14000184c2ce","63690f60c96a0a9a64b48fbc","63692122e86f66446f93f897","null","","null","","","","","","","","./tasks/HMM-beads/Images/BlackBeadChoice.png","","","","","","","","","","","","","","","","","","","","","","","",""
"image-keyboard-response","223","2222095","0.0-4.0-6.0-1.0-2.48","5c1bc0ab84ff14000184c2ce","63690f60c96a0a9a64b48fbc","63692122e86f66446f93f897","null","","null","","","","","","","","./tasks/HMM-beads/Images/BlackBeadChoiceWrong.png","","","","","","","","","","","","","","","","","","","","","","","",""
"image-keyboard-response","224","2222306","0.0-4.0-6.0-1.0-0.49","5c1bc0ab84ff14000184c2ce","63690f60c96a0a9a64b48fbc","63692122e86f66446f93f897","209","","f","","","","","","","","./tasks/HMM-beads/Images/NewTrialWC.png","highH","49","1","1","2","1","true","","","","","","","","","","","","","","","","",""
"image-keyboard-response","225","2222608","0.0-4.0-6.0-1.0-1.49","5c1bc0ab84ff14000184c2ce","63690f60c96a0a9a64b48fbc","63692122e86f66446f93f897","null","","null","","","","","","","","./tasks/HMM-beads/Images/BlackBeadChoice.png","","","","","","","","","","","","","","","","","","","","","","","",""
"image-keyboard-response","226","2223121","0.0-4.0-6.0-1.0-2.49","5c1bc0ab84ff14000184c2ce","63690f60c96a0a9a64b48fbc","63692122e86f66446f93f897","null","","null","","","","","","","","./tasks/HMM-beads/Images/BlackBeadChoiceCorrect.png","","","","","","","","","","","","","","","","","","","","","","","",""
"image-keyboard-response","227","2223376","0.0-4.0-6.0-1.0-0.50","5c1bc0ab84ff14000184c2ce","63690f60c96a0a9a64b48fbc","63692122e86f66446f93f897","255","","j","","","","","","","","./tasks/HMM-beads/Images/NewTrialBC.png","highH","50","2","1","1","2","false","","","","","","","","","","","","","","","","",""
"image-keyboard-response","228","2223691","0.0-4.0-6.0-1.0-1.50","5c1bc0ab84ff14000184c2ce","63690f60c96a0a9a64b48fbc","63692122e86f66446f93f897","null","","null","","","","","","","","./tasks/HMM-beads/Images/WhiteBeadChoice.png","","","","","","","","","","","","","","","","","","","","","","","",""
"image-keyboard-response","229","2224204","0.0-4.0-6.0-1.0-2.50","5c1bc0ab84ff14000184c2ce","63690f60c96a0a9a64b48fbc","63692122e86f66446f93f897","null","","null","","","","","","","","./tasks/HMM-beads/Images/WhiteBeadChoiceWrong.png","","","","","","","","","","","","","","","","","","","","","","","",""
"image-keyboard-response","230","2224326","0.0-4.0-6.0-1.0-0.51","5c1bc0ab84ff14000184c2ce","63690f60c96a0a9a64b48fbc","63692122e86f66446f93f897","122","","f","","","","","","","","./tasks/HMM-beads/Images/NewTrialBC.png","highH","51","1","1","1","1","true","","","","","","","","","","","","","","","","",""
"image-keyboard-response","231","2224639","0.0-4.0-6.0-1.0-1.51","5c1bc0ab84ff14000184c2ce","63690f60c96a0a9a64b48fbc","63692122e86f66446f93f897","null","","null","","","","","","","","./tasks/HMM-beads/Images/BlackBeadChoice.png","","","","","","","","","","","","","","","","","","","","","","","",""
"image-keyboard-response","232","2225154","0.0-4.0-6.0-1.0-2.51","5c1bc0ab84ff14000184c2ce","63690f60c96a0a9a64b48fbc","63692122e86f66446f93f897","null","","null","","","","","","","","./tasks/HMM-beads/Images/BlackBeadChoiceCorrect.png","","","","","","","","","","","","","","","","","","","","","","","",""
"image-keyboard-response","233","2225966","0.0-4.0-6.0-1.0-0.52","5c1bc0ab84ff14000184c2ce","63690f60c96a0a9a64b48fbc","63692122e86f66446f93f897","812","","j","","","","","","","","./tasks/HMM-beads/Images/NewTrialBC.png","highH","52","2","2","1","2","true","","","","","","","","","","","","","","","","",""
"image-keyboard-response","234","2226276","0.0-4.0-6.0-1.0-1.52","5c1bc0ab84ff14000184c2ce","63690f60c96a0a9a64b48fbc","63692122e86f66446f93f897","null","","null","","","","","","","","./tasks/HMM-beads/Images/WhiteBeadChoice.png","","","","","","","","","","","","","","","","","","","","","","","",""
"image-keyboard-response","235","2226790","0.0-4.0-6.0-1.0-2.52","5c1bc0ab84ff14000184c2ce","63690f60c96a0a9a64b48fbc","63692122e86f66446f93f897","null","","null","","","","","","","","./tasks/HMM-beads/Images/WhiteBeadChoiceCorrect.png","","","","","","","","","","","","","","","","","","","","","","","",""
"image-keyboard-response","236","2227186","0.0-4.0-6.0-1.0-0.53","5c1bc0ab84ff14000184c2ce","63690f60c96a0a9a64b48fbc","63692122e86f66446f93f897","395","","f","","","","","","","","./tasks/HMM-beads/Images/NewTrialWC.png","highH","53","1","1","2","1","true","","","","","","","","","","","","","","","","",""
"image-keyboard-response","237","2227492","0.0-4.0-6.0-1.0-1.53","5c1bc0ab84ff14000184c2ce","63690f60c96a0a9a64b48fbc","63692122e86f66446f93f897","null","","null","","","","","","","","./tasks/HMM-beads/Images/BlackBeadChoice.png","","","","","","","","","","","","","","","","","","","","","","","",""
"image-keyboard-response","238","2228000","0.0-4.0-6.0-1.0-2.53","5c1bc0ab84ff14000184c2ce","63690f60c96a0a9a64b48fbc","63692122e86f66446f93f897","null","","null","","","","","","","","./tasks/HMM-beads/Images/BlackBeadChoiceCorrect.png","","","","","","","","","","","","","","","","","","","","","","","",""
"image-keyboard-response","239","2228146","0.0-4.0-6.0-1.0-0.54","5c1bc0ab84ff14000184c2ce","63690f60c96a0a9a64b48fbc","63692122e86f66446f93f897","145","","f","","","","","","","","./tasks/HMM-beads/Images/NewTrialBC.png","highH","54","2","2","1","1","false","","","","","","","","","","","","","","","","",""
"image-keyboard-response","240","2228450","0.0-4.0-6.0-1.0-1.54","5c1bc0ab84ff14000184c2ce","63690f60c96a0a9a64b48fbc","63692122e86f66446f93f897","null","","null","","","","","","","","./tasks/HMM-beads/Images/BlackBeadChoice.png","","","","","","","","","","","","","","","","","","","","","","","",""
"image-keyboard-response","241","2228965","0.0-4.0-6.0-1.0-2.54","5c1bc0ab84ff14000184c2ce","63690f60c96a0a9a64b48fbc","63692122e86f66446f93f897","null","","null","","","","","","","","./tasks/HMM-beads/Images/BlackBeadChoiceWrong.png","","","","","","","","","","","","","","","","","","","","","","","",""
"image-keyboard-response","242","2229136","0.0-4.0-6.0-1.0-0.55","5c1bc0ab84ff14000184c2ce","63690f60c96a0a9a64b48fbc","63692122e86f66446f93f897","170","","f","","","","","","","","./tasks/HMM-beads/Images/NewTrialWC.png","highH","55","1","1","2","1","true","","","","","","","","","","","","","","","","",""
"image-keyboard-response","243","2229438","0.0-4.0-6.0-1.0-1.55","5c1bc0ab84ff14000184c2ce","63690f60c96a0a9a64b48fbc","63692122e86f66446f93f897","null","","null","","","","","","","","./tasks/HMM-beads/Images/BlackBeadChoice.png","","","","","","","","","","","","","","","","","","","","","","","",""
"image-keyboard-response","244","2229940","0.0-4.0-6.0-1.0-2.55","5c1bc0ab84ff14000184c2ce","63690f60c96a0a9a64b48fbc","63692122e86f66446f93f897","null","","null","","","","","","","","./tasks/HMM-beads/Images/BlackBeadChoiceCorrect.png","","","","","","","","","","","","","","","","","","","","","","","",""
"image-keyboard-response","245","2230176","0.0-4.0-6.0-1.0-0.56","5c1bc0ab84ff14000184c2ce","63690f60c96a0a9a64b48fbc","63692122e86f66446f93f897","235","","j","","","","","","","","./tasks/HMM-beads/Images/NewTrialBC.png","highH","56","2","2","1","2","true","","","","","","","","","","","","","","","","",""
"image-keyboard-response","246","2230484","0.0-4.0-6.0-1.0-1.56","5c1bc0ab84ff14000184c2ce","63690f60c96a0a9a64b48fbc","63692122e86f66446f93f897","null","","null","","","","","","","","./tasks/HMM-beads/Images/WhiteBeadChoice.png","","","","","","","","","","","","","","","","","","","","","","","",""
"image-keyboard-response","247","2230992","0.0-4.0-6.0-1.0-2.56","5c1bc0ab84ff14000184c2ce","63690f60c96a0a9a64b48fbc","63692122e86f66446f93f897","null","","null","","","","","","","","./tasks/HMM-beads/Images/WhiteBeadChoiceCorrect.png","","","","","","","","","","","","","","","","","","","","","","","",""
"image-keyboard-response","248","2231306","0.0-4.0-6.0-1.0-0.57","5c1bc0ab84ff14000184c2ce","63690f60c96a0a9a64b48fbc","63692122e86f66446f93f897","314","","f","","","","","","","","./tasks/HMM-beads/Images/NewTrialWC.png","highH","57","1","1","2","1","true","","","","","","","","","","","","","","","","",""
"image-keyboard-response","249","2231608","0.0-4.0-6.0-1.0-1.57","5c1bc0ab84ff14000184c2ce","63690f60c96a0a9a64b48fbc","63692122e86f66446f93f897","null","","null","","","","","","","","./tasks/HMM-beads/Images/BlackBeadChoice.png","","","","","","","","","","","","","","","","","","","","","","","",""
"image-keyboard-response","250","2232119","0.0-4.0-6.0-1.0-2.57","5c1bc0ab84ff14000184c2ce","63690f60c96a0a9a64b48fbc","63692122e86f66446f93f897","null","","null","","","","","","","","./tasks/HMM-beads/Images/BlackBeadChoiceCorrect.png","","","","","","","","","","","","","","","","","","","","","","","",""
"image-keyboard-response","251","2232446","0.0-4.0-6.0-1.0-0.58","5c1bc0ab84ff14000184c2ce","63690f60c96a0a9a64b48fbc","63692122e86f66446f93f897","327","","f","","","","","","","","./tasks/HMM-beads/Images/NewTrialBC.png","highH","58","2","2","1","1","false","","","","","","","","","","","","","","","","",""
"image-keyboard-response","252","2232756","0.0-4.0-6.0-1.0-1.58","5c1bc0ab84ff14000184c2ce","63690f60c96a0a9a64b48fbc","63692122e86f66446f93f897","null","","null","","","","","","","","./tasks/HMM-beads/Images/BlackBeadChoice.png","","","","","","","","","","","","","","","","","","","","","","","",""
"image-keyboard-response","253","2233258","0.0-4.0-6.0-1.0-2.58","5c1bc0ab84ff14000184c2ce","63690f60c96a0a9a64b48fbc","63692122e86f66446f93f897","null","","null","","","","","","","","./tasks/HMM-beads/Images/BlackBeadChoiceWrong.png","","","","","","","","","","","","","","","","","","","","","","","",""
"image-keyboard-response","254","2233656","0.0-4.0-6.0-1.0-0.59","5c1bc0ab84ff14000184c2ce","63690f60c96a0a9a64b48fbc","63692122e86f66446f93f897","398","","j","","","","","","","","./tasks/HMM-beads/Images/NewTrialWC.png","highH","59","1","1","2","2","false","","","","","","","","","","","","","","","","",""
"image-keyboard-response","255","2233969","0.0-4.0-6.0-1.0-1.59","5c1bc0ab84ff14000184c2ce","63690f60c96a0a9a64b48fbc","63692122e86f66446f93f897","null","","null","","","","","","","","./tasks/HMM-beads/Images/WhiteBeadChoice.png","","","","","","","","","","","","","","","","","","","","","","","",""
"image-keyboard-response","256","2234481","0.0-4.0-6.0-1.0-2.59","5c1bc0ab84ff14000184c2ce","63690f60c96a0a9a64b48fbc","63692122e86f66446f93f897","null","","null","","","","","","","","./tasks/HMM-beads/Images/WhiteBeadChoiceWrong.png","","","","","","","","","","","","","","","","","","","","","","","",""
"image-keyboard-response","257","2234756","0.0-4.0-6.0-1.0-0.60","5c1bc0ab84ff14000184c2ce","63690f60c96a0a9a64b48fbc","63692122e86f66446f93f897","273","","f","","","","","","","","./tasks/HMM-beads/Images/NewTrialBC.png","highH","60","2","2","1","1","false","","","","","","","","","","","","","","","","",""
"image-keyboard-response","258","2235059","0.0-4.0-6.0-1.0-1.60","5c1bc0ab84ff14000184c2ce","63690f60c96a0a9a64b48fbc","63692122e86f66446f93f897","null","","null","","","","","","","","./tasks/HMM-beads/Images/BlackBeadChoice.png","","","","","","","","","","","","","","","","","","","","","","","",""
"image-keyboard-response","259","2235571","0.0-4.0-6.0-1.0-2.60","5c1bc0ab84ff14000184c2ce","63690f60c96a0a9a64b48fbc","63692122e86f66446f93f897","null","","null","","","","","","","","./tasks/HMM-beads/Images/BlackBeadChoiceWrong.png","","","","","","","","","","","","","","","","","","","","","","","",""
"image-keyboard-response","260","2235916","0.0-4.0-6.0-1.0-0.61","5c1bc0ab84ff14000184c2ce","63690f60c96a0a9a64b48fbc","63692122e86f66446f93f897","344","","f","","","","","","","","./tasks/HMM-beads/Images/NewTrialWC.png","highH","61","1","2","2","1","false","","","","","","","","","","","","","","","","",""
"image-keyboard-response","261","2236224","0.0-4.0-6.0-1.0-1.61","5c1bc0ab84ff14000184c2ce","63690f60c96a0a9a64b48fbc","63692122e86f66446f93f897","null","","null","","","","","","","","./tasks/HMM-beads/Images/BlackBeadChoice.png","","","","","","","","","","","","","","","","","","","","","","","",""
"image-keyboard-response","262","2236739","0.0-4.0-6.0-1.0-2.61","5c1bc0ab84ff14000184c2ce","63690f60c96a0a9a64b48fbc","63692122e86f66446f93f897","null","","null","","","","","","","","./tasks/HMM-beads/Images/BlackBeadChoiceWrong.png","","","","","","","","","","","","","","","","","","","","","","","",""
"image-keyboard-response","263","2237166","0.0-4.0-6.0-1.0-0.62","5c1bc0ab84ff14000184c2ce","63690f60c96a0a9a64b48fbc","63692122e86f66446f93f897","426","","j","","","","","","","","./tasks/HMM-beads/Images/NewTrialWC.png","highH","62","2","2","2","2","true","","","","","","","","","","","","","","","","",""
"image-keyboard-response","264","2237479","0.0-4.0-6.0-1.0-1.62","5c1bc0ab84ff14000184c2ce","63690f60c96a0a9a64b48fbc","63692122e86f66446f93f897","null","","null","","","","","","","","./tasks/HMM-beads/Images/WhiteBeadChoice.png","","","","","","","","","","","","","","","","","","","","","","","",""
"image-keyboard-response","265","2237993","0.0-4.0-6.0-1.0-2.62","5c1bc0ab84ff14000184c2ce","63690f60c96a0a9a64b48fbc","63692122e86f66446f93f897","null","","null","","","","","","","","./tasks/HMM-beads/Images/WhiteBeadChoiceCorrect.png","","","","","","","","","","","","","","","","","","","","","","","",""
"image-keyboard-response","266","2238236","0.0-4.0-6.0-1.0-0.63","5c1bc0ab84ff14000184c2ce","63690f60c96a0a9a64b48fbc","63692122e86f66446f93f897","243","","j","","","","","","","","./tasks/HMM-beads/Images/NewTrialWC.png","highH","63","1","1","2","2","false","","","","","","","","","","","","","","","","",""
"image-keyboard-response","267","2238552","0.0-4.0-6.0-1.0-1.63","5c1bc0ab84ff14000184c2ce","63690f60c96a0a9a64b48fbc","63692122e86f66446f93f897","null","","null","","","","","","","","./tasks/HMM-beads/Images/WhiteBeadChoice.png","","","","","","","","","","","","","","","","","","","","","","","",""
"image-keyboard-response","268","2239065","0.0-4.0-6.0-1.0-2.63","5c1bc0ab84ff14000184c2ce","63690f60c96a0a9a64b48fbc","63692122e86f66446f93f897","null","","null","","","","","","","","./tasks/HMM-beads/Images/WhiteBeadChoiceWrong.png","","","","","","","","","","","","","","","","","","","","","","","",""
"image-keyboard-response","269","2239266","0.0-4.0-6.0-1.0-0.64","5c1bc0ab84ff14000184c2ce","63690f60c96a0a9a64b48fbc","63692122e86f66446f93f897","201","","f","","","","","","","","./tasks/HMM-beads/Images/NewTrialBC.png","highH","64","2","2","1","1","false","","","","","","","","","","","","","","","","",""
"image-keyboard-response","270","2239577","0.0-4.0-6.0-1.0-1.64","5c1bc0ab84ff14000184c2ce","63690f60c96a0a9a64b48fbc","63692122e86f66446f93f897","null","","null","","","","","","","","./tasks/HMM-beads/Images/BlackBeadChoice.png","","","","","","","","","","","","","","","","","","","","","","","",""
"image-keyboard-response","271","2240089","0.0-4.0-6.0-1.0-2.64","5c1bc0ab84ff14000184c2ce","63690f60c96a0a9a64b48fbc","63692122e86f66446f93f897","null","","null","","","","","","","","./tasks/HMM-beads/Images/BlackBeadChoiceWrong.png","","","","","","","","","","","","","","","","","","","","","","","",""
"image-keyboard-response","272","2240326","0.0-4.0-6.0-1.0-0.65","5c1bc0ab84ff14000184c2ce","63690f60c96a0a9a64b48fbc","63692122e86f66446f93f897","237","","j","","","","","","","","./tasks/HMM-beads/Images/NewTrialWC.png","highH","65","1","1","2","2","false","","","","","","","","","","","","","","","","",""
"image-keyboard-response","273","2240633","0.0-4.0-6.0-1.0-1.65","5c1bc0ab84ff14000184c2ce","63690f60c96a0a9a64b48fbc","63692122e86f66446f93f897","null","","null","","","","","","","","./tasks/HMM-beads/Images/WhiteBeadChoice.png","","","","","","","","","","","","","","","","","","","","","","","",""
"image-keyboard-response","274","2241145","0.0-4.0-6.0-1.0-2.65","5c1bc0ab84ff14000184c2ce","63690f60c96a0a9a64b48fbc","63692122e86f66446f93f897","null","","null","","","","","","","","./tasks/HMM-beads/Images/WhiteBeadChoiceWrong.png","","","","","","","","","","","","","","","","","","","","","","","",""
"image-keyboard-response","275","2241276","0.0-4.0-6.0-1.0-0.66","5c1bc0ab84ff14000184c2ce","63690f60c96a0a9a64b48fbc","63692122e86f66446f93f897","130","","j","","","","","","","","./tasks/HMM-beads/Images/NewTrialBC.png","highH","66","2","2","1","2","true","","","","","","","","","","","","","","","","",""
"image-keyboard-response","276","2241582","0.0-4.0-6.0-1.0-1.66","5c1bc0ab84ff14000184c2ce","63690f60c96a0a9a64b48fbc","63692122e86f66446f93f897","null","","null","","","","","","","","./tasks/HMM-beads/Images/WhiteBeadChoice.png","","","","","","","","","","","","","","","","","","","","","","","",""
"image-keyboard-response","277","2242096","0.0-4.0-6.0-1.0-2.66","5c1bc0ab84ff14000184c2ce","63690f60c96a0a9a64b48fbc","63692122e86f66446f93f897","null","","null","","","","","","","","./tasks/HMM-beads/Images/WhiteBeadChoiceCorrect.png","","","","","","","","","","","","","","","","","","","","","","","",""
"image-keyboard-response","278","2242267","0.0-4.0-6.0-1.0-0.67","5c1bc0ab84ff14000184c2ce","63690f60c96a0a9a64b48fbc","63692122e86f66446f93f897","170","","f","","","","","","","","./tasks/HMM-beads/Images/NewTrialWC.png","highH","67","1","1","2","1","true","","","","","","","","","","","","","","","","",""
"image-keyboard-response","279","2242577","0.0-4.0-6.0-1.0-1.67","5c1bc0ab84ff14000184c2ce","63690f60c96a0a9a64b48fbc","63692122e86f66446f93f897","null","","null","","","","","","","","./tasks/HMM-beads/Images/BlackBeadChoice.png","","","","","","","","","","","","","","","","","","","","","","","",""
"image-keyboard-response","280","2243088","0.0-4.0-6.0-1.0-2.67","5c1bc0ab84ff14000184c2ce","63690f60c96a0a9a64b48fbc","63692122e86f66446f93f897","null","","null","","","","","","","","./tasks/HMM-beads/Images/BlackBeadChoiceCorrect.png","","","","","","","","","","","","","","","","","","","","","","","",""
"image-keyboard-response","281","2243306","0.0-4.0-6.0-1.0-0.68","5c1bc0ab84ff14000184c2ce","63690f60c96a0a9a64b48fbc","63692122e86f66446f93f897","218","","f","","","","","","","","./tasks/HMM-beads/Images/NewTrialBC.png","highH","68","2","2","1","1","false","","","","","","","","","","","","","","","","",""
"image-keyboard-response","282","2243613","0.0-4.0-6.0-1.0-1.68","5c1bc0ab84ff14000184c2ce","63690f60c96a0a9a64b48fbc","63692122e86f66446f93f897","null","","null","","","","","","","","./tasks/HMM-beads/Images/BlackBeadChoice.png","","","","","","","","","","","","","","","","","","","","","","","",""
"image-keyboard-response","283","2244116","0.0-4.0-6.0-1.0-2.68","5c1bc0ab84ff14000184c2ce","63690f60c96a0a9a64b48fbc","63692122e86f66446f93f897","null","","null","","","","","","","","./tasks/HMM-beads/Images/BlackBeadChoiceWrong.png","","","","","","","","","","","","","","","","","","","","","","","",""
"image-keyboard-response","284","2244326","0.0-4.0-6.0-1.0-0.69","5c1bc0ab84ff14000184c2ce","63690f60c96a0a9a64b48fbc","63692122e86f66446f93f897","210","","j","","","","","","","","./tasks/HMM-beads/Images/NewTrialWC.png","highH","69","1","2","2","2","true","","","","","","","","","","","","","","","","",""
"image-keyboard-response","285","2244630","0.0-4.0-6.0-1.0-1.69","5c1bc0ab84ff14000184c2ce","63690f60c96a0a9a64b48fbc","63692122e86f66446f93f897","null","","null","","","","","","","","./tasks/HMM-beads/Images/WhiteBeadChoice.png","","","","","","","","","","","","","","","","","","","","","","","",""
"image-keyboard-response","286","2245143","0.0-4.0-6.0-1.0-2.69","5c1bc0ab84ff14000184c2ce","63690f60c96a0a9a64b48fbc","63692122e86f66446f93f897","null","","null","","","","","","","","./tasks/HMM-beads/Images/WhiteBeadChoiceCorrect.png","","","","","","","","","","","","","","","","","","","","","","","",""
"image-keyboard-response","287","2245366","0.0-4.0-6.0-1.0-0.70","5c1bc0ab84ff14000184c2ce","63690f60c96a0a9a64b48fbc","63692122e86f66446f93f897","223","","j","","","","","","","","./tasks/HMM-beads/Images/NewTrialWC.png","highH","70","2","2","2","2","true","","","","","","","","","","","","","","","","",""
"image-keyboard-response","288","2245673","0.0-4.0-6.0-1.0-1.70","5c1bc0ab84ff14000184c2ce","63690f60c96a0a9a64b48fbc","63692122e86f66446f93f897","null","","null","","","","","","","","./tasks/HMM-beads/Images/WhiteBeadChoice.png","","","","","","","","","","","","","","","","","","","","","","","",""
"image-keyboard-response","289","2246187","0.0-4.0-6.0-1.0-2.70","5c1bc0ab84ff14000184c2ce","63690f60c96a0a9a64b48fbc","63692122e86f66446f93f897","null","","null","","","","","","","","./tasks/HMM-beads/Images/WhiteBeadChoiceCorrect.png","","","","","","","","","","","","","","","","","","","","","","","",""
"image-keyboard-response","290","2246546","0.0-4.0-6.0-1.0-0.71","5c1bc0ab84ff14000184c2ce","63690f60c96a0a9a64b48fbc","63692122e86f66446f93f897","359","","j","","","","","","","","./tasks/HMM-beads/Images/NewTrialWC.png","highH","71","1","2","2","2","true","","","","","","","","","","","","","","","","",""
"image-keyboard-response","291","2246857","0.0-4.0-6.0-1.0-1.71","5c1bc0ab84ff14000184c2ce","63690f60c96a0a9a64b48fbc","63692122e86f66446f93f897","null","","null","","","","","","","","./tasks/HMM-beads/Images/WhiteBeadChoice.png","","","","","","","","","","","","","","","","","","","","","","","",""
"image-keyboard-response","292","2247369","0.0-4.0-6.0-1.0-2.71","5c1bc0ab84ff14000184c2ce","63690f60c96a0a9a64b48fbc","63692122e86f66446f93f897","null","","null","","","","","","","","./tasks/HMM-beads/Images/WhiteBeadChoiceCorrect.png","","","","","","","","","","","","","","","","","","","","","","","",""
"image-keyboard-response","293","2247606","0.0-4.0-6.0-1.0-0.72","5c1bc0ab84ff14000184c2ce","63690f60c96a0a9a64b48fbc","63692122e86f66446f93f897","236","","j","","","","","","","","./tasks/HMM-beads/Images/NewTrialWC.png","highH","72","2","2","2","2","true","","","","","","","","","","","","","","","","",""
"image-keyboard-response","294","2247914","0.0-4.0-6.0-1.0-1.72","5c1bc0ab84ff14000184c2ce","63690f60c96a0a9a64b48fbc","63692122e86f66446f93f897","null","","null","","","","","","","","./tasks/HMM-beads/Images/WhiteBeadChoice.png","","","","","","","","","","","","","","","","","","","","","","","",""
"image-keyboard-response","295","2248423","0.0-4.0-6.0-1.0-2.72","5c1bc0ab84ff14000184c2ce","63690f60c96a0a9a64b48fbc","63692122e86f66446f93f897","null","","null","","","","","","","","./tasks/HMM-beads/Images/WhiteBeadChoiceCorrect.png","","","","","","","","","","","","","","","","","","","","","","","",""
"image-keyboard-response","296","2248656","0.0-4.0-6.0-1.0-0.73","5c1bc0ab84ff14000184c2ce","63690f60c96a0a9a64b48fbc","63692122e86f66446f93f897","233","","j","","","","","","","","./tasks/HMM-beads/Images/NewTrialWC.png","highH","73","1","1","2","2","false","","","","","","","","","","","","","","","","",""
"image-keyboard-response","297","2248971","0.0-4.0-6.0-1.0-1.73","5c1bc0ab84ff14000184c2ce","63690f60c96a0a9a64b48fbc","63692122e86f66446f93f897","null","","null","","","","","","","","./tasks/HMM-beads/Images/WhiteBeadChoice.png","","","","","","","","","","","","","","","","","","","","","","","",""
"image-keyboard-response","298","2249485","0.0-4.0-6.0-1.0-2.73","5c1bc0ab84ff14000184c2ce","63690f60c96a0a9a64b48fbc","63692122e86f66446f93f897","null","","null","","","","","","","","./tasks/HMM-beads/Images/WhiteBeadChoiceWrong.png","","","","","","","","","","","","","","","","","","","","","","","",""
"image-keyboard-response","299","2249657","0.0-4.0-6.0-1.0-0.74","5c1bc0ab84ff14000184c2ce","63690f60c96a0a9a64b48fbc","63692122e86f66446f93f897","171","","f","","","","","","","","./tasks/HMM-beads/Images/NewTrialBC.png","highH","74","2","2","1","1","false","","","","","","","","","","","","","","","","",""
"image-keyboard-response","300","2249969","0.0-4.0-6.0-1.0-1.74","5c1bc0ab84ff14000184c2ce","63690f60c96a0a9a64b48fbc","63692122e86f66446f93f897","null","","null","","","","","","","","./tasks/HMM-beads/Images/BlackBeadChoice.png","","","","","","","","","","","","","","","","","","","","","","","",""
"image-keyboard-response","301","2250470","0.0-4.0-6.0-1.0-2.74","5c1bc0ab84ff14000184c2ce","63690f60c96a0a9a64b48fbc","63692122e86f66446f93f897","null","","null","","","","","","","","./tasks/HMM-beads/Images/BlackBeadChoiceWrong.png","","","","","","","","","","","","","","","","","","","","","","","",""
"image-keyboard-response","302","2250657","0.0-4.0-6.0-1.0-0.75","5c1bc0ab84ff14000184c2ce","63690f60c96a0a9a64b48fbc","63692122e86f66446f93f897","182","","j","","","","","","","","./tasks/HMM-beads/Images/NewTrialWC.png","highH","75","1","1","2","2","false","","","","","","","","","","","","","","","","",""
"image-keyboard-response","303","2250968","0.0-4.0-6.0-1.0-1.75","5c1bc0ab84ff14000184c2ce","63690f60c96a0a9a64b48fbc","63692122e86f66446f93f897","null","","null","","","","","","","","./tasks/HMM-beads/Images/WhiteBeadChoice.png","","","","","","","","","","","","","","","","","","","","","","","",""
"image-keyboard-response","304","2251480","0.0-4.0-6.0-1.0-2.75","5c1bc0ab84ff14000184c2ce","63690f60c96a0a9a64b48fbc","63692122e86f66446f93f897","null","","null","","","","","","","","./tasks/HMM-beads/Images/WhiteBeadChoiceWrong.png","","","","","","","","","","","","","","","","","","","","","","","",""
"image-keyboard-response","305","2251636","0.0-4.0-6.0-1.0-0.76","5c1bc0ab84ff14000184c2ce","63690f60c96a0a9a64b48fbc","63692122e86f66446f93f897","155","","f","","","","","","","","./tasks/HMM-beads/Images/NewTrialBC.png","highH","76","2","2","1","1","false","","","","","","","","","","","","","","","","",""
"image-keyboard-response","306","2251942","0.0-4.0-6.0-1.0-1.76","5c1bc0ab84ff14000184c2ce","63690f60c96a0a9a64b48fbc","63692122e86f66446f93f897","null","","null","","","","","","","","./tasks/HMM-beads/Images/BlackBeadChoice.png","","","","","","","","","","","","","","","","","","","","","","","",""
"image-keyboard-response","307","2252453","0.0-4.0-6.0-1.0-2.76","5c1bc0ab84ff14000184c2ce","63690f60c96a0a9a64b48fbc","63692122e86f66446f93f897","null","","null","","","","","","","","./tasks/HMM-beads/Images/BlackBeadChoiceWrong.png","","","","","","","","","","","","","","","","","","","","","","","",""
"image-keyboard-response","308","2252587","0.0-4.0-6.0-1.0-0.77","5c1bc0ab84ff14000184c2ce","63690f60c96a0a9a64b48fbc","63692122e86f66446f93f897","133","","f","","","","","","","","./tasks/HMM-beads/Images/NewTrialWC.png","highH","77","1","1","2","1","true","","","","","","","","","","","","","","","","",""
"image-keyboard-response","309","2252902","0.0-4.0-6.0-1.0-1.77","5c1bc0ab84ff14000184c2ce","63690f60c96a0a9a64b48fbc","63692122e86f66446f93f897","null","","null","","","","","","","","./tasks/HMM-beads/Images/BlackBeadChoice.png","","","","","","","","","","","","","","","","","","","","","","","",""
"image-keyboard-response","310","2253416","0.0-4.0-6.0-1.0-2.77","5c1bc0ab84ff14000184c2ce","63690f60c96a0a9a64b48fbc","63692122e86f66446f93f897","null","","null","","","","","","","","./tasks/HMM-beads/Images/BlackBeadChoiceCorrect.png","","","","","","","","","","","","","","","","","","","","","","","",""
"image-keyboard-response","311","2253616","0.0-4.0-6.0-1.0-0.78","5c1bc0ab84ff14000184c2ce","63690f60c96a0a9a64b48fbc","63692122e86f66446f93f897","199","","j","","","","","","","","./tasks/HMM-beads/Images/NewTrialBC.png","highH","78","2","2","1","2","true","","","","","","","","","","","","","","","","",""
"image-keyboard-response","312","2253931","0.0-4.0-6.0-1.0-1.78","5c1bc0ab84ff14000184c2ce","63690f60c96a0a9a64b48fbc","63692122e86f66446f93f897","null","","null","","","","","","","","./tasks/HMM-beads/Images/WhiteBeadChoice.png","","","","","","","","","","","","","","","","","","","","","","","",""
"image-keyboard-response","313","2254443","0.0-4.0-6.0-1.0-2.78","5c1bc0ab84ff14000184c2ce","63690f60c96a0a9a64b48fbc","63692122e86f66446f93f897","null","","null","","","","","","","","./tasks/HMM-beads/Images/WhiteBeadChoiceCorrect.png","","","","","","","","","","","","","","","","","","","","","","","",""
"image-keyboard-response","314","2255026","0.0-4.0-6.0-1.0-0.79","5c1bc0ab84ff14000184c2ce","63690f60c96a0a9a64b48fbc","63692122e86f66446f93f897","582","","j","","","","","","","","./tasks/HMM-beads/Images/NewTrialWC.png","highH","79","1","1","2","2","false","","","","","","","","","","","","","","","","",""
"image-keyboard-response","315","2255334","0.0-4.0-6.0-1.0-1.79","5c1bc0ab84ff14000184c2ce","63690f60c96a0a9a64b48fbc","63692122e86f66446f93f897","null","","null","","","","","","","","./tasks/HMM-beads/Images/WhiteBeadChoice.png","","","","","","","","","","","","","","","","","","","","","","","",""
"image-keyboard-response","316","2255844","0.0-4.0-6.0-1.0-2.79","5c1bc0ab84ff14000184c2ce","63690f60c96a0a9a64b48fbc","63692122e86f66446f93f897","null","","null","","","","","","","","./tasks/HMM-beads/Images/WhiteBeadChoiceWrong.png","","","","","","","","","","","","","","","","","","","","","","","",""
"image-keyboard-response","317","2256206","0.0-4.0-6.0-1.0-0.80","5c1bc0ab84ff14000184c2ce","63690f60c96a0a9a64b48fbc","63692122e86f66446f93f897","362","","j","","","","","","","","./tasks/HMM-beads/Images/NewTrialBC.png","highH","80","2","1","1","2","false","","","","","","","","","","","","","","","","",""
"image-keyboard-response","318","2256513","0.0-4.0-6.0-1.0-1.80","5c1bc0ab84ff14000184c2ce","63690f60c96a0a9a64b48fbc","63692122e86f66446f93f897","null","","null","","","","","","","","./tasks/HMM-beads/Images/WhiteBeadChoice.png","","","","","","","","","","","","","","","","","","","","","","","",""
"image-keyboard-response","319","2257016","0.0-4.0-6.0-1.0-2.80","5c1bc0ab84ff14000184c2ce","63690f60c96a0a9a64b48fbc","63692122e86f66446f93f897","null","","null","","","","","","","","./tasks/HMM-beads/Images/WhiteBeadChoiceWrong.png","","","","","","","","","","","","","","","","","","","","","","","",""
"image-keyboard-response","320","2257556","0.0-4.0-6.0-1.0-0.81","5c1bc0ab84ff14000184c2ce","63690f60c96a0a9a64b48fbc","63692122e86f66446f93f897","540","","f","","","","","","","","./tasks/HMM-beads/Images/NewTrialBC.png","highH","81","1","1","1","1","true","","","","","","","","","","","","","","","","",""
