"trial_type","trial_index","time_elapsed","internal_node_id","subject_id","study_id","session_id","rt","url","response","question_order","view_history","success","timeout","failed_images","failed_audio","failed_video","stimulus","block","trial_number","jar","bead","previous_bead","choice","correct","lowH_score","highH_score","state","rewarded","state1_action","state2_visited","state1_key","state2_key","state1_rt","state2_rt","two_arm_score","total_bonus"
"pavlovia","0","1216","0.0-0.0","60d2d061fd054556769ca306","635ab8fc87ce89828e04cd4d","635ac4236142f9ce46d6b4a4","","","","","","","","","","","","","","","","","","","","","","","","","","","","","",""
"external-html","1","8674","0.0-1.0-0.0","60d2d061fd054556769ca306","635ab8fc87ce89828e04cd4d","635ac4236142f9ce46d6b4a4","7341","new_consent.html","","","","","","","","","","","","","","","","","","","","","","","","","","","",""
"survey-multi-choice","2","13305","0.0-1.0-1.0","60d2d061fd054556769ca306","635ab8fc87ce89828e04cd4d","635ac4236142f9ce46d6b4a4","4626","","{""Q0"":""Male"",""Q1"":""Black or African American""}","[0,1]","","","","","","","","","","","","","","","","","","","","","","","","","",""
"survey-text","3","19399","0.0-1.0-2.0","60d2d061fd054556769ca306","635ab8fc87ce89828e04cd4d","635ac4236142f9ce46d6b4a4","6086","","{""Q0"":""19""}","","","","","","","","","","","","","","","","","","","","","","","","","","",""
"instructions","4","29057","0.0-2.0","60d2d061fd054556769ca306","635ab8fc87ce89828e04cd4d","635ac4236142f9ce46d6b4a4","9549","","","","[{""page_index"":0,""viewing_time"":6415},{""page_index"":1,""viewing_time"":3132}]","","","","","","","","","","","","","","","","","","","","","","","","",""
"instructions","5","30747","0.0-3.0","60d2d061fd054556769ca306","635ab8fc87ce89828e04cd4d","635ac4236142f9ce46d6b4a4","1689","","","","[{""page_index"":0,""viewing_time"":1689}]","","","","","","","","","","","","","","","","","","","","","","","","",""
"preload","6","32031","0.0-4.0-0.0","60d2d061fd054556769ca306","635ab8fc87ce89828e04cd4d","635ac4236142f9ce46d6b4a4","","","","","","true","false","[]","[]","[]","","","","","","","","","","","","","","","","","","","",""
"instructions","7","120424","0.0-4.0-1.0","60d2d061fd054556769ca306","635ab8fc87ce89828e04cd4d","635ac4236142f9ce46d6b4a4","88393","","","","[{""page_index"":0,""viewing_time"":13221},{""page_index"":1,""viewing_time"":7525},{""page_index"":2,""viewing_time"":4086},{""page_index"":3,""viewing_time"":1395},{""page_index"":4,""viewing_time"":6636},{""page_index"":5,""viewing_time"":21677},{""page_index"":6,""viewing_time"":6346},{""page_index"":7,""viewing_time"":4430},{""page_index"":8,""viewing_time"":5599},{""page_index"":9,""viewing_time"":4192},{""page_index"":10,""viewing_time"":9662},{""page_index"":11,""viewing_time"":3625}]","","","","","","","","","","","","","","","","","","","","","","","","",""
"html-button-response","8","128283","0.0-4.0-2.0-0.0-0.0","60d2d061fd054556769ca306","635ab8fc87ce89828e04cd4d","635ac4236142f9ce46d6b4a4","7857","","1","","","","","","","","<div align=center>Your goal is to predict…?<br><br></div>","","","","","","","","","","","","","","","","","","",""
"html-button-response","9","136209","0.0-4.0-2.0-1.0-0.0","60d2d061fd054556769ca306","635ab8fc87ce89828e04cd4d","635ac4236142f9ce46d6b4a4","5694","","2","","","","","","","","<div align=center>In the jar with mostly white beads, there are ___% white beads and ___% black beads?<br><br></div>","","","","","","","","","","","","","","","","","","",""
"html-button-response","10","147044","0.0-4.0-2.0-2.0-0.0","60d2d061fd054556769ca306","635ab8fc87ce89828e04cd4d","635ac4236142f9ce46d6b4a4","9468","","0","","","","","","","","<div align=center>When there is a 1% probability that the jars will switch, the next bead will most likely be drawn from the…<br><br></div>","","","","","","","","","","","","","","","","","","",""
"html-button-response","11","153336","0.0-4.0-2.0-3.0-0.0","60d2d061fd054556769ca306","635ab8fc87ce89828e04cd4d","635ac4236142f9ce46d6b4a4","4569","","1","","","","","","","","<div align=center>When there is a 99% probability that the jars will switch, the next bead will most likely be drawn from the…<br><br></div>","","","","","","","","","","","","","","","","","","",""
"instructions","12","160962","0.0-4.0-3.0","60d2d061fd054556769ca306","635ab8fc87ce89828e04cd4d","635ac4236142f9ce46d6b4a4","6037","","","","[{""page_index"":0,""viewing_time"":6036}]","","","","","","","","","","","","","","","","","","","","","","","","",""
"html-keyboard-response","13","168306","0.0-4.0-4.0-0.0","60d2d061fd054556769ca306","635ab8fc87ce89828e04cd4d","635ac4236142f9ce46d6b4a4","7343",""," ","","","","","","","","<div align=center>In this practice block, there will be a <b>10% chance</b> that the jar on the next trial will be different from the jar on the current trial.<br><br></div>","","","","","","","","","","","","","","","","","","",""
"image-keyboard-response","14","175156","0.0-4.0-4.0-1.0-0.0","60d2d061fd054556769ca306","635ab8fc87ce89828e04cd4d","635ac4236142f9ce46d6b4a4","6845","","f","","","","","","","","./tasks/HMM-beads/Images/NoChoice.png","practice","0","1","1","0","1","true","","","","","","","","","","","",""
"image-keyboard-response","15","175468","0.0-4.0-4.0-1.0-1.0","60d2d061fd054556769ca306","635ab8fc87ce89828e04cd4d","635ac4236142f9ce46d6b4a4","null","","null","","","","","","","","./tasks/HMM-beads/Images/BlackBeadChoice.png","","","","","","","","","","","","","","","","","","",""
"image-keyboard-response","16","175980","0.0-4.0-4.0-1.0-2.0","60d2d061fd054556769ca306","635ab8fc87ce89828e04cd4d","635ac4236142f9ce46d6b4a4","null","","null","","","","","","","","./tasks/HMM-beads/Images/BlackBeadChoiceCorrect.png","","","","","","","","","","","","","","","","","","",""
"image-keyboard-response","17","177807","0.0-4.0-4.0-1.0-0.1","60d2d061fd054556769ca306","635ab8fc87ce89828e04cd4d","635ac4236142f9ce46d6b4a4","1825","","f","","","","","","","","./tasks/HMM-beads/Images/NewTrialBC.png","practice","1","1","1","1","1","true","","","","","","","","","","","",""
"image-keyboard-response","18","178110","0.0-4.0-4.0-1.0-1.1","60d2d061fd054556769ca306","635ab8fc87ce89828e04cd4d","635ac4236142f9ce46d6b4a4","null","","null","","","","","","","","./tasks/HMM-beads/Images/BlackBeadChoice.png","","","","","","","","","","","","","","","","","","",""
"image-keyboard-response","19","178621","0.0-4.0-4.0-1.0-2.1","60d2d061fd054556769ca306","635ab8fc87ce89828e04cd4d","635ac4236142f9ce46d6b4a4","null","","null","","","","","","","","./tasks/HMM-beads/Images/BlackBeadChoiceCorrect.png","","","","","","","","","","","","","","","","","","",""
"image-keyboard-response","20","179953","0.0-4.0-4.0-1.0-0.2","60d2d061fd054556769ca306","635ab8fc87ce89828e04cd4d","635ac4236142f9ce46d6b4a4","1330","","f","","","","","","","","./tasks/HMM-beads/Images/NewTrialBC.png","practice","2","1","2","1","1","false","","","","","","","","","","","",""
"image-keyboard-response","21","180264","0.0-4.0-4.0-1.0-1.2","60d2d061fd054556769ca306","635ab8fc87ce89828e04cd4d","635ac4236142f9ce46d6b4a4","null","","null","","","","","","","","./tasks/HMM-beads/Images/BlackBeadChoice.png","","","","","","","","","","","","","","","","","","",""
"image-keyboard-response","22","180775","0.0-4.0-4.0-1.0-2.2","60d2d061fd054556769ca306","635ab8fc87ce89828e04cd4d","635ac4236142f9ce46d6b4a4","null","","null","","","","","","","","./tasks/HMM-beads/Images/BlackBeadChoiceWrong.png","","","","","","","","","","","","","","","","","","",""
"image-keyboard-response","23","189787","0.0-4.0-4.0-1.0-0.3","60d2d061fd054556769ca306","635ab8fc87ce89828e04cd4d","635ac4236142f9ce46d6b4a4","9011","","j","","","","","","","","./tasks/HMM-beads/Images/NewTrialWC.png","practice","3","1","1","2","2","false","","","","","","","","","","","",""
"image-keyboard-response","24","190093","0.0-4.0-4.0-1.0-1.3","60d2d061fd054556769ca306","635ab8fc87ce89828e04cd4d","635ac4236142f9ce46d6b4a4","null","","null","","","","","","","","./tasks/HMM-beads/Images/WhiteBeadChoice.png","","","","","","","","","","","","","","","","","","",""
"image-keyboard-response","25","190608","0.0-4.0-4.0-1.0-2.3","60d2d061fd054556769ca306","635ab8fc87ce89828e04cd4d","635ac4236142f9ce46d6b4a4","null","","null","","","","","","","","./tasks/HMM-beads/Images/WhiteBeadChoiceWrong.png","","","","","","","","","","","","","","","","","","",""
"image-keyboard-response","26","193355","0.0-4.0-4.0-1.0-0.4","60d2d061fd054556769ca306","635ab8fc87ce89828e04cd4d","635ac4236142f9ce46d6b4a4","2739","","f","","","","","","","","./tasks/HMM-beads/Images/NewTrialBC.png","practice","4","1","2","1","1","false","","","","","","","","","","","",""
"image-keyboard-response","27","193670","0.0-4.0-4.0-1.0-1.4","60d2d061fd054556769ca306","635ab8fc87ce89828e04cd4d","635ac4236142f9ce46d6b4a4","null","","null","","","","","","","","./tasks/HMM-beads/Images/BlackBeadChoice.png","","","","","","","","","","","","","","","","","","",""
"image-keyboard-response","28","194186","0.0-4.0-4.0-1.0-2.4","60d2d061fd054556769ca306","635ab8fc87ce89828e04cd4d","635ac4236142f9ce46d6b4a4","null","","null","","","","","","","","./tasks/HMM-beads/Images/BlackBeadChoiceWrong.png","","","","","","","","","","","","","","","","","","",""
"image-keyboard-response","29","195488","0.0-4.0-4.0-1.0-0.5","60d2d061fd054556769ca306","635ab8fc87ce89828e04cd4d","635ac4236142f9ce46d6b4a4","1301","","j","","","","","","","","./tasks/HMM-beads/Images/NewTrialWC.png","practice","5","1","1","2","2","false","","","","","","","","","","","",""
"image-keyboard-response","30","195799","0.0-4.0-4.0-1.0-1.5","60d2d061fd054556769ca306","635ab8fc87ce89828e04cd4d","635ac4236142f9ce46d6b4a4","null","","null","","","","","","","","./tasks/HMM-beads/Images/WhiteBeadChoice.png","","","","","","","","","","","","","","","","","","",""
"image-keyboard-response","31","196312","0.0-4.0-4.0-1.0-2.5","60d2d061fd054556769ca306","635ab8fc87ce89828e04cd4d","635ac4236142f9ce46d6b4a4","null","","null","","","","","","","","./tasks/HMM-beads/Images/WhiteBeadChoiceWrong.png","","","","","","","","","","","","","","","","","","",""
"image-keyboard-response","32","196816","0.0-4.0-4.0-1.0-0.6","60d2d061fd054556769ca306","635ab8fc87ce89828e04cd4d","635ac4236142f9ce46d6b4a4","503","","f","","","","","","","","./tasks/HMM-beads/Images/NewTrialBC.png","practice","6","1","2","1","1","false","","","","","","","","","","","",""
"image-keyboard-response","33","197123","0.0-4.0-4.0-1.0-1.6","60d2d061fd054556769ca306","635ab8fc87ce89828e04cd4d","635ac4236142f9ce46d6b4a4","null","","null","","","","","","","","./tasks/HMM-beads/Images/BlackBeadChoice.png","","","","","","","","","","","","","","","","","","",""
"image-keyboard-response","34","197636","0.0-4.0-4.0-1.0-2.6","60d2d061fd054556769ca306","635ab8fc87ce89828e04cd4d","635ac4236142f9ce46d6b4a4","null","","null","","","","","","","","./tasks/HMM-beads/Images/BlackBeadChoiceWrong.png","","","","","","","","","","","","","","","","","","",""
"image-keyboard-response","35","198961","0.0-4.0-4.0-1.0-0.7","60d2d061fd054556769ca306","635ab8fc87ce89828e04cd4d","635ac4236142f9ce46d6b4a4","1324","","j","","","","","","","","./tasks/HMM-beads/Images/NewTrialWC.png","practice","7","1","1","2","2","false","","","","","","","","","","","",""
"image-keyboard-response","36","199270","0.0-4.0-4.0-1.0-1.7","60d2d061fd054556769ca306","635ab8fc87ce89828e04cd4d","635ac4236142f9ce46d6b4a4","null","","null","","","","","","","","./tasks/HMM-beads/Images/WhiteBeadChoice.png","","","","","","","","","","","","","","","","","","",""
"image-keyboard-response","37","199784","0.0-4.0-4.0-1.0-2.7","60d2d061fd054556769ca306","635ab8fc87ce89828e04cd4d","635ac4236142f9ce46d6b4a4","null","","null","","","","","","","","./tasks/HMM-beads/Images/WhiteBeadChoiceWrong.png","","","","","","","","","","","","","","","","","","",""
"image-keyboard-response","38","202450","0.0-4.0-4.0-1.0-0.8","60d2d061fd054556769ca306","635ab8fc87ce89828e04cd4d","635ac4236142f9ce46d6b4a4","2664","","f","","","","","","","","./tasks/HMM-beads/Images/NewTrialBC.png","practice","8","1","1","1","1","true","","","","","","","","","","","",""
"image-keyboard-response","39","202759","0.0-4.0-4.0-1.0-1.8","60d2d061fd054556769ca306","635ab8fc87ce89828e04cd4d","635ac4236142f9ce46d6b4a4","null","","null","","","","","","","","./tasks/HMM-beads/Images/BlackBeadChoice.png","","","","","","","","","","","","","","","","","","",""
"image-keyboard-response","40","203272","0.0-4.0-4.0-1.0-2.8","60d2d061fd054556769ca306","635ab8fc87ce89828e04cd4d","635ac4236142f9ce46d6b4a4","null","","null","","","","","","","","./tasks/HMM-beads/Images/BlackBeadChoiceCorrect.png","","","","","","","","","","","","","","","","","","",""
"image-keyboard-response","41","204296","0.0-4.0-4.0-1.0-0.9","60d2d061fd054556769ca306","635ab8fc87ce89828e04cd4d","635ac4236142f9ce46d6b4a4","1024","","f","","","","","","","","./tasks/HMM-beads/Images/NewTrialBC.png","practice","9","2","2","1","1","false","","","","","","","","","","","",""
"image-keyboard-response","42","204606","0.0-4.0-4.0-1.0-1.9","60d2d061fd054556769ca306","635ab8fc87ce89828e04cd4d","635ac4236142f9ce46d6b4a4","null","","null","","","","","","","","./tasks/HMM-beads/Images/BlackBeadChoice.png","","","","","","","","","","","","","","","","","","",""
"image-keyboard-response","43","205117","0.0-4.0-4.0-1.0-2.9","60d2d061fd054556769ca306","635ab8fc87ce89828e04cd4d","635ac4236142f9ce46d6b4a4","null","","null","","","","","","","","./tasks/HMM-beads/Images/BlackBeadChoiceWrong.png","","","","","","","","","","","","","","","","","","",""
"image-keyboard-response","44","206953","0.0-4.0-4.0-1.0-0.10","60d2d061fd054556769ca306","635ab8fc87ce89828e04cd4d","635ac4236142f9ce46d6b4a4","1835","","j","","","","","","","","./tasks/HMM-beads/Images/NewTrialWC.png","practice","10","2","1","2","2","false","","","","","","","","","","","",""
"image-keyboard-response","45","207256","0.0-4.0-4.0-1.0-1.10","60d2d061fd054556769ca306","635ab8fc87ce89828e04cd4d","635ac4236142f9ce46d6b4a4","null","","null","","","","","","","","./tasks/HMM-beads/Images/WhiteBeadChoice.png","","","","","","","","","","","","","","","","","","",""
"image-keyboard-response","46","207770","0.0-4.0-4.0-1.0-2.10","60d2d061fd054556769ca306","635ab8fc87ce89828e04cd4d","635ac4236142f9ce46d6b4a4","null","","null","","","","","","","","./tasks/HMM-beads/Images/WhiteBeadChoiceWrong.png","","","","","","","","","","","","","","","","","","",""
"image-keyboard-response","47","208393","0.0-4.0-4.0-1.0-0.11","60d2d061fd054556769ca306","635ab8fc87ce89828e04cd4d","635ac4236142f9ce46d6b4a4","622","","f","","","","","","","","./tasks/HMM-beads/Images/NewTrialBC.png","practice","11","2","2","1","1","false","","","","","","","","","","","",""
"image-keyboard-response","48","208703","0.0-4.0-4.0-1.0-1.11","60d2d061fd054556769ca306","635ab8fc87ce89828e04cd4d","635ac4236142f9ce46d6b4a4","null","","null","","","","","","","","./tasks/HMM-beads/Images/BlackBeadChoice.png","","","","","","","","","","","","","","","","","","",""
"image-keyboard-response","49","209217","0.0-4.0-4.0-1.0-2.11","60d2d061fd054556769ca306","635ab8fc87ce89828e04cd4d","635ac4236142f9ce46d6b4a4","null","","null","","","","","","","","./tasks/HMM-beads/Images/BlackBeadChoiceWrong.png","","","","","","","","","","","","","","","","","","",""
"image-keyboard-response","50","209777","0.0-4.0-4.0-1.0-0.12","60d2d061fd054556769ca306","635ab8fc87ce89828e04cd4d","635ac4236142f9ce46d6b4a4","559","","j","","","","","","","","./tasks/HMM-beads/Images/NewTrialWC.png","practice","12","2","2","2","2","true","","","","","","","","","","","",""
"image-keyboard-response","51","210087","0.0-4.0-4.0-1.0-1.12","60d2d061fd054556769ca306","635ab8fc87ce89828e04cd4d","635ac4236142f9ce46d6b4a4","null","","null","","","","","","","","./tasks/HMM-beads/Images/WhiteBeadChoice.png","","","","","","","","","","","","","","","","","","",""
"image-keyboard-response","52","210600","0.0-4.0-4.0-1.0-2.12","60d2d061fd054556769ca306","635ab8fc87ce89828e04cd4d","635ac4236142f9ce46d6b4a4","null","","null","","","","","","","","./tasks/HMM-beads/Images/WhiteBeadChoiceCorrect.png","","","","","","","","","","","","","","","","","","",""
"image-keyboard-response","53","211035","0.0-4.0-4.0-1.0-0.13","60d2d061fd054556769ca306","635ab8fc87ce89828e04cd4d","635ac4236142f9ce46d6b4a4","433","","j","","","","","","","","./tasks/HMM-beads/Images/NewTrialWC.png","practice","13","2","2","2","2","true","","","","","","","","","","","",""
"image-keyboard-response","54","211343","0.0-4.0-4.0-1.0-1.13","60d2d061fd054556769ca306","635ab8fc87ce89828e04cd4d","635ac4236142f9ce46d6b4a4","null","","null","","","","","","","","./tasks/HMM-beads/Images/WhiteBeadChoice.png","","","","","","","","","","","","","","","","","","",""
"image-keyboard-response","55","211851","0.0-4.0-4.0-1.0-2.13","60d2d061fd054556769ca306","635ab8fc87ce89828e04cd4d","635ac4236142f9ce46d6b4a4","null","","null","","","","","","","","./tasks/HMM-beads/Images/WhiteBeadChoiceCorrect.png","","","","","","","","","","","","","","","","","","",""
"image-keyboard-response","56","217967","0.0-4.0-4.0-1.0-0.14","60d2d061fd054556769ca306","635ab8fc87ce89828e04cd4d","635ac4236142f9ce46d6b4a4","6115","","j","","","","","","","","./tasks/HMM-beads/Images/NewTrialWC.png","practice","14","2","2","2","2","true","","","","","","","","","","","",""
"image-keyboard-response","57","218276","0.0-4.0-4.0-1.0-1.14","60d2d061fd054556769ca306","635ab8fc87ce89828e04cd4d","635ac4236142f9ce46d6b4a4","null","","null","","","","","","","","./tasks/HMM-beads/Images/WhiteBeadChoice.png","","","","","","","","","","","","","","","","","","",""
"image-keyboard-response","58","218789","0.0-4.0-4.0-1.0-2.14","60d2d061fd054556769ca306","635ab8fc87ce89828e04cd4d","635ac4236142f9ce46d6b4a4","null","","null","","","","","","","","./tasks/HMM-beads/Images/WhiteBeadChoiceCorrect.png","","","","","","","","","","","","","","","","","","",""
"image-keyboard-response","59","219181","0.0-4.0-4.0-1.0-0.15","60d2d061fd054556769ca306","635ab8fc87ce89828e04cd4d","635ac4236142f9ce46d6b4a4","391","","j","","","","","","","","./tasks/HMM-beads/Images/NewTrialWC.png","practice","15","1","1","2","2","false","","","","","","","","","","","",""
"image-keyboard-response","60","219488","0.0-4.0-4.0-1.0-1.15","60d2d061fd054556769ca306","635ab8fc87ce89828e04cd4d","635ac4236142f9ce46d6b4a4","null","","null","","","","","","","","./tasks/HMM-beads/Images/WhiteBeadChoice.png","","","","","","","","","","","","","","","","","","",""
"image-keyboard-response","61","220001","0.0-4.0-4.0-1.0-2.15","60d2d061fd054556769ca306","635ab8fc87ce89828e04cd4d","635ac4236142f9ce46d6b4a4","null","","null","","","","","","","","./tasks/HMM-beads/Images/WhiteBeadChoiceWrong.png","","","","","","","","","","","","","","","","","","",""
"image-keyboard-response","62","222263","0.0-4.0-4.0-1.0-0.16","60d2d061fd054556769ca306","635ab8fc87ce89828e04cd4d","635ac4236142f9ce46d6b4a4","2261","","f","","","","","","","","./tasks/HMM-beads/Images/NewTrialBC.png","practice","16","1","2","1","1","false","","","","","","","","","","","",""
"image-keyboard-response","63","222575","0.0-4.0-4.0-1.0-1.16","60d2d061fd054556769ca306","635ab8fc87ce89828e04cd4d","635ac4236142f9ce46d6b4a4","null","","null","","","","","","","","./tasks/HMM-beads/Images/BlackBeadChoice.png","","","","","","","","","","","","","","","","","","",""
"image-keyboard-response","64","223082","0.0-4.0-4.0-1.0-2.16","60d2d061fd054556769ca306","635ab8fc87ce89828e04cd4d","635ac4236142f9ce46d6b4a4","null","","null","","","","","","","","./tasks/HMM-beads/Images/BlackBeadChoiceWrong.png","","","","","","","","","","","","","","","","","","",""
"image-keyboard-response","65","224060","0.0-4.0-4.0-1.0-0.17","60d2d061fd054556769ca306","635ab8fc87ce89828e04cd4d","635ac4236142f9ce46d6b4a4","977","","j","","","","","","","","./tasks/HMM-beads/Images/NewTrialWC.png","practice","17","1","1","2","2","false","","","","","","","","","","","",""
"image-keyboard-response","66","224367","0.0-4.0-4.0-1.0-1.17","60d2d061fd054556769ca306","635ab8fc87ce89828e04cd4d","635ac4236142f9ce46d6b4a4","null","","null","","","","","","","","./tasks/HMM-beads/Images/WhiteBeadChoice.png","","","","","","","","","","","","","","","","","","",""
"image-keyboard-response","67","224881","0.0-4.0-4.0-1.0-2.17","60d2d061fd054556769ca306","635ab8fc87ce89828e04cd4d","635ac4236142f9ce46d6b4a4","null","","null","","","","","","","","./tasks/HMM-beads/Images/WhiteBeadChoiceWrong.png","","","","","","","","","","","","","","","","","","",""
"image-keyboard-response","68","225271","0.0-4.0-4.0-1.0-0.18","60d2d061fd054556769ca306","635ab8fc87ce89828e04cd4d","635ac4236142f9ce46d6b4a4","389","","f","","","","","","","","./tasks/HMM-beads/Images/NewTrialBC.png","practice","18","1","1","1","1","true","","","","","","","","","","","",""
"image-keyboard-response","69","225582","0.0-4.0-4.0-1.0-1.18","60d2d061fd054556769ca306","635ab8fc87ce89828e04cd4d","635ac4236142f9ce46d6b4a4","null","","null","","","","","","","","./tasks/HMM-beads/Images/BlackBeadChoice.png","","","","","","","","","","","","","","","","","","",""
"image-keyboard-response","70","226094","0.0-4.0-4.0-1.0-2.18","60d2d061fd054556769ca306","635ab8fc87ce89828e04cd4d","635ac4236142f9ce46d6b4a4","null","","null","","","","","","","","./tasks/HMM-beads/Images/BlackBeadChoiceCorrect.png","","","","","","","","","","","","","","","","","","",""
"image-keyboard-response","71","226593","0.0-4.0-4.0-1.0-0.19","60d2d061fd054556769ca306","635ab8fc87ce89828e04cd4d","635ac4236142f9ce46d6b4a4","491","","f","","","","","","","","./tasks/HMM-beads/Images/NewTrialBC.png","practice","19","1","1","1","1","true","","","","","","","","","","","",""
"image-keyboard-response","72","226903","0.0-4.0-4.0-1.0-1.19","60d2d061fd054556769ca306","635ab8fc87ce89828e04cd4d","635ac4236142f9ce46d6b4a4","null","","null","","","","","","","","./tasks/HMM-beads/Images/BlackBeadChoice.png","","","","","","","","","","","","","","","","","","",""
"image-keyboard-response","73","227414","0.0-4.0-4.0-1.0-2.19","60d2d061fd054556769ca306","635ab8fc87ce89828e04cd4d","635ac4236142f9ce46d6b4a4","null","","null","","","","","","","","./tasks/HMM-beads/Images/BlackBeadChoiceCorrect.png","","","","","","","","","","","","","","","","","","",""
"html-keyboard-response","74","230552","0.0-4.0-4.0-2.0","60d2d061fd054556769ca306","635ab8fc87ce89828e04cd4d","635ac4236142f9ce46d6b4a4","3136",""," ","","","","","","","","","","","","","","","","","","","","","","","","","","",""
"instructions","75","251260","0.0-4.0-5.0","60d2d061fd054556769ca306","635ab8fc87ce89828e04cd4d","635ac4236142f9ce46d6b4a4","20708","","","","[{""page_index"":0,""viewing_time"":16629},{""page_index"":1,""viewing_time"":4077}]","","","","","","","","","","","","","","","","","","","","","","","","",""
"html-keyboard-response","76","257989","0.0-4.0-6.0-0.0","60d2d061fd054556769ca306","635ab8fc87ce89828e04cd4d","635ac4236142f9ce46d6b4a4","6728",""," ","","","","","","","","<div align=center>In this block, there will be a <b>1% chance</b> that the jar on the next trial will be different from the jar on the current trial.<br><br></div>","","","","","","","","","","","","","","","","","","",""
"image-keyboard-response","77","262729","0.0-4.0-6.0-1.0-0.0","60d2d061fd054556769ca306","635ab8fc87ce89828e04cd4d","635ac4236142f9ce46d6b4a4","4738","","j","","","","","","","","./tasks/HMM-beads/Images/NoChoice.png","lowH","0","2","2","0","2","true","","","","","","","","","","","",""
"image-keyboard-response","78","263038","0.0-4.0-6.0-1.0-1.0","60d2d061fd054556769ca306","635ab8fc87ce89828e04cd4d","635ac4236142f9ce46d6b4a4","null","","null","","","","","","","","./tasks/HMM-beads/Images/WhiteBeadChoice.png","","","","","","","","","","","","","","","","","","",""
"image-keyboard-response","79","263549","0.0-4.0-6.0-1.0-2.0","60d2d061fd054556769ca306","635ab8fc87ce89828e04cd4d","635ac4236142f9ce46d6b4a4","null","","null","","","","","","","","./tasks/HMM-beads/Images/WhiteBeadChoiceCorrect.png","","","","","","","","","","","","","","","","","","",""
"image-keyboard-response","80","268748","0.0-4.0-6.0-1.0-0.1","60d2d061fd054556769ca306","635ab8fc87ce89828e04cd4d","635ac4236142f9ce46d6b4a4","5198","","j","","","","","","","","./tasks/HMM-beads/Images/NewTrialWC.png","lowH","1","2","2","2","2","true","","","","","","","","","","","",""
"image-keyboard-response","81","269050","0.0-4.0-6.0-1.0-1.1","60d2d061fd054556769ca306","635ab8fc87ce89828e04cd4d","635ac4236142f9ce46d6b4a4","null","","null","","","","","","","","./tasks/HMM-beads/Images/WhiteBeadChoice.png","","","","","","","","","","","","","","","","","","",""
"image-keyboard-response","82","269561","0.0-4.0-6.0-1.0-2.1","60d2d061fd054556769ca306","635ab8fc87ce89828e04cd4d","635ac4236142f9ce46d6b4a4","null","","null","","","","","","","","./tasks/HMM-beads/Images/WhiteBeadChoiceCorrect.png","","","","","","","","","","","","","","","","","","",""
"image-keyboard-response","83","270426","0.0-4.0-6.0-1.0-0.2","60d2d061fd054556769ca306","635ab8fc87ce89828e04cd4d","635ac4236142f9ce46d6b4a4","864","","j","","","","","","","","./tasks/HMM-beads/Images/NewTrialWC.png","lowH","2","2","2","2","2","true","","","","","","","","","","","",""
"image-keyboard-response","84","270743","0.0-4.0-6.0-1.0-1.2","60d2d061fd054556769ca306","635ab8fc87ce89828e04cd4d","635ac4236142f9ce46d6b4a4","null","","null","","","","","","","","./tasks/HMM-beads/Images/WhiteBeadChoice.png","","","","","","","","","","","","","","","","","","",""
"image-keyboard-response","85","271253","0.0-4.0-6.0-1.0-2.2","60d2d061fd054556769ca306","635ab8fc87ce89828e04cd4d","635ac4236142f9ce46d6b4a4","null","","null","","","","","","","","./tasks/HMM-beads/Images/WhiteBeadChoiceCorrect.png","","","","","","","","","","","","","","","","","","",""
"image-keyboard-response","86","272169","0.0-4.0-6.0-1.0-0.3","60d2d061fd054556769ca306","635ab8fc87ce89828e04cd4d","635ac4236142f9ce46d6b4a4","915","","j","","","","","","","","./tasks/HMM-beads/Images/NewTrialWC.png","lowH","3","2","2","2","2","true","","","","","","","","","","","",""
"image-keyboard-response","87","272491","0.0-4.0-6.0-1.0-1.3","60d2d061fd054556769ca306","635ab8fc87ce89828e04cd4d","635ac4236142f9ce46d6b4a4","null","","null","","","","","","","","./tasks/HMM-beads/Images/WhiteBeadChoice.png","","","","","","","","","","","","","","","","","","",""
"image-keyboard-response","88","273006","0.0-4.0-6.0-1.0-2.3","60d2d061fd054556769ca306","635ab8fc87ce89828e04cd4d","635ac4236142f9ce46d6b4a4","null","","null","","","","","","","","./tasks/HMM-beads/Images/WhiteBeadChoiceCorrect.png","","","","","","","","","","","","","","","","","","",""
"image-keyboard-response","89","273772","0.0-4.0-6.0-1.0-0.4","60d2d061fd054556769ca306","635ab8fc87ce89828e04cd4d","635ac4236142f9ce46d6b4a4","765","","j","","","","","","","","./tasks/HMM-beads/Images/NewTrialWC.png","lowH","4","2","1","2","2","false","","","","","","","","","","","",""
"image-keyboard-response","90","274080","0.0-4.0-6.0-1.0-1.4","60d2d061fd054556769ca306","635ab8fc87ce89828e04cd4d","635ac4236142f9ce46d6b4a4","null","","null","","","","","","","","./tasks/HMM-beads/Images/WhiteBeadChoice.png","","","","","","","","","","","","","","","","","","",""
"image-keyboard-response","91","274594","0.0-4.0-6.0-1.0-2.4","60d2d061fd054556769ca306","635ab8fc87ce89828e04cd4d","635ac4236142f9ce46d6b4a4","null","","null","","","","","","","","./tasks/HMM-beads/Images/WhiteBeadChoiceWrong.png","","","","","","","","","","","","","","","","","","",""
"image-keyboard-response","92","282454","0.0-4.0-6.0-1.0-0.5","60d2d061fd054556769ca306","635ab8fc87ce89828e04cd4d","635ac4236142f9ce46d6b4a4","7858","","f","","","","","","","","./tasks/HMM-beads/Images/NewTrialBC.png","lowH","5","2","2","1","1","false","","","","","","","","","","","",""
"image-keyboard-response","93","282770","0.0-4.0-6.0-1.0-1.5","60d2d061fd054556769ca306","635ab8fc87ce89828e04cd4d","635ac4236142f9ce46d6b4a4","null","","null","","","","","","","","./tasks/HMM-beads/Images/BlackBeadChoice.png","","","","","","","","","","","","","","","","","","",""
"image-keyboard-response","94","283283","0.0-4.0-6.0-1.0-2.5","60d2d061fd054556769ca306","635ab8fc87ce89828e04cd4d","635ac4236142f9ce46d6b4a4","null","","null","","","","","","","","./tasks/HMM-beads/Images/BlackBeadChoiceWrong.png","","","","","","","","","","","","","","","","","","",""
"image-keyboard-response","95","284669","0.0-4.0-6.0-1.0-0.6","60d2d061fd054556769ca306","635ab8fc87ce89828e04cd4d","635ac4236142f9ce46d6b4a4","1385","","j","","","","","","","","./tasks/HMM-beads/Images/NewTrialWC.png","lowH","6","2","2","2","2","true","","","","","","","","","","","",""
"image-keyboard-response","96","284978","0.0-4.0-6.0-1.0-1.6","60d2d061fd054556769ca306","635ab8fc87ce89828e04cd4d","635ac4236142f9ce46d6b4a4","null","","null","","","","","","","","./tasks/HMM-beads/Images/WhiteBeadChoice.png","","","","","","","","","","","","","","","","","","",""
"image-keyboard-response","97","285490","0.0-4.0-6.0-1.0-2.6","60d2d061fd054556769ca306","635ab8fc87ce89828e04cd4d","635ac4236142f9ce46d6b4a4","null","","null","","","","","","","","./tasks/HMM-beads/Images/WhiteBeadChoiceCorrect.png","","","","","","","","","","","","","","","","","","",""
"image-keyboard-response","98","286002","0.0-4.0-6.0-1.0-0.7","60d2d061fd054556769ca306","635ab8fc87ce89828e04cd4d","635ac4236142f9ce46d6b4a4","511","","j","","","","","","","","./tasks/HMM-beads/Images/NewTrialWC.png","lowH","7","2","2","2","2","true","","","","","","","","","","","",""
"image-keyboard-response","99","286306","0.0-4.0-6.0-1.0-1.7","60d2d061fd054556769ca306","635ab8fc87ce89828e04cd4d","635ac4236142f9ce46d6b4a4","null","","null","","","","","","","","./tasks/HMM-beads/Images/WhiteBeadChoice.png","","","","","","","","","","","","","","","","","","",""
"image-keyboard-response","100","286815","0.0-4.0-6.0-1.0-2.7","60d2d061fd054556769ca306","635ab8fc87ce89828e04cd4d","635ac4236142f9ce46d6b4a4","null","","null","","","","","","","","./tasks/HMM-beads/Images/WhiteBeadChoiceCorrect.png","","","","","","","","","","","","","","","","","","",""
"image-keyboard-response","101","287126","0.0-4.0-6.0-1.0-0.8","60d2d061fd054556769ca306","635ab8fc87ce89828e04cd4d","635ac4236142f9ce46d6b4a4","310","","j","","","","","","","","./tasks/HMM-beads/Images/NewTrialWC.png","lowH","8","2","2","2","2","true","","","","","","","","","","","",""
"image-keyboard-response","102","287433","0.0-4.0-6.0-1.0-1.8","60d2d061fd054556769ca306","635ab8fc87ce89828e04cd4d","635ac4236142f9ce46d6b4a4","null","","null","","","","","","","","./tasks/HMM-beads/Images/WhiteBeadChoice.png","","","","","","","","","","","","","","","","","","",""
"image-keyboard-response","103","287947","0.0-4.0-6.0-1.0-2.8","60d2d061fd054556769ca306","635ab8fc87ce89828e04cd4d","635ac4236142f9ce46d6b4a4","null","","null","","","","","","","","./tasks/HMM-beads/Images/WhiteBeadChoiceCorrect.png","","","","","","","","","","","","","","","","","","",""
"image-keyboard-response","104","288304","0.0-4.0-6.0-1.0-0.9","60d2d061fd054556769ca306","635ab8fc87ce89828e04cd4d","635ac4236142f9ce46d6b4a4","355","","j","","","","","","","","./tasks/HMM-beads/Images/NewTrialWC.png","lowH","9","2","2","2","2","true","","","","","","","","","","","",""
"image-keyboard-response","105","288611","0.0-4.0-6.0-1.0-1.9","60d2d061fd054556769ca306","635ab8fc87ce89828e04cd4d","635ac4236142f9ce46d6b4a4","null","","null","","","","","","","","./tasks/HMM-beads/Images/WhiteBeadChoice.png","","","","","","","","","","","","","","","","","","",""
"image-keyboard-response","106","289123","0.0-4.0-6.0-1.0-2.9","60d2d061fd054556769ca306","635ab8fc87ce89828e04cd4d","635ac4236142f9ce46d6b4a4","null","","null","","","","","","","","./tasks/HMM-beads/Images/WhiteBeadChoiceCorrect.png","","","","","","","","","","","","","","","","","","",""
"image-keyboard-response","107","289404","0.0-4.0-6.0-1.0-0.10","60d2d061fd054556769ca306","635ab8fc87ce89828e04cd4d","635ac4236142f9ce46d6b4a4","280","","j","","","","","","","","./tasks/HMM-beads/Images/NewTrialWC.png","lowH","10","2","2","2","2","true","","","","","","","","","","","",""
"image-keyboard-response","108","289714","0.0-4.0-6.0-1.0-1.10","60d2d061fd054556769ca306","635ab8fc87ce89828e04cd4d","635ac4236142f9ce46d6b4a4","null","","null","","","","","","","","./tasks/HMM-beads/Images/WhiteBeadChoice.png","","","","","","","","","","","","","","","","","","",""
"image-keyboard-response","109","290228","0.0-4.0-6.0-1.0-2.10","60d2d061fd054556769ca306","635ab8fc87ce89828e04cd4d","635ac4236142f9ce46d6b4a4","null","","null","","","","","","","","./tasks/HMM-beads/Images/WhiteBeadChoiceCorrect.png","","","","","","","","","","","","","","","","","","",""
"image-keyboard-response","110","290526","0.0-4.0-6.0-1.0-0.11","60d2d061fd054556769ca306","635ab8fc87ce89828e04cd4d","635ac4236142f9ce46d6b4a4","296","","j","","","","","","","","./tasks/HMM-beads/Images/NewTrialWC.png","lowH","11","2","2","2","2","true","","","","","","","","","","","",""
"image-keyboard-response","111","290835","0.0-4.0-6.0-1.0-1.11","60d2d061fd054556769ca306","635ab8fc87ce89828e04cd4d","635ac4236142f9ce46d6b4a4","null","","null","","","","","","","","./tasks/HMM-beads/Images/WhiteBeadChoice.png","","","","","","","","","","","","","","","","","","",""
"image-keyboard-response","112","291348","0.0-4.0-6.0-1.0-2.11","60d2d061fd054556769ca306","635ab8fc87ce89828e04cd4d","635ac4236142f9ce46d6b4a4","null","","null","","","","","","","","./tasks/HMM-beads/Images/WhiteBeadChoiceCorrect.png","","","","","","","","","","","","","","","","","","",""
"image-keyboard-response","113","291599","0.0-4.0-6.0-1.0-0.12","60d2d061fd054556769ca306","635ab8fc87ce89828e04cd4d","635ac4236142f9ce46d6b4a4","250","","j","","","","","","","","./tasks/HMM-beads/Images/NewTrialWC.png","lowH","12","2","2","2","2","true","","","","","","","","","","","",""
"image-keyboard-response","114","291907","0.0-4.0-6.0-1.0-1.12","60d2d061fd054556769ca306","635ab8fc87ce89828e04cd4d","635ac4236142f9ce46d6b4a4","null","","null","","","","","","","","./tasks/HMM-beads/Images/WhiteBeadChoice.png","","","","","","","","","","","","","","","","","","",""
"image-keyboard-response","115","292418","0.0-4.0-6.0-1.0-2.12","60d2d061fd054556769ca306","635ab8fc87ce89828e04cd4d","635ac4236142f9ce46d6b4a4","null","","null","","","","","","","","./tasks/HMM-beads/Images/WhiteBeadChoiceCorrect.png","","","","","","","","","","","","","","","","","","",""
"image-keyboard-response","116","292715","0.0-4.0-6.0-1.0-0.13","60d2d061fd054556769ca306","635ab8fc87ce89828e04cd4d","635ac4236142f9ce46d6b4a4","295","","j","","","","","","","","./tasks/HMM-beads/Images/NewTrialWC.png","lowH","13","2","2","2","2","true","","","","","","","","","","","",""
"image-keyboard-response","117","293023","0.0-4.0-6.0-1.0-1.13","60d2d061fd054556769ca306","635ab8fc87ce89828e04cd4d","635ac4236142f9ce46d6b4a4","null","","null","","","","","","","","./tasks/HMM-beads/Images/WhiteBeadChoice.png","","","","","","","","","","","","","","","","","","",""
"image-keyboard-response","118","293537","0.0-4.0-6.0-1.0-2.13","60d2d061fd054556769ca306","635ab8fc87ce89828e04cd4d","635ac4236142f9ce46d6b4a4","null","","null","","","","","","","","./tasks/HMM-beads/Images/WhiteBeadChoiceCorrect.png","","","","","","","","","","","","","","","","","","",""
"image-keyboard-response","119","293801","0.0-4.0-6.0-1.0-0.14","60d2d061fd054556769ca306","635ab8fc87ce89828e04cd4d","635ac4236142f9ce46d6b4a4","263","","j","","","","","","","","./tasks/HMM-beads/Images/NewTrialWC.png","lowH","14","2","2","2","2","true","","","","","","","","","","","",""
"image-keyboard-response","120","294108","0.0-4.0-6.0-1.0-1.14","60d2d061fd054556769ca306","635ab8fc87ce89828e04cd4d","635ac4236142f9ce46d6b4a4","null","","null","","","","","","","","./tasks/HMM-beads/Images/WhiteBeadChoice.png","","","","","","","","","","","","","","","","","","",""
"image-keyboard-response","121","294621","0.0-4.0-6.0-1.0-2.14","60d2d061fd054556769ca306","635ab8fc87ce89828e04cd4d","635ac4236142f9ce46d6b4a4","null","","null","","","","","","","","./tasks/HMM-beads/Images/WhiteBeadChoiceCorrect.png","","","","","","","","","","","","","","","","","","",""
"image-keyboard-response","122","294873","0.0-4.0-6.0-1.0-0.15","60d2d061fd054556769ca306","635ab8fc87ce89828e04cd4d","635ac4236142f9ce46d6b4a4","251","","j","","","","","","","","./tasks/HMM-beads/Images/NewTrialWC.png","lowH","15","2","1","2","2","false","","","","","","","","","","","",""
"image-keyboard-response","123","295185","0.0-4.0-6.0-1.0-1.15","60d2d061fd054556769ca306","635ab8fc87ce89828e04cd4d","635ac4236142f9ce46d6b4a4","null","","null","","","","","","","","./tasks/HMM-beads/Images/WhiteBeadChoice.png","","","","","","","","","","","","","","","","","","",""
"image-keyboard-response","124","295697","0.0-4.0-6.0-1.0-2.15","60d2d061fd054556769ca306","635ab8fc87ce89828e04cd4d","635ac4236142f9ce46d6b4a4","null","","null","","","","","","","","./tasks/HMM-beads/Images/WhiteBeadChoiceWrong.png","","","","","","","","","","","","","","","","","","",""
"image-keyboard-response","125","296642","0.0-4.0-6.0-1.0-0.16","60d2d061fd054556769ca306","635ab8fc87ce89828e04cd4d","635ac4236142f9ce46d6b4a4","944","","j","","","","","","","","./tasks/HMM-beads/Images/NewTrialBC.png","lowH","16","2","1","1","2","false","","","","","","","","","","","",""
"image-keyboard-response","126","296954","0.0-4.0-6.0-1.0-1.16","60d2d061fd054556769ca306","635ab8fc87ce89828e04cd4d","635ac4236142f9ce46d6b4a4","null","","null","","","","","","","","./tasks/HMM-beads/Images/WhiteBeadChoice.png","","","","","","","","","","","","","","","","","","",""
"image-keyboard-response","127","297463","0.0-4.0-6.0-1.0-2.16","60d2d061fd054556769ca306","635ab8fc87ce89828e04cd4d","635ac4236142f9ce46d6b4a4","null","","null","","","","","","","","./tasks/HMM-beads/Images/WhiteBeadChoiceWrong.png","","","","","","","","","","","","","","","","","","",""
"image-keyboard-response","128","297855","0.0-4.0-6.0-1.0-0.17","60d2d061fd054556769ca306","635ab8fc87ce89828e04cd4d","635ac4236142f9ce46d6b4a4","390","","j","","","","","","","","./tasks/HMM-beads/Images/NewTrialBC.png","lowH","17","2","2","1","2","true","","","","","","","","","","","",""
"image-keyboard-response","129","298165","0.0-4.0-6.0-1.0-1.17","60d2d061fd054556769ca306","635ab8fc87ce89828e04cd4d","635ac4236142f9ce46d6b4a4","null","","null","","","","","","","","./tasks/HMM-beads/Images/WhiteBeadChoice.png","","","","","","","","","","","","","","","","","","",""
"image-keyboard-response","130","298680","0.0-4.0-6.0-1.0-2.17","60d2d061fd054556769ca306","635ab8fc87ce89828e04cd4d","635ac4236142f9ce46d6b4a4","null","","null","","","","","","","","./tasks/HMM-beads/Images/WhiteBeadChoiceCorrect.png","","","","","","","","","","","","","","","","","","",""
"image-keyboard-response","131","298963","0.0-4.0-6.0-1.0-0.18","60d2d061fd054556769ca306","635ab8fc87ce89828e04cd4d","635ac4236142f9ce46d6b4a4","282","","j","","","","","","","","./tasks/HMM-beads/Images/NewTrialWC.png","lowH","18","2","2","2","2","true","","","","","","","","","","","",""
"image-keyboard-response","132","299271","0.0-4.0-6.0-1.0-1.18","60d2d061fd054556769ca306","635ab8fc87ce89828e04cd4d","635ac4236142f9ce46d6b4a4","null","","null","","","","","","","","./tasks/HMM-beads/Images/WhiteBeadChoice.png","","","","","","","","","","","","","","","","","","",""
"image-keyboard-response","133","299783","0.0-4.0-6.0-1.0-2.18","60d2d061fd054556769ca306","635ab8fc87ce89828e04cd4d","635ac4236142f9ce46d6b4a4","null","","null","","","","","","","","./tasks/HMM-beads/Images/WhiteBeadChoiceCorrect.png","","","","","","","","","","","","","","","","","","",""
"image-keyboard-response","134","300063","0.0-4.0-6.0-1.0-0.19","60d2d061fd054556769ca306","635ab8fc87ce89828e04cd4d","635ac4236142f9ce46d6b4a4","279","","j","","","","","","","","./tasks/HMM-beads/Images/NewTrialWC.png","lowH","19","2","2","2","2","true","","","","","","","","","","","",""
"image-keyboard-response","135","300370","0.0-4.0-6.0-1.0-1.19","60d2d061fd054556769ca306","635ab8fc87ce89828e04cd4d","635ac4236142f9ce46d6b4a4","null","","null","","","","","","","","./tasks/HMM-beads/Images/WhiteBeadChoice.png","","","","","","","","","","","","","","","","","","",""
"image-keyboard-response","136","300885","0.0-4.0-6.0-1.0-2.19","60d2d061fd054556769ca306","635ab8fc87ce89828e04cd4d","635ac4236142f9ce46d6b4a4","null","","null","","","","","","","","./tasks/HMM-beads/Images/WhiteBeadChoiceCorrect.png","","","","","","","","","","","","","","","","","","",""
"image-keyboard-response","137","301181","0.0-4.0-6.0-1.0-0.20","60d2d061fd054556769ca306","635ab8fc87ce89828e04cd4d","635ac4236142f9ce46d6b4a4","287","","j","","","","","","","","./tasks/HMM-beads/Images/NewTrialWC.png","lowH","20","2","2","2","2","true","","","","","","","","","","","",""
"image-keyboard-response","138","301491","0.0-4.0-6.0-1.0-1.20","60d2d061fd054556769ca306","635ab8fc87ce89828e04cd4d","635ac4236142f9ce46d6b4a4","null","","null","","","","","","","","./tasks/HMM-beads/Images/WhiteBeadChoice.png","","","","","","","","","","","","","","","","","","",""
"image-keyboard-response","139","302001","0.0-4.0-6.0-1.0-2.20","60d2d061fd054556769ca306","635ab8fc87ce89828e04cd4d","635ac4236142f9ce46d6b4a4","null","","null","","","","","","","","./tasks/HMM-beads/Images/WhiteBeadChoiceCorrect.png","","","","","","","","","","","","","","","","","","",""
"image-keyboard-response","140","302286","0.0-4.0-6.0-1.0-0.21","60d2d061fd054556769ca306","635ab8fc87ce89828e04cd4d","635ac4236142f9ce46d6b4a4","284","","j","","","","","","","","./tasks/HMM-beads/Images/NewTrialWC.png","lowH","21","2","2","2","2","true","","","","","","","","","","","",""
"image-keyboard-response","141","302595","0.0-4.0-6.0-1.0-1.21","60d2d061fd054556769ca306","635ab8fc87ce89828e04cd4d","635ac4236142f9ce46d6b4a4","null","","null","","","","","","","","./tasks/HMM-beads/Images/WhiteBeadChoice.png","","","","","","","","","","","","","","","","","","",""
"image-keyboard-response","142","303106","0.0-4.0-6.0-1.0-2.21","60d2d061fd054556769ca306","635ab8fc87ce89828e04cd4d","635ac4236142f9ce46d6b4a4","null","","null","","","","","","","","./tasks/HMM-beads/Images/WhiteBeadChoiceCorrect.png","","","","","","","","","","","","","","","","","","",""
"image-keyboard-response","143","303339","0.0-4.0-6.0-1.0-0.22","60d2d061fd054556769ca306","635ab8fc87ce89828e04cd4d","635ac4236142f9ce46d6b4a4","232","","j","","","","","","","","./tasks/HMM-beads/Images/NewTrialWC.png","lowH","22","2","2","2","2","true","","","","","","","","","","","",""
"image-keyboard-response","144","303647","0.0-4.0-6.0-1.0-1.22","60d2d061fd054556769ca306","635ab8fc87ce89828e04cd4d","635ac4236142f9ce46d6b4a4","null","","null","","","","","","","","./tasks/HMM-beads/Images/WhiteBeadChoice.png","","","","","","","","","","","","","","","","","","",""
"image-keyboard-response","145","304160","0.0-4.0-6.0-1.0-2.22","60d2d061fd054556769ca306","635ab8fc87ce89828e04cd4d","635ac4236142f9ce46d6b4a4","null","","null","","","","","","","","./tasks/HMM-beads/Images/WhiteBeadChoiceCorrect.png","","","","","","","","","","","","","","","","","","",""
"image-keyboard-response","146","304439","0.0-4.0-6.0-1.0-0.23","60d2d061fd054556769ca306","635ab8fc87ce89828e04cd4d","635ac4236142f9ce46d6b4a4","278","","j","","","","","","","","./tasks/HMM-beads/Images/NewTrialWC.png","lowH","23","2","2","2","2","true","","","","","","","","","","","",""
"image-keyboard-response","147","304745","0.0-4.0-6.0-1.0-1.23","60d2d061fd054556769ca306","635ab8fc87ce89828e04cd4d","635ac4236142f9ce46d6b4a4","null","","null","","","","","","","","./tasks/HMM-beads/Images/WhiteBeadChoice.png","","","","","","","","","","","","","","","","","","",""
"image-keyboard-response","148","305260","0.0-4.0-6.0-1.0-2.23","60d2d061fd054556769ca306","635ab8fc87ce89828e04cd4d","635ac4236142f9ce46d6b4a4","null","","null","","","","","","","","./tasks/HMM-beads/Images/WhiteBeadChoiceCorrect.png","","","","","","","","","","","","","","","","","","",""
"image-keyboard-response","149","305480","0.0-4.0-6.0-1.0-0.24","60d2d061fd054556769ca306","635ab8fc87ce89828e04cd4d","635ac4236142f9ce46d6b4a4","219","","j","","","","","","","","./tasks/HMM-beads/Images/NewTrialWC.png","lowH","24","2","2","2","2","true","","","","","","","","","","","",""
"image-keyboard-response","150","305790","0.0-4.0-6.0-1.0-1.24","60d2d061fd054556769ca306","635ab8fc87ce89828e04cd4d","635ac4236142f9ce46d6b4a4","null","","null","","","","","","","","./tasks/HMM-beads/Images/WhiteBeadChoice.png","","","","","","","","","","","","","","","","","","",""
"image-keyboard-response","151","306303","0.0-4.0-6.0-1.0-2.24","60d2d061fd054556769ca306","635ab8fc87ce89828e04cd4d","635ac4236142f9ce46d6b4a4","null","","null","","","","","","","","./tasks/HMM-beads/Images/WhiteBeadChoiceCorrect.png","","","","","","","","","","","","","","","","","","",""
"image-keyboard-response","152","306539","0.0-4.0-6.0-1.0-0.25","60d2d061fd054556769ca306","635ab8fc87ce89828e04cd4d","635ac4236142f9ce46d6b4a4","235","","j","","","","","","","","./tasks/HMM-beads/Images/NewTrialWC.png","lowH","25","2","2","2","2","true","","","","","","","","","","","",""
"image-keyboard-response","153","306845","0.0-4.0-6.0-1.0-1.25","60d2d061fd054556769ca306","635ab8fc87ce89828e04cd4d","635ac4236142f9ce46d6b4a4","null","","null","","","","","","","","./tasks/HMM-beads/Images/WhiteBeadChoice.png","","","","","","","","","","","","","","","","","","",""
"image-keyboard-response","154","307360","0.0-4.0-6.0-1.0-2.25","60d2d061fd054556769ca306","635ab8fc87ce89828e04cd4d","635ac4236142f9ce46d6b4a4","null","","null","","","","","","","","./tasks/HMM-beads/Images/WhiteBeadChoiceCorrect.png","","","","","","","","","","","","","","","","","","",""
"image-keyboard-response","155","307470","0.0-4.0-6.0-1.0-0.26","60d2d061fd054556769ca306","635ab8fc87ce89828e04cd4d","635ac4236142f9ce46d6b4a4","109","","j","","","","","","","","./tasks/HMM-beads/Images/NewTrialWC.png","lowH","26","2","2","2","2","true","","","","","","","","","","","",""
"image-keyboard-response","156","307778","0.0-4.0-6.0-1.0-1.26","60d2d061fd054556769ca306","635ab8fc87ce89828e04cd4d","635ac4236142f9ce46d6b4a4","null","","null","","","","","","","","./tasks/HMM-beads/Images/WhiteBeadChoice.png","","","","","","","","","","","","","","","","","","",""
"image-keyboard-response","157","308292","0.0-4.0-6.0-1.0-2.26","60d2d061fd054556769ca306","635ab8fc87ce89828e04cd4d","635ac4236142f9ce46d6b4a4","null","","null","","","","","","","","./tasks/HMM-beads/Images/WhiteBeadChoiceCorrect.png","","","","","","","","","","","","","","","","","","",""
"image-keyboard-response","158","308325","0.0-4.0-6.0-1.0-0.27","60d2d061fd054556769ca306","635ab8fc87ce89828e04cd4d","635ac4236142f9ce46d6b4a4","32","","j","","","","","","","","./tasks/HMM-beads/Images/NewTrialWC.png","lowH","27","2","2","2","2","true","","","","","","","","","","","",""
"image-keyboard-response","159","308633","0.0-4.0-6.0-1.0-1.27","60d2d061fd054556769ca306","635ab8fc87ce89828e04cd4d","635ac4236142f9ce46d6b4a4","null","","null","","","","","","","","./tasks/HMM-beads/Images/WhiteBeadChoice.png","","","","","","","","","","","","","","","","","","",""
"image-keyboard-response","160","309143","0.0-4.0-6.0-1.0-2.27","60d2d061fd054556769ca306","635ab8fc87ce89828e04cd4d","635ac4236142f9ce46d6b4a4","null","","null","","","","","","","","./tasks/HMM-beads/Images/WhiteBeadChoiceCorrect.png","","","","","","","","","","","","","","","","","","",""
"image-keyboard-response","161","309781","0.0-4.0-6.0-1.0-0.28","60d2d061fd054556769ca306","635ab8fc87ce89828e04cd4d","635ac4236142f9ce46d6b4a4","637","","j","","","","","","","","./tasks/HMM-beads/Images/NewTrialWC.png","lowH","28","2","2","2","2","true","","","","","","","","","","","",""
"image-keyboard-response","162","310092","0.0-4.0-6.0-1.0-1.28","60d2d061fd054556769ca306","635ab8fc87ce89828e04cd4d","635ac4236142f9ce46d6b4a4","null","","null","","","","","","","","./tasks/HMM-beads/Images/WhiteBeadChoice.png","","","","","","","","","","","","","","","","","","",""
"image-keyboard-response","163","310604","0.0-4.0-6.0-1.0-2.28","60d2d061fd054556769ca306","635ab8fc87ce89828e04cd4d","635ac4236142f9ce46d6b4a4","null","","null","","","","","","","","./tasks/HMM-beads/Images/WhiteBeadChoiceCorrect.png","","","","","","","","","","","","","","","","","","",""
"image-keyboard-response","164","311086","0.0-4.0-6.0-1.0-0.29","60d2d061fd054556769ca306","635ab8fc87ce89828e04cd4d","635ac4236142f9ce46d6b4a4","480","","j","","","","","","","","./tasks/HMM-beads/Images/NewTrialWC.png","lowH","29","2","1","2","2","false","","","","","","","","","","","",""
"image-keyboard-response","165","311399","0.0-4.0-6.0-1.0-1.29","60d2d061fd054556769ca306","635ab8fc87ce89828e04cd4d","635ac4236142f9ce46d6b4a4","null","","null","","","","","","","","./tasks/HMM-beads/Images/WhiteBeadChoice.png","","","","","","","","","","","","","","","","","","",""
"image-keyboard-response","166","311914","0.0-4.0-6.0-1.0-2.29","60d2d061fd054556769ca306","635ab8fc87ce89828e04cd4d","635ac4236142f9ce46d6b4a4","null","","null","","","","","","","","./tasks/HMM-beads/Images/WhiteBeadChoiceWrong.png","","","","","","","","","","","","","","","","","","",""
"image-keyboard-response","167","312430","0.0-4.0-6.0-1.0-0.30","60d2d061fd054556769ca306","635ab8fc87ce89828e04cd4d","635ac4236142f9ce46d6b4a4","515","","j","","","","","","","","./tasks/HMM-beads/Images/NewTrialBC.png","lowH","30","2","2","1","2","true","","","","","","","","","","","",""
"image-keyboard-response","168","312738","0.0-4.0-6.0-1.0-1.30","60d2d061fd054556769ca306","635ab8fc87ce89828e04cd4d","635ac4236142f9ce46d6b4a4","null","","null","","","","","","","","./tasks/HMM-beads/Images/WhiteBeadChoice.png","","","","","","","","","","","","","","","","","","",""
"image-keyboard-response","169","313246","0.0-4.0-6.0-1.0-2.30","60d2d061fd054556769ca306","635ab8fc87ce89828e04cd4d","635ac4236142f9ce46d6b4a4","null","","null","","","","","","","","./tasks/HMM-beads/Images/WhiteBeadChoiceCorrect.png","","","","","","","","","","","","","","","","","","",""
"image-keyboard-response","170","313747","0.0-4.0-6.0-1.0-0.31","60d2d061fd054556769ca306","635ab8fc87ce89828e04cd4d","635ac4236142f9ce46d6b4a4","499","","j","","","","","","","","./tasks/HMM-beads/Images/NewTrialWC.png","lowH","31","2","1","2","2","false","","","","","","","","","","","",""
"image-keyboard-response","171","314053","0.0-4.0-6.0-1.0-1.31","60d2d061fd054556769ca306","635ab8fc87ce89828e04cd4d","635ac4236142f9ce46d6b4a4","null","","null","","","","","","","","./tasks/HMM-beads/Images/WhiteBeadChoice.png","","","","","","","","","","","","","","","","","","",""
"image-keyboard-response","172","314564","0.0-4.0-6.0-1.0-2.31","60d2d061fd054556769ca306","635ab8fc87ce89828e04cd4d","635ac4236142f9ce46d6b4a4","null","","null","","","","","","","","./tasks/HMM-beads/Images/WhiteBeadChoiceWrong.png","","","","","","","","","","","","","","","","","","",""
"image-keyboard-response","173","314690","0.0-4.0-6.0-1.0-0.32","60d2d061fd054556769ca306","635ab8fc87ce89828e04cd4d","635ac4236142f9ce46d6b4a4","125","","j","","","","","","","","./tasks/HMM-beads/Images/NewTrialBC.png","lowH","32","2","2","1","2","true","","","","","","","","","","","",""
"image-keyboard-response","174","315000","0.0-4.0-6.0-1.0-1.32","60d2d061fd054556769ca306","635ab8fc87ce89828e04cd4d","635ac4236142f9ce46d6b4a4","null","","null","","","","","","","","./tasks/HMM-beads/Images/WhiteBeadChoice.png","","","","","","","","","","","","","","","","","","",""
"image-keyboard-response","175","315513","0.0-4.0-6.0-1.0-2.32","60d2d061fd054556769ca306","635ab8fc87ce89828e04cd4d","635ac4236142f9ce46d6b4a4","null","","null","","","","","","","","./tasks/HMM-beads/Images/WhiteBeadChoiceCorrect.png","","","","","","","","","","","","","","","","","","",""
"image-keyboard-response","176","315900","0.0-4.0-6.0-1.0-0.33","60d2d061fd054556769ca306","635ab8fc87ce89828e04cd4d","635ac4236142f9ce46d6b4a4","385","","j","","","","","","","","./tasks/HMM-beads/Images/NewTrialWC.png","lowH","33","2","2","2","2","true","","","","","","","","","","","",""
"image-keyboard-response","177","316208","0.0-4.0-6.0-1.0-1.33","60d2d061fd054556769ca306","635ab8fc87ce89828e04cd4d","635ac4236142f9ce46d6b4a4","null","","null","","","","","","","","./tasks/HMM-beads/Images/WhiteBeadChoice.png","","","","","","","","","","","","","","","","","","",""
"image-keyboard-response","178","316718","0.0-4.0-6.0-1.0-2.33","60d2d061fd054556769ca306","635ab8fc87ce89828e04cd4d","635ac4236142f9ce46d6b4a4","null","","null","","","","","","","","./tasks/HMM-beads/Images/WhiteBeadChoiceCorrect.png","","","","","","","","","","","","","","","","","","",""
"image-keyboard-response","179","317076","0.0-4.0-6.0-1.0-0.34","60d2d061fd054556769ca306","635ab8fc87ce89828e04cd4d","635ac4236142f9ce46d6b4a4","357","","j","","","","","","","","./tasks/HMM-beads/Images/NewTrialWC.png","lowH","34","2","2","2","2","true","","","","","","","","","","","",""
"image-keyboard-response","180","317385","0.0-4.0-6.0-1.0-1.34","60d2d061fd054556769ca306","635ab8fc87ce89828e04cd4d","635ac4236142f9ce46d6b4a4","null","","null","","","","","","","","./tasks/HMM-beads/Images/WhiteBeadChoice.png","","","","","","","","","","","","","","","","","","",""
"image-keyboard-response","181","317899","0.0-4.0-6.0-1.0-2.34","60d2d061fd054556769ca306","635ab8fc87ce89828e04cd4d","635ac4236142f9ce46d6b4a4","null","","null","","","","","","","","./tasks/HMM-beads/Images/WhiteBeadChoiceCorrect.png","","","","","","","","","","","","","","","","","","",""
"image-keyboard-response","182","317979","0.0-4.0-6.0-1.0-0.35","60d2d061fd054556769ca306","635ab8fc87ce89828e04cd4d","635ac4236142f9ce46d6b4a4","78","","j","","","","","","","","./tasks/HMM-beads/Images/NewTrialWC.png","lowH","35","2","2","2","2","true","","","","","","","","","","","",""
"image-keyboard-response","183","318288","0.0-4.0-6.0-1.0-1.35","60d2d061fd054556769ca306","635ab8fc87ce89828e04cd4d","635ac4236142f9ce46d6b4a4","null","","null","","","","","","","","./tasks/HMM-beads/Images/WhiteBeadChoice.png","","","","","","","","","","","","","","","","","","",""
"image-keyboard-response","184","318799","0.0-4.0-6.0-1.0-2.35","60d2d061fd054556769ca306","635ab8fc87ce89828e04cd4d","635ac4236142f9ce46d6b4a4","null","","null","","","","","","","","./tasks/HMM-beads/Images/WhiteBeadChoiceCorrect.png","","","","","","","","","","","","","","","","","","",""
"image-keyboard-response","185","319265","0.0-4.0-6.0-1.0-0.36","60d2d061fd054556769ca306","635ab8fc87ce89828e04cd4d","635ac4236142f9ce46d6b4a4","465","","j","","","","","","","","./tasks/HMM-beads/Images/NewTrialWC.png","lowH","36","2","2","2","2","true","","","","","","","","","","","",""
"image-keyboard-response","186","319571","0.0-4.0-6.0-1.0-1.36","60d2d061fd054556769ca306","635ab8fc87ce89828e04cd4d","635ac4236142f9ce46d6b4a4","null","","null","","","","","","","","./tasks/HMM-beads/Images/WhiteBeadChoice.png","","","","","","","","","","","","","","","","","","",""
"image-keyboard-response","187","320083","0.0-4.0-6.0-1.0-2.36","60d2d061fd054556769ca306","635ab8fc87ce89828e04cd4d","635ac4236142f9ce46d6b4a4","null","","null","","","","","","","","./tasks/HMM-beads/Images/WhiteBeadChoiceCorrect.png","","","","","","","","","","","","","","","","","","",""
"image-keyboard-response","188","320131","0.0-4.0-6.0-1.0-0.37","60d2d061fd054556769ca306","635ab8fc87ce89828e04cd4d","635ac4236142f9ce46d6b4a4","47","","j","","","","","","","","./tasks/HMM-beads/Images/NewTrialWC.png","lowH","37","2","2","2","2","true","","","","","","","","","","","",""
"image-keyboard-response","189","320456","0.0-4.0-6.0-1.0-1.37","60d2d061fd054556769ca306","635ab8fc87ce89828e04cd4d","635ac4236142f9ce46d6b4a4","null","","null","","","","","","","","./tasks/HMM-beads/Images/WhiteBeadChoice.png","","","","","","","","","","","","","","","","","","",""
"image-keyboard-response","190","320967","0.0-4.0-6.0-1.0-2.37","60d2d061fd054556769ca306","635ab8fc87ce89828e04cd4d","635ac4236142f9ce46d6b4a4","null","","null","","","","","","","","./tasks/HMM-beads/Images/WhiteBeadChoiceCorrect.png","","","","","","","","","","","","","","","","","","",""
"image-keyboard-response","191","321325","0.0-4.0-6.0-1.0-0.38","60d2d061fd054556769ca306","635ab8fc87ce89828e04cd4d","635ac4236142f9ce46d6b4a4","357","","j","","","","","","","","./tasks/HMM-beads/Images/NewTrialWC.png","lowH","38","2","2","2","2","true","","","","","","","","","","","",""
"image-keyboard-response","192","321634","0.0-4.0-6.0-1.0-1.38","60d2d061fd054556769ca306","635ab8fc87ce89828e04cd4d","635ac4236142f9ce46d6b4a4","null","","null","","","","","","","","./tasks/HMM-beads/Images/WhiteBeadChoice.png","","","","","","","","","","","","","","","","","","",""
"image-keyboard-response","193","322146","0.0-4.0-6.0-1.0-2.38","60d2d061fd054556769ca306","635ab8fc87ce89828e04cd4d","635ac4236142f9ce46d6b4a4","null","","null","","","","","","","","./tasks/HMM-beads/Images/WhiteBeadChoiceCorrect.png","","","","","","","","","","","","","","","","","","",""
"image-keyboard-response","194","322550","0.0-4.0-6.0-1.0-0.39","60d2d061fd054556769ca306","635ab8fc87ce89828e04cd4d","635ac4236142f9ce46d6b4a4","402","","j","","","","","","","","./tasks/HMM-beads/Images/NewTrialWC.png","lowH","39","2","1","2","2","false","","","","","","","","","","","",""
"image-keyboard-response","195","322861","0.0-4.0-6.0-1.0-1.39","60d2d061fd054556769ca306","635ab8fc87ce89828e04cd4d","635ac4236142f9ce46d6b4a4","null","","null","","","","","","","","./tasks/HMM-beads/Images/WhiteBeadChoice.png","","","","","","","","","","","","","","","","","","",""
"image-keyboard-response","196","323371","0.0-4.0-6.0-1.0-2.39","60d2d061fd054556769ca306","635ab8fc87ce89828e04cd4d","635ac4236142f9ce46d6b4a4","null","","null","","","","","","","","./tasks/HMM-beads/Images/WhiteBeadChoiceWrong.png","","","","","","","","","","","","","","","","","","",""
"image-keyboard-response","197","323557","0.0-4.0-6.0-1.0-0.40","60d2d061fd054556769ca306","635ab8fc87ce89828e04cd4d","635ac4236142f9ce46d6b4a4","184","","j","","","","","","","","./tasks/HMM-beads/Images/NewTrialBC.png","lowH","40","2","2","1","2","true","","","","","","","","","","","",""
"image-keyboard-response","198","323866","0.0-4.0-6.0-1.0-1.40","60d2d061fd054556769ca306","635ab8fc87ce89828e04cd4d","635ac4236142f9ce46d6b4a4","null","","null","","","","","","","","./tasks/HMM-beads/Images/WhiteBeadChoice.png","","","","","","","","","","","","","","","","","","",""
"image-keyboard-response","199","324378","0.0-4.0-6.0-1.0-2.40","60d2d061fd054556769ca306","635ab8fc87ce89828e04cd4d","635ac4236142f9ce46d6b4a4","null","","null","","","","","","","","./tasks/HMM-beads/Images/WhiteBeadChoiceCorrect.png","","","","","","","","","","","","","","","","","","",""
"image-keyboard-response","200","324814","0.0-4.0-6.0-1.0-0.41","60d2d061fd054556769ca306","635ab8fc87ce89828e04cd4d","635ac4236142f9ce46d6b4a4","435","","j","","","","","","","","./tasks/HMM-beads/Images/NewTrialWC.png","lowH","41","2","1","2","2","false","","","","","","","","","","","",""
"image-keyboard-response","201","325126","0.0-4.0-6.0-1.0-1.41","60d2d061fd054556769ca306","635ab8fc87ce89828e04cd4d","635ac4236142f9ce46d6b4a4","null","","null","","","","","","","","./tasks/HMM-beads/Images/WhiteBeadChoice.png","","","","","","","","","","","","","","","","","","",""
"image-keyboard-response","202","325640","0.0-4.0-6.0-1.0-2.41","60d2d061fd054556769ca306","635ab8fc87ce89828e04cd4d","635ac4236142f9ce46d6b4a4","null","","null","","","","","","","","./tasks/HMM-beads/Images/WhiteBeadChoiceWrong.png","","","","","","","","","","","","","","","","","","",""
"image-keyboard-response","203","325968","0.0-4.0-6.0-1.0-0.42","60d2d061fd054556769ca306","635ab8fc87ce89828e04cd4d","635ac4236142f9ce46d6b4a4","327","","j","","","","","","","","./tasks/HMM-beads/Images/NewTrialBC.png","lowH","42","2","1","1","2","false","","","","","","","","","","","",""
"image-keyboard-response","204","326274","0.0-4.0-6.0-1.0-1.42","60d2d061fd054556769ca306","635ab8fc87ce89828e04cd4d","635ac4236142f9ce46d6b4a4","null","","null","","","","","","","","./tasks/HMM-beads/Images/WhiteBeadChoice.png","","","","","","","","","","","","","","","","","","",""
"image-keyboard-response","205","326784","0.0-4.0-6.0-1.0-2.42","60d2d061fd054556769ca306","635ab8fc87ce89828e04cd4d","635ac4236142f9ce46d6b4a4","null","","null","","","","","","","","./tasks/HMM-beads/Images/WhiteBeadChoiceWrong.png","","","","","","","","","","","","","","","","","","",""
"image-keyboard-response","206","326849","0.0-4.0-6.0-1.0-0.43","60d2d061fd054556769ca306","635ab8fc87ce89828e04cd4d","635ac4236142f9ce46d6b4a4","63","","j","","","","","","","","./tasks/HMM-beads/Images/NewTrialBC.png","lowH","43","2","2","1","2","true","","","","","","","","","","","",""
"image-keyboard-response","207","327158","0.0-4.0-6.0-1.0-1.43","60d2d061fd054556769ca306","635ab8fc87ce89828e04cd4d","635ac4236142f9ce46d6b4a4","null","","null","","","","","","","","./tasks/HMM-beads/Images/WhiteBeadChoice.png","","","","","","","","","","","","","","","","","","",""
"image-keyboard-response","208","327667","0.0-4.0-6.0-1.0-2.43","60d2d061fd054556769ca306","635ab8fc87ce89828e04cd4d","635ac4236142f9ce46d6b4a4","null","","null","","","","","","","","./tasks/HMM-beads/Images/WhiteBeadChoiceCorrect.png","","","","","","","","","","","","","","","","","","",""
"image-keyboard-response","209","328071","0.0-4.0-6.0-1.0-0.44","60d2d061fd054556769ca306","635ab8fc87ce89828e04cd4d","635ac4236142f9ce46d6b4a4","403","","j","","","","","","","","./tasks/HMM-beads/Images/NewTrialWC.png","lowH","44","2","2","2","2","true","","","","","","","","","","","",""
"image-keyboard-response","210","328382","0.0-4.0-6.0-1.0-1.44","60d2d061fd054556769ca306","635ab8fc87ce89828e04cd4d","635ac4236142f9ce46d6b4a4","null","","null","","","","","","","","./tasks/HMM-beads/Images/WhiteBeadChoice.png","","","","","","","","","","","","","","","","","","",""
"image-keyboard-response","211","328895","0.0-4.0-6.0-1.0-2.44","60d2d061fd054556769ca306","635ab8fc87ce89828e04cd4d","635ac4236142f9ce46d6b4a4","null","","null","","","","","","","","./tasks/HMM-beads/Images/WhiteBeadChoiceCorrect.png","","","","","","","","","","","","","","","","","","",""
"image-keyboard-response","212","329143","0.0-4.0-6.0-1.0-0.45","60d2d061fd054556769ca306","635ab8fc87ce89828e04cd4d","635ac4236142f9ce46d6b4a4","247","","j","","","","","","","","./tasks/HMM-beads/Images/NewTrialWC.png","lowH","45","2","1","2","2","false","","","","","","","","","","","",""
"image-keyboard-response","213","329451","0.0-4.0-6.0-1.0-1.45","60d2d061fd054556769ca306","635ab8fc87ce89828e04cd4d","635ac4236142f9ce46d6b4a4","null","","null","","","","","","","","./tasks/HMM-beads/Images/WhiteBeadChoice.png","","","","","","","","","","","","","","","","","","",""
"image-keyboard-response","214","329965","0.0-4.0-6.0-1.0-2.45","60d2d061fd054556769ca306","635ab8fc87ce89828e04cd4d","635ac4236142f9ce46d6b4a4","null","","null","","","","","","","","./tasks/HMM-beads/Images/WhiteBeadChoiceWrong.png","","","","","","","","","","","","","","","","","","",""
"image-keyboard-response","215","330494","0.0-4.0-6.0-1.0-0.46","60d2d061fd054556769ca306","635ab8fc87ce89828e04cd4d","635ac4236142f9ce46d6b4a4","522","","j","","","","","","","","./tasks/HMM-beads/Images/NewTrialBC.png","lowH","46","2","2","1","2","true","","","","","","","","","","","",""
"image-keyboard-response","216","330805","0.0-4.0-6.0-1.0-1.46","60d2d061fd054556769ca306","635ab8fc87ce89828e04cd4d","635ac4236142f9ce46d6b4a4","null","","null","","","","","","","","./tasks/HMM-beads/Images/WhiteBeadChoice.png","","","","","","","","","","","","","","","","","","",""
"image-keyboard-response","217","331315","0.0-4.0-6.0-1.0-2.46","60d2d061fd054556769ca306","635ab8fc87ce89828e04cd4d","635ac4236142f9ce46d6b4a4","null","","null","","","","","","","","./tasks/HMM-beads/Images/WhiteBeadChoiceCorrect.png","","","","","","","","","","","","","","","","","","",""
"image-keyboard-response","218","331706","0.0-4.0-6.0-1.0-0.47","60d2d061fd054556769ca306","635ab8fc87ce89828e04cd4d","635ac4236142f9ce46d6b4a4","389","","j","","","","","","","","./tasks/HMM-beads/Images/NewTrialWC.png","lowH","47","2","2","2","2","true","","","","","","","","","","","",""
"image-keyboard-response","219","332011","0.0-4.0-6.0-1.0-1.47","60d2d061fd054556769ca306","635ab8fc87ce89828e04cd4d","635ac4236142f9ce46d6b4a4","null","","null","","","","","","","","./tasks/HMM-beads/Images/WhiteBeadChoice.png","","","","","","","","","","","","","","","","","","",""
"image-keyboard-response","220","332525","0.0-4.0-6.0-1.0-2.47","60d2d061fd054556769ca306","635ab8fc87ce89828e04cd4d","635ac4236142f9ce46d6b4a4","null","","null","","","","","","","","./tasks/HMM-beads/Images/WhiteBeadChoiceCorrect.png","","","","","","","","","","","","","","","","","","",""
"image-keyboard-response","221","332930","0.0-4.0-6.0-1.0-0.48","60d2d061fd054556769ca306","635ab8fc87ce89828e04cd4d","635ac4236142f9ce46d6b4a4","404","","j","","","","","","","","./tasks/HMM-beads/Images/NewTrialWC.png","lowH","48","2","2","2","2","true","","","","","","","","","","","",""
"image-keyboard-response","222","333240","0.0-4.0-6.0-1.0-1.48","60d2d061fd054556769ca306","635ab8fc87ce89828e04cd4d","635ac4236142f9ce46d6b4a4","null","","null","","","","","","","","./tasks/HMM-beads/Images/WhiteBeadChoice.png","","","","","","","","","","","","","","","","","","",""
"image-keyboard-response","223","333754","0.0-4.0-6.0-1.0-2.48","60d2d061fd054556769ca306","635ab8fc87ce89828e04cd4d","635ac4236142f9ce46d6b4a4","null","","null","","","","","","","","./tasks/HMM-beads/Images/WhiteBeadChoiceCorrect.png","","","","","","","","","","","","","","","","","","",""
"image-keyboard-response","224","334066","0.0-4.0-6.0-1.0-0.49","60d2d061fd054556769ca306","635ab8fc87ce89828e04cd4d","635ac4236142f9ce46d6b4a4","310","","j","","","","","","","","./tasks/HMM-beads/Images/NewTrialWC.png","lowH","49","2","2","2","2","true","","","","","","","","","","","",""
"image-keyboard-response","225","334375","0.0-4.0-6.0-1.0-1.49","60d2d061fd054556769ca306","635ab8fc87ce89828e04cd4d","635ac4236142f9ce46d6b4a4","null","","null","","","","","","","","./tasks/HMM-beads/Images/WhiteBeadChoice.png","","","","","","","","","","","","","","","","","","",""
"image-keyboard-response","226","334888","0.0-4.0-6.0-1.0-2.49","60d2d061fd054556769ca306","635ab8fc87ce89828e04cd4d","635ac4236142f9ce46d6b4a4","null","","null","","","","","","","","./tasks/HMM-beads/Images/WhiteBeadChoiceCorrect.png","","","","","","","","","","","","","","","","","","",""
"image-keyboard-response","227","334936","0.0-4.0-6.0-1.0-0.50","60d2d061fd054556769ca306","635ab8fc87ce89828e04cd4d","635ac4236142f9ce46d6b4a4","47","","j","","","","","","","","./tasks/HMM-beads/Images/NewTrialWC.png","lowH","50","2","1","2","2","false","","","","","","","","","","","",""
"image-keyboard-response","228","335260","0.0-4.0-6.0-1.0-1.50","60d2d061fd054556769ca306","635ab8fc87ce89828e04cd4d","635ac4236142f9ce46d6b4a4","null","","null","","","","","","","","./tasks/HMM-beads/Images/WhiteBeadChoice.png","","","","","","","","","","","","","","","","","","",""
"image-keyboard-response","229","335774","0.0-4.0-6.0-1.0-2.50","60d2d061fd054556769ca306","635ab8fc87ce89828e04cd4d","635ac4236142f9ce46d6b4a4","null","","null","","","","","","","","./tasks/HMM-beads/Images/WhiteBeadChoiceWrong.png","","","","","","","","","","","","","","","","","","",""
"image-keyboard-response","230","335917","0.0-4.0-6.0-1.0-0.51","60d2d061fd054556769ca306","635ab8fc87ce89828e04cd4d","635ac4236142f9ce46d6b4a4","142","","j","","","","","","","","./tasks/HMM-beads/Images/NewTrialBC.png","lowH","51","2","1","1","2","false","","","","","","","","","","","",""
"image-keyboard-response","231","336226","0.0-4.0-6.0-1.0-1.51","60d2d061fd054556769ca306","635ab8fc87ce89828e04cd4d","635ac4236142f9ce46d6b4a4","null","","null","","","","","","","","./tasks/HMM-beads/Images/WhiteBeadChoice.png","","","","","","","","","","","","","","","","","","",""
"image-keyboard-response","232","336741","0.0-4.0-6.0-1.0-2.51","60d2d061fd054556769ca306","635ab8fc87ce89828e04cd4d","635ac4236142f9ce46d6b4a4","null","","null","","","","","","","","./tasks/HMM-beads/Images/WhiteBeadChoiceWrong.png","","","","","","","","","","","","","","","","","","",""
"image-keyboard-response","233","336852","0.0-4.0-6.0-1.0-0.52","60d2d061fd054556769ca306","635ab8fc87ce89828e04cd4d","635ac4236142f9ce46d6b4a4","110","","j","","","","","","","","./tasks/HMM-beads/Images/NewTrialBC.png","lowH","52","2","2","1","2","true","","","","","","","","","","","",""
"image-keyboard-response","234","337162","0.0-4.0-6.0-1.0-1.52","60d2d061fd054556769ca306","635ab8fc87ce89828e04cd4d","635ac4236142f9ce46d6b4a4","null","","null","","","","","","","","./tasks/HMM-beads/Images/WhiteBeadChoice.png","","","","","","","","","","","","","","","","","","",""
"image-keyboard-response","235","337671","0.0-4.0-6.0-1.0-2.52","60d2d061fd054556769ca306","635ab8fc87ce89828e04cd4d","635ac4236142f9ce46d6b4a4","null","","null","","","","","","","","./tasks/HMM-beads/Images/WhiteBeadChoiceCorrect.png","","","","","","","","","","","","","","","","","","",""
"image-keyboard-response","236","338155","0.0-4.0-6.0-1.0-0.53","60d2d061fd054556769ca306","635ab8fc87ce89828e04cd4d","635ac4236142f9ce46d6b4a4","483","","j","","","","","","","","./tasks/HMM-beads/Images/NewTrialWC.png","lowH","53","2","2","2","2","true","","","","","","","","","","","",""
"image-keyboard-response","237","338462","0.0-4.0-6.0-1.0-1.53","60d2d061fd054556769ca306","635ab8fc87ce89828e04cd4d","635ac4236142f9ce46d6b4a4","null","","null","","","","","","","","./tasks/HMM-beads/Images/WhiteBeadChoice.png","","","","","","","","","","","","","","","","","","",""
"image-keyboard-response","238","338971","0.0-4.0-6.0-1.0-2.53","60d2d061fd054556769ca306","635ab8fc87ce89828e04cd4d","635ac4236142f9ce46d6b4a4","null","","null","","","","","","","","./tasks/HMM-beads/Images/WhiteBeadChoiceCorrect.png","","","","","","","","","","","","","","","","","","",""
"image-keyboard-response","239","339082","0.0-4.0-6.0-1.0-0.54","60d2d061fd054556769ca306","635ab8fc87ce89828e04cd4d","635ac4236142f9ce46d6b4a4","110","","j","","","","","","","","./tasks/HMM-beads/Images/NewTrialWC.png","lowH","54","2","2","2","2","true","","","","","","","","","","","",""
"image-keyboard-response","240","339388","0.0-4.0-6.0-1.0-1.54","60d2d061fd054556769ca306","635ab8fc87ce89828e04cd4d","635ac4236142f9ce46d6b4a4","null","","null","","","","","","","","./tasks/HMM-beads/Images/WhiteBeadChoice.png","","","","","","","","","","","","","","","","","","",""
"image-keyboard-response","241","339902","0.0-4.0-6.0-1.0-2.54","60d2d061fd054556769ca306","635ab8fc87ce89828e04cd4d","635ac4236142f9ce46d6b4a4","null","","null","","","","","","","","./tasks/HMM-beads/Images/WhiteBeadChoiceCorrect.png","","","","","","","","","","","","","","","","","","",""
"image-keyboard-response","242","340404","0.0-4.0-6.0-1.0-0.55","60d2d061fd054556769ca306","635ab8fc87ce89828e04cd4d","635ac4236142f9ce46d6b4a4","500","","j","","","","","","","","./tasks/HMM-beads/Images/NewTrialWC.png","lowH","55","2","2","2","2","true","","","","","","","","","","","",""
"image-keyboard-response","243","340710","0.0-4.0-6.0-1.0-1.55","60d2d061fd054556769ca306","635ab8fc87ce89828e04cd4d","635ac4236142f9ce46d6b4a4","null","","null","","","","","","","","./tasks/HMM-beads/Images/WhiteBeadChoice.png","","","","","","","","","","","","","","","","","","",""
"image-keyboard-response","244","341222","0.0-4.0-6.0-1.0-2.55","60d2d061fd054556769ca306","635ab8fc87ce89828e04cd4d","635ac4236142f9ce46d6b4a4","null","","null","","","","","","","","./tasks/HMM-beads/Images/WhiteBeadChoiceCorrect.png","","","","","","","","","","","","","","","","","","",""
"image-keyboard-response","245","341643","0.0-4.0-6.0-1.0-0.56","60d2d061fd054556769ca306","635ab8fc87ce89828e04cd4d","635ac4236142f9ce46d6b4a4","420","","j","","","","","","","","./tasks/HMM-beads/Images/NewTrialWC.png","lowH","56","2","1","2","2","false","","","","","","","","","","","",""
"image-keyboard-response","246","341951","0.0-4.0-6.0-1.0-1.56","60d2d061fd054556769ca306","635ab8fc87ce89828e04cd4d","635ac4236142f9ce46d6b4a4","null","","null","","","","","","","","./tasks/HMM-beads/Images/WhiteBeadChoice.png","","","","","","","","","","","","","","","","","","",""
"image-keyboard-response","247","342466","0.0-4.0-6.0-1.0-2.56","60d2d061fd054556769ca306","635ab8fc87ce89828e04cd4d","635ac4236142f9ce46d6b4a4","null","","null","","","","","","","","./tasks/HMM-beads/Images/WhiteBeadChoiceWrong.png","","","","","","","","","","","","","","","","","","",""
"image-keyboard-response","248","342592","0.0-4.0-6.0-1.0-0.57","60d2d061fd054556769ca306","635ab8fc87ce89828e04cd4d","635ac4236142f9ce46d6b4a4","125","","j","","","","","","","","./tasks/HMM-beads/Images/NewTrialBC.png","lowH","57","2","2","1","2","true","","","","","","","","","","","",""
"image-keyboard-response","249","342898","0.0-4.0-6.0-1.0-1.57","60d2d061fd054556769ca306","635ab8fc87ce89828e04cd4d","635ac4236142f9ce46d6b4a4","null","","null","","","","","","","","./tasks/HMM-beads/Images/WhiteBeadChoice.png","","","","","","","","","","","","","","","","","","",""
"image-keyboard-response","250","343409","0.0-4.0-6.0-1.0-2.57","60d2d061fd054556769ca306","635ab8fc87ce89828e04cd4d","635ac4236142f9ce46d6b4a4","null","","null","","","","","","","","./tasks/HMM-beads/Images/WhiteBeadChoiceCorrect.png","","","","","","","","","","","","","","","","","","",""
"image-keyboard-response","251","343782","0.0-4.0-6.0-1.0-0.58","60d2d061fd054556769ca306","635ab8fc87ce89828e04cd4d","635ac4236142f9ce46d6b4a4","372","","j","","","","","","","","./tasks/HMM-beads/Images/NewTrialWC.png","lowH","58","2","1","2","2","false","","","","","","","","","","","",""
"image-keyboard-response","252","344090","0.0-4.0-6.0-1.0-1.58","60d2d061fd054556769ca306","635ab8fc87ce89828e04cd4d","635ac4236142f9ce46d6b4a4","null","","null","","","","","","","","./tasks/HMM-beads/Images/WhiteBeadChoice.png","","","","","","","","","","","","","","","","","","",""
"image-keyboard-response","253","344602","0.0-4.0-6.0-1.0-2.58","60d2d061fd054556769ca306","635ab8fc87ce89828e04cd4d","635ac4236142f9ce46d6b4a4","null","","null","","","","","","","","./tasks/HMM-beads/Images/WhiteBeadChoiceWrong.png","","","","","","","","","","","","","","","","","","",""
"image-keyboard-response","254","344610","0.0-4.0-6.0-1.0-0.59","60d2d061fd054556769ca306","635ab8fc87ce89828e04cd4d","635ac4236142f9ce46d6b4a4","0","","j","","","","","","","","./tasks/HMM-beads/Images/NewTrialBC.png","lowH","59","2","1","1","2","false","","","","","","","","","","","",""
"image-keyboard-response","255","344927","0.0-4.0-6.0-1.0-1.59","60d2d061fd054556769ca306","635ab8fc87ce89828e04cd4d","635ac4236142f9ce46d6b4a4","null","","null","","","","","","","","./tasks/HMM-beads/Images/WhiteBeadChoice.png","","","","","","","","","","","","","","","","","","",""
"image-keyboard-response","256","345439","0.0-4.0-6.0-1.0-2.59","60d2d061fd054556769ca306","635ab8fc87ce89828e04cd4d","635ac4236142f9ce46d6b4a4","null","","null","","","","","","","","./tasks/HMM-beads/Images/WhiteBeadChoiceWrong.png","","","","","","","","","","","","","","","","","","",""
"image-keyboard-response","257","345846","0.0-4.0-6.0-1.0-0.60","60d2d061fd054556769ca306","635ab8fc87ce89828e04cd4d","635ac4236142f9ce46d6b4a4","405","","j","","","","","","","","./tasks/HMM-beads/Images/NewTrialBC.png","lowH","60","2","2","1","2","true","","","","","","","","","","","",""
"image-keyboard-response","258","346156","0.0-4.0-6.0-1.0-1.60","60d2d061fd054556769ca306","635ab8fc87ce89828e04cd4d","635ac4236142f9ce46d6b4a4","null","","null","","","","","","","","./tasks/HMM-beads/Images/WhiteBeadChoice.png","","","","","","","","","","","","","","","","","","",""
"image-keyboard-response","259","346666","0.0-4.0-6.0-1.0-2.60","60d2d061fd054556769ca306","635ab8fc87ce89828e04cd4d","635ac4236142f9ce46d6b4a4","null","","null","","","","","","","","./tasks/HMM-beads/Images/WhiteBeadChoiceCorrect.png","","","","","","","","","","","","","","","","","","",""
"image-keyboard-response","260","347121","0.0-4.0-6.0-1.0-0.61","60d2d061fd054556769ca306","635ab8fc87ce89828e04cd4d","635ac4236142f9ce46d6b4a4","454","","j","","","","","","","","./tasks/HMM-beads/Images/NewTrialWC.png","lowH","61","2","2","2","2","true","","","","","","","","","","","",""
"image-keyboard-response","261","347429","0.0-4.0-6.0-1.0-1.61","60d2d061fd054556769ca306","635ab8fc87ce89828e04cd4d","635ac4236142f9ce46d6b4a4","null","","null","","","","","","","","./tasks/HMM-beads/Images/WhiteBeadChoice.png","","","","","","","","","","","","","","","","","","",""
"image-keyboard-response","262","347942","0.0-4.0-6.0-1.0-2.61","60d2d061fd054556769ca306","635ab8fc87ce89828e04cd4d","635ac4236142f9ce46d6b4a4","null","","null","","","","","","","","./tasks/HMM-beads/Images/WhiteBeadChoiceCorrect.png","","","","","","","","","","","","","","","","","","",""
"image-keyboard-response","263","348364","0.0-4.0-6.0-1.0-0.62","60d2d061fd054556769ca306","635ab8fc87ce89828e04cd4d","635ac4236142f9ce46d6b4a4","421","","j","","","","","","","","./tasks/HMM-beads/Images/NewTrialWC.png","lowH","62","2","2","2","2","true","","","","","","","","","","","",""
"image-keyboard-response","264","348677","0.0-4.0-6.0-1.0-1.62","60d2d061fd054556769ca306","635ab8fc87ce89828e04cd4d","635ac4236142f9ce46d6b4a4","null","","null","","","","","","","","./tasks/HMM-beads/Images/WhiteBeadChoice.png","","","","","","","","","","","","","","","","","","",""
"image-keyboard-response","265","349186","0.0-4.0-6.0-1.0-2.62","60d2d061fd054556769ca306","635ab8fc87ce89828e04cd4d","635ac4236142f9ce46d6b4a4","null","","null","","","","","","","","./tasks/HMM-beads/Images/WhiteBeadChoiceCorrect.png","","","","","","","","","","","","","","","","","","",""
"image-keyboard-response","266","349297","0.0-4.0-6.0-1.0-0.63","60d2d061fd054556769ca306","635ab8fc87ce89828e04cd4d","635ac4236142f9ce46d6b4a4","110","","j","","","","","","","","./tasks/HMM-beads/Images/NewTrialWC.png","lowH","63","2","1","2","2","false","","","","","","","","","","","",""
"image-keyboard-response","267","349606","0.0-4.0-6.0-1.0-1.63","60d2d061fd054556769ca306","635ab8fc87ce89828e04cd4d","635ac4236142f9ce46d6b4a4","null","","null","","","","","","","","./tasks/HMM-beads/Images/WhiteBeadChoice.png","","","","","","","","","","","","","","","","","","",""
"image-keyboard-response","268","350116","0.0-4.0-6.0-1.0-2.63","60d2d061fd054556769ca306","635ab8fc87ce89828e04cd4d","635ac4236142f9ce46d6b4a4","null","","null","","","","","","","","./tasks/HMM-beads/Images/WhiteBeadChoiceWrong.png","","","","","","","","","","","","","","","","","","",""
"image-keyboard-response","269","350242","0.0-4.0-6.0-1.0-0.64","60d2d061fd054556769ca306","635ab8fc87ce89828e04cd4d","635ac4236142f9ce46d6b4a4","124","","j","","","","","","","","./tasks/HMM-beads/Images/NewTrialBC.png","lowH","64","2","2","1","2","true","","","","","","","","","","","",""
"image-keyboard-response","270","350550","0.0-4.0-6.0-1.0-1.64","60d2d061fd054556769ca306","635ab8fc87ce89828e04cd4d","635ac4236142f9ce46d6b4a4","null","","null","","","","","","","","./tasks/HMM-beads/Images/WhiteBeadChoice.png","","","","","","","","","","","","","","","","","","",""
"image-keyboard-response","271","351057","0.0-4.0-6.0-1.0-2.64","60d2d061fd054556769ca306","635ab8fc87ce89828e04cd4d","635ac4236142f9ce46d6b4a4","null","","null","","","","","","","","./tasks/HMM-beads/Images/WhiteBeadChoiceCorrect.png","","","","","","","","","","","","","","","","","","",""
"image-keyboard-response","272","351429","0.0-4.0-6.0-1.0-0.65","60d2d061fd054556769ca306","635ab8fc87ce89828e04cd4d","635ac4236142f9ce46d6b4a4","371","","j","","","","","","","","./tasks/HMM-beads/Images/NewTrialWC.png","lowH","65","2","2","2","2","true","","","","","","","","","","","",""
"image-keyboard-response","273","351740","0.0-4.0-6.0-1.0-1.65","60d2d061fd054556769ca306","635ab8fc87ce89828e04cd4d","635ac4236142f9ce46d6b4a4","null","","null","","","","","","","","./tasks/HMM-beads/Images/WhiteBeadChoice.png","","","","","","","","","","","","","","","","","","",""
"image-keyboard-response","274","352252","0.0-4.0-6.0-1.0-2.65","60d2d061fd054556769ca306","635ab8fc87ce89828e04cd4d","635ac4236142f9ce46d6b4a4","null","","null","","","","","","","","./tasks/HMM-beads/Images/WhiteBeadChoiceCorrect.png","","","","","","","","","","","","","","","","","","",""
"image-keyboard-response","275","352659","0.0-4.0-6.0-1.0-0.66","60d2d061fd054556769ca306","635ab8fc87ce89828e04cd4d","635ac4236142f9ce46d6b4a4","405","","j","","","","","","","","./tasks/HMM-beads/Images/NewTrialWC.png","lowH","66","2","1","2","2","false","","","","","","","","","","","",""
"image-keyboard-response","276","352964","0.0-4.0-6.0-1.0-1.66","60d2d061fd054556769ca306","635ab8fc87ce89828e04cd4d","635ac4236142f9ce46d6b4a4","null","","null","","","","","","","","./tasks/HMM-beads/Images/WhiteBeadChoice.png","","","","","","","","","","","","","","","","","","",""
"image-keyboard-response","277","353479","0.0-4.0-6.0-1.0-2.66","60d2d061fd054556769ca306","635ab8fc87ce89828e04cd4d","635ac4236142f9ce46d6b4a4","null","","null","","","","","","","","./tasks/HMM-beads/Images/WhiteBeadChoiceWrong.png","","","","","","","","","","","","","","","","","","",""
"image-keyboard-response","278","353542","0.0-4.0-6.0-1.0-0.67","60d2d061fd054556769ca306","635ab8fc87ce89828e04cd4d","635ac4236142f9ce46d6b4a4","62","","j","","","","","","","","./tasks/HMM-beads/Images/NewTrialBC.png","lowH","67","2","2","1","2","true","","","","","","","","","","","",""
"image-keyboard-response","279","353851","0.0-4.0-6.0-1.0-1.67","60d2d061fd054556769ca306","635ab8fc87ce89828e04cd4d","635ac4236142f9ce46d6b4a4","null","","null","","","","","","","","./tasks/HMM-beads/Images/WhiteBeadChoice.png","","","","","","","","","","","","","","","","","","",""
"image-keyboard-response","280","354363","0.0-4.0-6.0-1.0-2.67","60d2d061fd054556769ca306","635ab8fc87ce89828e04cd4d","635ac4236142f9ce46d6b4a4","null","","null","","","","","","","","./tasks/HMM-beads/Images/WhiteBeadChoiceCorrect.png","","","","","","","","","","","","","","","","","","",""
"image-keyboard-response","281","354831","0.0-4.0-6.0-1.0-0.68","60d2d061fd054556769ca306","635ab8fc87ce89828e04cd4d","635ac4236142f9ce46d6b4a4","467","","j","","","","","","","","./tasks/HMM-beads/Images/NewTrialWC.png","lowH","68","2","2","2","2","true","","","","","","","","","","","",""
"image-keyboard-response","282","355142","0.0-4.0-6.0-1.0-1.68","60d2d061fd054556769ca306","635ab8fc87ce89828e04cd4d","635ac4236142f9ce46d6b4a4","null","","null","","","","","","","","./tasks/HMM-beads/Images/WhiteBeadChoice.png","","","","","","","","","","","","","","","","","","",""
"image-keyboard-response","283","355653","0.0-4.0-6.0-1.0-2.68","60d2d061fd054556769ca306","635ab8fc87ce89828e04cd4d","635ac4236142f9ce46d6b4a4","null","","null","","","","","","","","./tasks/HMM-beads/Images/WhiteBeadChoiceCorrect.png","","","","","","","","","","","","","","","","","","",""
"image-keyboard-response","284","356072","0.0-4.0-6.0-1.0-0.69","60d2d061fd054556769ca306","635ab8fc87ce89828e04cd4d","635ac4236142f9ce46d6b4a4","418","","j","","","","","","","","./tasks/HMM-beads/Images/NewTrialWC.png","lowH","69","2","2","2","2","true","","","","","","","","","","","",""
"image-keyboard-response","285","356381","0.0-4.0-6.0-1.0-1.69","60d2d061fd054556769ca306","635ab8fc87ce89828e04cd4d","635ac4236142f9ce46d6b4a4","null","","null","","","","","","","","./tasks/HMM-beads/Images/WhiteBeadChoice.png","","","","","","","","","","","","","","","","","","",""
"image-keyboard-response","286","356890","0.0-4.0-6.0-1.0-2.69","60d2d061fd054556769ca306","635ab8fc87ce89828e04cd4d","635ac4236142f9ce46d6b4a4","null","","null","","","","","","","","./tasks/HMM-beads/Images/WhiteBeadChoiceCorrect.png","","","","","","","","","","","","","","","","","","",""
"image-keyboard-response","287","356907","0.0-4.0-6.0-1.0-0.70","60d2d061fd054556769ca306","635ab8fc87ce89828e04cd4d","635ac4236142f9ce46d6b4a4","16","","j","","","","","","","","./tasks/HMM-beads/Images/NewTrialWC.png","lowH","70","2","2","2","2","true","","","","","","","","","","","",""
"image-keyboard-response","288","357216","0.0-4.0-6.0-1.0-1.70","60d2d061fd054556769ca306","635ab8fc87ce89828e04cd4d","635ac4236142f9ce46d6b4a4","null","","null","","","","","","","","./tasks/HMM-beads/Images/WhiteBeadChoice.png","","","","","","","","","","","","","","","","","","",""
"image-keyboard-response","289","357719","0.0-4.0-6.0-1.0-2.70","60d2d061fd054556769ca306","635ab8fc87ce89828e04cd4d","635ac4236142f9ce46d6b4a4","null","","null","","","","","","","","./tasks/HMM-beads/Images/WhiteBeadChoiceCorrect.png","","","","","","","","","","","","","","","","","","",""
"image-keyboard-response","290","358076","0.0-4.0-6.0-1.0-0.71","60d2d061fd054556769ca306","635ab8fc87ce89828e04cd4d","635ac4236142f9ce46d6b4a4","355","","j","","","","","","","","./tasks/HMM-beads/Images/NewTrialWC.png","lowH","71","2","2","2","2","true","","","","","","","","","","","",""
"image-keyboard-response","291","358385","0.0-4.0-6.0-1.0-1.71","60d2d061fd054556769ca306","635ab8fc87ce89828e04cd4d","635ac4236142f9ce46d6b4a4","null","","null","","","","","","","","./tasks/HMM-beads/Images/WhiteBeadChoice.png","","","","","","","","","","","","","","","","","","",""
"image-keyboard-response","292","358898","0.0-4.0-6.0-1.0-2.71","60d2d061fd054556769ca306","635ab8fc87ce89828e04cd4d","635ac4236142f9ce46d6b4a4","null","","null","","","","","","","","./tasks/HMM-beads/Images/WhiteBeadChoiceCorrect.png","","","","","","","","","","","","","","","","","","",""
"image-keyboard-response","293","359146","0.0-4.0-6.0-1.0-0.72","60d2d061fd054556769ca306","635ab8fc87ce89828e04cd4d","635ac4236142f9ce46d6b4a4","247","","j","","","","","","","","./tasks/HMM-beads/Images/NewTrialWC.png","lowH","72","2","1","2","2","false","","","","","","","","","","","",""
"image-keyboard-response","294","359453","0.0-4.0-6.0-1.0-1.72","60d2d061fd054556769ca306","635ab8fc87ce89828e04cd4d","635ac4236142f9ce46d6b4a4","null","","null","","","","","","","","./tasks/HMM-beads/Images/WhiteBeadChoice.png","","","","","","","","","","","","","","","","","","",""
"image-keyboard-response","295","359966","0.0-4.0-6.0-1.0-2.72","60d2d061fd054556769ca306","635ab8fc87ce89828e04cd4d","635ac4236142f9ce46d6b4a4","null","","null","","","","","","","","./tasks/HMM-beads/Images/WhiteBeadChoiceWrong.png","","","","","","","","","","","","","","","","","","",""
"image-keyboard-response","296","360326","0.0-4.0-6.0-1.0-0.73","60d2d061fd054556769ca306","635ab8fc87ce89828e04cd4d","635ac4236142f9ce46d6b4a4","358","","j","","","","","","","","./tasks/HMM-beads/Images/NewTrialBC.png","lowH","73","2","2","1","2","true","","","","","","","","","","","",""
"image-keyboard-response","297","360632","0.0-4.0-6.0-1.0-1.73","60d2d061fd054556769ca306","635ab8fc87ce89828e04cd4d","635ac4236142f9ce46d6b4a4","null","","null","","","","","","","","./tasks/HMM-beads/Images/WhiteBeadChoice.png","","","","","","","","","","","","","","","","","","",""
"image-keyboard-response","298","361143","0.0-4.0-6.0-1.0-2.73","60d2d061fd054556769ca306","635ab8fc87ce89828e04cd4d","635ac4236142f9ce46d6b4a4","null","","null","","","","","","","","./tasks/HMM-beads/Images/WhiteBeadChoiceCorrect.png","","","","","","","","","","","","","","","","","","",""
"image-keyboard-response","299","361363","0.0-4.0-6.0-1.0-0.74","60d2d061fd054556769ca306","635ab8fc87ce89828e04cd4d","635ac4236142f9ce46d6b4a4","219","","j","","","","","","","","./tasks/HMM-beads/Images/NewTrialWC.png","lowH","74","2","1","2","2","false","","","","","","","","","","","",""
"image-keyboard-response","300","361667","0.0-4.0-6.0-1.0-1.74","60d2d061fd054556769ca306","635ab8fc87ce89828e04cd4d","635ac4236142f9ce46d6b4a4","null","","null","","","","","","","","./tasks/HMM-beads/Images/WhiteBeadChoice.png","","","","","","","","","","","","","","","","","","",""
"image-keyboard-response","301","362168","0.0-4.0-6.0-1.0-2.74","60d2d061fd054556769ca306","635ab8fc87ce89828e04cd4d","635ac4236142f9ce46d6b4a4","null","","null","","","","","","","","./tasks/HMM-beads/Images/WhiteBeadChoiceWrong.png","","","","","","","","","","","","","","","","","","",""
"image-keyboard-response","302","362601","0.0-4.0-6.0-1.0-0.75","60d2d061fd054556769ca306","635ab8fc87ce89828e04cd4d","635ac4236142f9ce46d6b4a4","431","","j","","","","","","","","./tasks/HMM-beads/Images/NewTrialBC.png","lowH","75","2","2","1","2","true","","","","","","","","","","","",""
"image-keyboard-response","303","362909","0.0-4.0-6.0-1.0-1.75","60d2d061fd054556769ca306","635ab8fc87ce89828e04cd4d","635ac4236142f9ce46d6b4a4","null","","null","","","","","","","","./tasks/HMM-beads/Images/WhiteBeadChoice.png","","","","","","","","","","","","","","","","","","",""
"image-keyboard-response","304","363422","0.0-4.0-6.0-1.0-2.75","60d2d061fd054556769ca306","635ab8fc87ce89828e04cd4d","635ac4236142f9ce46d6b4a4","null","","null","","","","","","","","./tasks/HMM-beads/Images/WhiteBeadChoiceCorrect.png","","","","","","","","","","","","","","","","","","",""
"image-keyboard-response","305","363750","0.0-4.0-6.0-1.0-0.76","60d2d061fd054556769ca306","635ab8fc87ce89828e04cd4d","635ac4236142f9ce46d6b4a4","326","","j","","","","","","","","./tasks/HMM-beads/Images/NewTrialWC.png","lowH","76","2","1","2","2","false","","","","","","","","","","","",""
"image-keyboard-response","306","364059","0.0-4.0-6.0-1.0-1.76","60d2d061fd054556769ca306","635ab8fc87ce89828e04cd4d","635ac4236142f9ce46d6b4a4","null","","null","","","","","","","","./tasks/HMM-beads/Images/WhiteBeadChoice.png","","","","","","","","","","","","","","","","","","",""
"image-keyboard-response","307","364569","0.0-4.0-6.0-1.0-2.76","60d2d061fd054556769ca306","635ab8fc87ce89828e04cd4d","635ac4236142f9ce46d6b4a4","null","","null","","","","","","","","./tasks/HMM-beads/Images/WhiteBeadChoiceWrong.png","","","","","","","","","","","","","","","","","","",""
"image-keyboard-response","308","364616","0.0-4.0-6.0-1.0-0.77","60d2d061fd054556769ca306","635ab8fc87ce89828e04cd4d","635ac4236142f9ce46d6b4a4","46","","j","","","","","","","","./tasks/HMM-beads/Images/NewTrialBC.png","lowH","77","2","2","1","2","true","","","","","","","","","","","",""
"image-keyboard-response","309","364928","0.0-4.0-6.0-1.0-1.77","60d2d061fd054556769ca306","635ab8fc87ce89828e04cd4d","635ac4236142f9ce46d6b4a4","null","","null","","","","","","","","./tasks/HMM-beads/Images/WhiteBeadChoice.png","","","","","","","","","","","","","","","","","","",""
"image-keyboard-response","310","365441","0.0-4.0-6.0-1.0-2.77","60d2d061fd054556769ca306","635ab8fc87ce89828e04cd4d","635ac4236142f9ce46d6b4a4","null","","null","","","","","","","","./tasks/HMM-beads/Images/WhiteBeadChoiceCorrect.png","","","","","","","","","","","","","","","","","","",""
"image-keyboard-response","311","365799","0.0-4.0-6.0-1.0-0.78","60d2d061fd054556769ca306","635ab8fc87ce89828e04cd4d","635ac4236142f9ce46d6b4a4","357","","j","","","","","","","","./tasks/HMM-beads/Images/NewTrialWC.png","lowH","78","2","2","2","2","true","","","","","","","","","","","",""
"image-keyboard-response","312","366109","0.0-4.0-6.0-1.0-1.78","60d2d061fd054556769ca306","635ab8fc87ce89828e04cd4d","635ac4236142f9ce46d6b4a4","null","","null","","","","","","","","./tasks/HMM-beads/Images/WhiteBeadChoice.png","","","","","","","","","","","","","","","","","","",""
"image-keyboard-response","313","366623","0.0-4.0-6.0-1.0-2.78","60d2d061fd054556769ca306","635ab8fc87ce89828e04cd4d","635ac4236142f9ce46d6b4a4","null","","null","","","","","","","","./tasks/HMM-beads/Images/WhiteBeadChoiceCorrect.png","","","","","","","","","","","","","","","","","","",""
"image-keyboard-response","314","367075","0.0-4.0-6.0-1.0-0.79","60d2d061fd054556769ca306","635ab8fc87ce89828e04cd4d","635ac4236142f9ce46d6b4a4","451","","j","","","","","","","","./tasks/HMM-beads/Images/NewTrialWC.png","lowH","79","2","2","2","2","true","","","","","","","","","","","",""
"image-keyboard-response","315","367386","0.0-4.0-6.0-1.0-1.79","60d2d061fd054556769ca306","635ab8fc87ce89828e04cd4d","635ac4236142f9ce46d6b4a4","null","","null","","","","","","","","./tasks/HMM-beads/Images/WhiteBeadChoice.png","","","","","","","","","","","","","","","","","","",""
"image-keyboard-response","316","367897","0.0-4.0-6.0-1.0-2.79","60d2d061fd054556769ca306","635ab8fc87ce89828e04cd4d","635ac4236142f9ce46d6b4a4","null","","null","","","","","","","","./tasks/HMM-beads/Images/WhiteBeadChoiceCorrect.png","","","","","","","","","","","","","","","","","","",""
"image-keyboard-response","317","368271","0.0-4.0-6.0-1.0-0.80","60d2d061fd054556769ca306","635ab8fc87ce89828e04cd4d","635ac4236142f9ce46d6b4a4","366","","j","","","","","","","","./tasks/HMM-beads/Images/NewTrialWC.png","lowH","80","2","2","2","2","true","","","","","","","","","","","",""
"image-keyboard-response","318","368580","0.0-4.0-6.0-1.0-1.80","60d2d061fd054556769ca306","635ab8fc87ce89828e04cd4d","635ac4236142f9ce46d6b4a4","null","","null","","","","","","","","./tasks/HMM-beads/Images/WhiteBeadChoice.png","","","","","","","","","","","","","","","","","","",""
"image-keyboard-response","319","369094","0.0-4.0-6.0-1.0-2.80","60d2d061fd054556769ca306","635ab8fc87ce89828e04cd4d","635ac4236142f9ce46d6b4a4","null","","null","","","","","","","","./tasks/HMM-beads/Images/WhiteBeadChoiceCorrect.png","","","","","","","","","","","","","","","","","","",""
"image-keyboard-response","320","369434","0.0-4.0-6.0-1.0-0.81","60d2d061fd054556769ca306","635ab8fc87ce89828e04cd4d","635ac4236142f9ce46d6b4a4","338","","j","","","","","","","","./tasks/HMM-beads/Images/NewTrialWC.png","lowH","81","2","2","2","2","true","","","","","","","","","","","",""
"image-keyboard-response","321","369744","0.0-4.0-6.0-1.0-1.81","60d2d061fd054556769ca306","635ab8fc87ce89828e04cd4d","635ac4236142f9ce46d6b4a4","null","","null","","","","","","","","./tasks/HMM-beads/Images/WhiteBeadChoice.png","","","","","","","","","","","","","","","","","","",""
"image-keyboard-response","322","370260","0.0-4.0-6.0-1.0-2.81","60d2d061fd054556769ca306","635ab8fc87ce89828e04cd4d","635ac4236142f9ce46d6b4a4","null","","null","","","","","","","","./tasks/HMM-beads/Images/WhiteBeadChoiceCorrect.png","","","","","","","","","","","","","","","","","","",""
"image-keyboard-response","323","370277","0.0-4.0-6.0-1.0-0.82","60d2d061fd054556769ca306","635ab8fc87ce89828e04cd4d","635ac4236142f9ce46d6b4a4","16","","j","","","","","","","","./tasks/HMM-beads/Images/NewTrialWC.png","lowH","82","2","2","2","2","true","","","","","","","","","","","",""
"image-keyboard-response","324","370581","0.0-4.0-6.0-1.0-1.82","60d2d061fd054556769ca306","635ab8fc87ce89828e04cd4d","635ac4236142f9ce46d6b4a4","null","","null","","","","","","","","./tasks/HMM-beads/Images/WhiteBeadChoice.png","","","","","","","","","","","","","","","","","","",""
"image-keyboard-response","325","371098","0.0-4.0-6.0-1.0-2.82","60d2d061fd054556769ca306","635ab8fc87ce89828e04cd4d","635ac4236142f9ce46d6b4a4","null","","null","","","","","","","","./tasks/HMM-beads/Images/WhiteBeadChoiceCorrect.png","","","","","","","","","","","","","","","","","","",""
"image-keyboard-response","326","371107","0.0-4.0-6.0-1.0-0.83","60d2d061fd054556769ca306","635ab8fc87ce89828e04cd4d","635ac4236142f9ce46d6b4a4","0","","j","","","","","","","","./tasks/HMM-beads/Images/NewTrialWC.png","lowH","83","2","2","2","2","true","","","","","","","","","","","",""
"image-keyboard-response","327","371409","0.0-4.0-6.0-1.0-1.83","60d2d061fd054556769ca306","635ab8fc87ce89828e04cd4d","635ac4236142f9ce46d6b4a4","null","","null","","","","","","","","./tasks/HMM-beads/Images/WhiteBeadChoice.png","","","","","","","","","","","","","","","","","","",""
"image-keyboard-response","328","371922","0.0-4.0-6.0-1.0-2.83","60d2d061fd054556769ca306","635ab8fc87ce89828e04cd4d","635ac4236142f9ce46d6b4a4","null","","null","","","","","","","","./tasks/HMM-beads/Images/WhiteBeadChoiceCorrect.png","","","","","","","","","","","","","","","","","","",""
"image-keyboard-response","329","372092","0.0-4.0-6.0-1.0-0.84","60d2d061fd054556769ca306","635ab8fc87ce89828e04cd4d","635ac4236142f9ce46d6b4a4","169","","j","","","","","","","","./tasks/HMM-beads/Images/NewTrialWC.png","lowH","84","2","2","2","2","true","","","","","","","","","","","",""
"image-keyboard-response","330","372402","0.0-4.0-6.0-1.0-1.84","60d2d061fd054556769ca306","635ab8fc87ce89828e04cd4d","635ac4236142f9ce46d6b4a4","null","","null","","","","","","","","./tasks/HMM-beads/Images/WhiteBeadChoice.png","","","","","","","","","","","","","","","","","","",""
"image-keyboard-response","331","372915","0.0-4.0-6.0-1.0-2.84","60d2d061fd054556769ca306","635ab8fc87ce89828e04cd4d","635ac4236142f9ce46d6b4a4","null","","null","","","","","","","","./tasks/HMM-beads/Images/WhiteBeadChoiceCorrect.png","","","","","","","","","","","","","","","","","","",""
"image-keyboard-response","332","373041","0.0-4.0-6.0-1.0-0.85","60d2d061fd054556769ca306","635ab8fc87ce89828e04cd4d","635ac4236142f9ce46d6b4a4","124","","j","","","","","","","","./tasks/HMM-beads/Images/NewTrialWC.png","lowH","85","2","2","2","2","true","","","","","","","","","","","",""
"image-keyboard-response","333","373350","0.0-4.0-6.0-1.0-1.85","60d2d061fd054556769ca306","635ab8fc87ce89828e04cd4d","635ac4236142f9ce46d6b4a4","null","","null","","","","","","","","./tasks/HMM-beads/Images/WhiteBeadChoice.png","","","","","","","","","","","","","","","","","","",""
"image-keyboard-response","334","373861","0.0-4.0-6.0-1.0-2.85","60d2d061fd054556769ca306","635ab8fc87ce89828e04cd4d","635ac4236142f9ce46d6b4a4","null","","null","","","","","","","","./tasks/HMM-beads/Images/WhiteBeadChoiceCorrect.png","","","","","","","","","","","","","","","","","","",""
"image-keyboard-response","335","374019","0.0-4.0-6.0-1.0-0.86","60d2d061fd054556769ca306","635ab8fc87ce89828e04cd4d","635ac4236142f9ce46d6b4a4","157","","j","","","","","","","","./tasks/HMM-beads/Images/NewTrialWC.png","lowH","86","2","2","2","2","true","","","","","","","","","","","",""
"image-keyboard-response","336","374330","0.0-4.0-6.0-1.0-1.86","60d2d061fd054556769ca306","635ab8fc87ce89828e04cd4d","635ac4236142f9ce46d6b4a4","null","","null","","","","","","","","./tasks/HMM-beads/Images/WhiteBeadChoice.png","","","","","","","","","","","","","","","","","","",""
"image-keyboard-response","337","374844","0.0-4.0-6.0-1.0-2.86","60d2d061fd054556769ca306","635ab8fc87ce89828e04cd4d","635ac4236142f9ce46d6b4a4","null","","null","","","","","","","","./tasks/HMM-beads/Images/WhiteBeadChoiceCorrect.png","","","","","","","","","","","","","","","","","","",""
"image-keyboard-response","338","374986","0.0-4.0-6.0-1.0-0.87","60d2d061fd054556769ca306","635ab8fc87ce89828e04cd4d","635ac4236142f9ce46d6b4a4","141","","j","","","","","","","","./tasks/HMM-beads/Images/NewTrialWC.png","lowH","87","2","2","2","2","true","","","","","","","","","","","",""
