"trial_type","trial_index","time_elapsed","internal_node_id","subject_id","study_id","session_id","rt","url","response","question_order","view_history","success","timeout","failed_images","failed_audio","failed_video","stimulus","block","trial_number","jar","bead","previous_bead","choice","correct","highH_score","lowH_score","state","rewarded","state1_action","state2_visited","state1_key","state2_key","state1_rt","state2_rt","block_num","seq_file","trial_seq_info","two_arm_score_block1","two_arm_score_block2","two_arm_score_total","total_bonus"
"pavlovia","0","1554","0.0-0.0","5c2ff645644d5300010c25f3","63690f60c96a0a9a64b48fbd","636920633f084c7ff1c7618a","","","","","","","","","","","","","","","","","","","","","","","","","","","","","","","","","","",""
"external-html","1","31868","0.0-1.0-0.0","5c2ff645644d5300010c25f3","63690f60c96a0a9a64b48fbd","636920633f084c7ff1c7618a","30157","new_consent.html","","","","","","","","","","","","","","","","","","","","","","","","","","","","","","","","",""
"survey-multi-choice","2","37119","0.0-1.0-1.0","5c2ff645644d5300010c25f3","63690f60c96a0a9a64b48fbd","636920633f084c7ff1c7618a","5242","","{""Q0"":""Female"",""Q1"":""White""}","[0,1]","","","","","","","","","","","","","","","","","","","","","","","","","","","","","","",""
"survey-text","3","41444","0.0-1.0-2.0","5c2ff645644d5300010c25f3","63690f60c96a0a9a64b48fbd","636920633f084c7ff1c7618a","4284","","{""Q0"":""29""}","","","","","","","","","","","","","","","","","","","","","","","","","","","","","","","",""
"instructions","4","66532","0.0-2.0","5c2ff645644d5300010c25f3","63690f60c96a0a9a64b48fbd","636920633f084c7ff1c7618a","24985","","","","[{""page_index"":0,""viewing_time"":22799},{""page_index"":1,""viewing_time"":2184}]","","","","","","","","","","","","","","","","","","","","","","","","","","","","","",""
"instructions","5","68674","0.0-3.0","5c2ff645644d5300010c25f3","63690f60c96a0a9a64b48fbd","636920633f084c7ff1c7618a","2141","","","","[{""page_index"":0,""viewing_time"":2141}]","","","","","","","","","","","","","","","","","","","","","","","","","","","","","",""
"preload","6","69940","0.0-4.0-0.0","5c2ff645644d5300010c25f3","63690f60c96a0a9a64b48fbd","636920633f084c7ff1c7618a","","","","","","true","false","[]","[]","[]","","","","","","","","","","","","","","","","","","","","","","","","",""
"instructions","7","253995","0.0-4.0-1.0","5c2ff645644d5300010c25f3","63690f60c96a0a9a64b48fbd","636920633f084c7ff1c7618a","184054","","","","[{""page_index"":0,""viewing_time"":21494},{""page_index"":1,""viewing_time"":9088},{""page_index"":2,""viewing_time"":5392},{""page_index"":3,""viewing_time"":2616},{""page_index"":4,""viewing_time"":6193},{""page_index"":3,""viewing_time"":2783},{""page_index"":4,""viewing_time"":11720},{""page_index"":5,""viewing_time"":51968},{""page_index"":6,""viewing_time"":8968},{""page_index"":7,""viewing_time"":8256},{""page_index"":8,""viewing_time"":11808},{""page_index"":9,""viewing_time"":27488},{""page_index"":10,""viewing_time"":14384},{""page_index"":11,""viewing_time"":1896}]","","","","","","","","","","","","","","","","","","","","","","","","","","","","","",""
"html-button-response","8","257539","0.0-4.0-2.0-0.0-0.0","5c2ff645644d5300010c25f3","63690f60c96a0a9a64b48fbd","636920633f084c7ff1c7618a","3542","","1","","","","","","","","<div align=center>Your goal is to predict…?<br><br></div>","","","","","","","","","","","","","","","","","","","","","","","",""
"html-button-response","9","266419","0.0-4.0-2.0-1.0-0.0","5c2ff645644d5300010c25f3","63690f60c96a0a9a64b48fbd","636920633f084c7ff1c7618a","6879","","2","","","","","","","","<div align=center>In the jar with mostly white beads, there are ___% white beads and ___% black beads?<br><br></div>","","","","","","","","","","","","","","","","","","","","","","","",""
"html-button-response","10","274155","0.0-4.0-2.0-2.0-0.0","5c2ff645644d5300010c25f3","63690f60c96a0a9a64b48fbd","636920633f084c7ff1c7618a","6382","","1","","","","","","","","<div align=center>When there is a 1% probability that the jars will switch, the next bead will most likely be drawn from the…<br><br></div>","","","","","","","","","","","","","","","","","","","","","","","",""
"html-button-response","11","276691","0.0-4.0-2.0-2.1-0.1","5c2ff645644d5300010c25f3","63690f60c96a0a9a64b48fbd","636920633f084c7ff1c7618a","667","","0","","","","","","","","<div align=center>When there is a 1% probability that the jars will switch, the next bead will most likely be drawn from the…<br><br></div>","","","","","","","","","","","","","","","","","","","","","","","",""
"html-button-response","12","285803","0.0-4.0-2.0-3.0-0.0","5c2ff645644d5300010c25f3","63690f60c96a0a9a64b48fbd","636920633f084c7ff1c7618a","8174","","1","","","","","","","","<div align=center>When there is a 99% probability that the jars will switch, the next bead will most likely be drawn from the…<br><br></div>","","","","","","","","","","","","","","","","","","","","","","","",""
"instructions","13","339522","0.0-4.0-3.0","5c2ff645644d5300010c25f3","63690f60c96a0a9a64b48fbd","636920633f084c7ff1c7618a","52391","","","","[{""page_index"":0,""viewing_time"":52391}]","","","","","","","","","","","","","","","","","","","","","","","","","","","","","",""
"html-keyboard-response","14","346141","0.0-4.0-4.0-0.0","5c2ff645644d5300010c25f3","63690f60c96a0a9a64b48fbd","636920633f084c7ff1c7618a","6619",""," ","","","","","","","","<div align=center>In this practice block, there will be a <b>10% chance</b> that the jar on the next trial will be different from the jar on the current trial.<br><br></div>","","","","","","","","","","","","","","","","","","","","","","","",""
"image-keyboard-response","15","350826","0.0-4.0-4.0-1.0-0.0","5c2ff645644d5300010c25f3","63690f60c96a0a9a64b48fbd","636920633f084c7ff1c7618a","4656","","j","","","","","","","","./tasks/HMM-beads/Images/NoChoice.png","practice","0","1","1","0","2","false","","","","","","","","","","","","","","","","",""
"image-keyboard-response","16","351143","0.0-4.0-4.0-1.0-1.0","5c2ff645644d5300010c25f3","63690f60c96a0a9a64b48fbd","636920633f084c7ff1c7618a","null","","null","","","","","","","","./tasks/HMM-beads/Images/WhiteBeadChoice.png","","","","","","","","","","","","","","","","","","","","","","","",""
"image-keyboard-response","17","351651","0.0-4.0-4.0-1.0-2.0","5c2ff645644d5300010c25f3","63690f60c96a0a9a64b48fbd","636920633f084c7ff1c7618a","null","","null","","","","","","","","./tasks/HMM-beads/Images/WhiteBeadChoiceWrong.png","","","","","","","","","","","","","","","","","","","","","","","",""
"image-keyboard-response","18","354689","0.0-4.0-4.0-1.0-0.1","5c2ff645644d5300010c25f3","63690f60c96a0a9a64b48fbd","636920633f084c7ff1c7618a","3027","","f","","","","","","","","./tasks/HMM-beads/Images/NewTrialBC.png","practice","1","1","1","1","1","true","","","","","","","","","","","","","","","","",""
"image-keyboard-response","19","355000","0.0-4.0-4.0-1.0-1.1","5c2ff645644d5300010c25f3","63690f60c96a0a9a64b48fbd","636920633f084c7ff1c7618a","null","","null","","","","","","","","./tasks/HMM-beads/Images/BlackBeadChoice.png","","","","","","","","","","","","","","","","","","","","","","","",""
"image-keyboard-response","20","355509","0.0-4.0-4.0-1.0-2.1","5c2ff645644d5300010c25f3","63690f60c96a0a9a64b48fbd","636920633f084c7ff1c7618a","null","","null","","","","","","","","./tasks/HMM-beads/Images/BlackBeadChoiceCorrect.png","","","","","","","","","","","","","","","","","","","","","","","",""
"image-keyboard-response","21","357609","0.0-4.0-4.0-1.0-0.2","5c2ff645644d5300010c25f3","63690f60c96a0a9a64b48fbd","636920633f084c7ff1c7618a","2089","","f","","","","","","","","./tasks/HMM-beads/Images/NewTrialBC.png","practice","2","1","2","1","1","false","","","","","","","","","","","","","","","","",""
"image-keyboard-response","22","357923","0.0-4.0-4.0-1.0-1.2","5c2ff645644d5300010c25f3","63690f60c96a0a9a64b48fbd","636920633f084c7ff1c7618a","null","","null","","","","","","","","./tasks/HMM-beads/Images/BlackBeadChoice.png","","","","","","","","","","","","","","","","","","","","","","","",""
"image-keyboard-response","23","358431","0.0-4.0-4.0-1.0-2.2","5c2ff645644d5300010c25f3","63690f60c96a0a9a64b48fbd","636920633f084c7ff1c7618a","null","","null","","","","","","","","./tasks/HMM-beads/Images/BlackBeadChoiceWrong.png","","","","","","","","","","","","","","","","","","","","","","","",""
"image-keyboard-response","24","361641","0.0-4.0-4.0-1.0-0.3","5c2ff645644d5300010c25f3","63690f60c96a0a9a64b48fbd","636920633f084c7ff1c7618a","3199","","f","","","","","","","","./tasks/HMM-beads/Images/NewTrialWC.png","practice","3","1","1","2","1","true","","","","","","","","","","","","","","","","",""
"image-keyboard-response","25","361948","0.0-4.0-4.0-1.0-1.3","5c2ff645644d5300010c25f3","63690f60c96a0a9a64b48fbd","636920633f084c7ff1c7618a","null","","null","","","","","","","","./tasks/HMM-beads/Images/BlackBeadChoice.png","","","","","","","","","","","","","","","","","","","","","","","",""
"image-keyboard-response","26","362455","0.0-4.0-4.0-1.0-2.3","5c2ff645644d5300010c25f3","63690f60c96a0a9a64b48fbd","636920633f084c7ff1c7618a","null","","null","","","","","","","","./tasks/HMM-beads/Images/BlackBeadChoiceCorrect.png","","","","","","","","","","","","","","","","","","","","","","","",""
"image-keyboard-response","27","363951","0.0-4.0-4.0-1.0-0.4","5c2ff645644d5300010c25f3","63690f60c96a0a9a64b48fbd","636920633f084c7ff1c7618a","1494","","j","","","","","","","","./tasks/HMM-beads/Images/NewTrialBC.png","practice","4","1","2","1","2","true","","","","","","","","","","","","","","","","",""
"image-keyboard-response","28","364257","0.0-4.0-4.0-1.0-1.4","5c2ff645644d5300010c25f3","63690f60c96a0a9a64b48fbd","636920633f084c7ff1c7618a","null","","null","","","","","","","","./tasks/HMM-beads/Images/WhiteBeadChoice.png","","","","","","","","","","","","","","","","","","","","","","","",""
"image-keyboard-response","29","364770","0.0-4.0-4.0-1.0-2.4","5c2ff645644d5300010c25f3","63690f60c96a0a9a64b48fbd","636920633f084c7ff1c7618a","null","","null","","","","","","","","./tasks/HMM-beads/Images/WhiteBeadChoiceCorrect.png","","","","","","","","","","","","","","","","","","","","","","","",""
"image-keyboard-response","30","367179","0.0-4.0-4.0-1.0-0.5","5c2ff645644d5300010c25f3","63690f60c96a0a9a64b48fbd","636920633f084c7ff1c7618a","2407","","j","","","","","","","","./tasks/HMM-beads/Images/NewTrialWC.png","practice","5","1","1","2","2","false","","","","","","","","","","","","","","","","",""
"image-keyboard-response","31","367508","0.0-4.0-4.0-1.0-1.5","5c2ff645644d5300010c25f3","63690f60c96a0a9a64b48fbd","636920633f084c7ff1c7618a","null","","null","","","","","","","","./tasks/HMM-beads/Images/WhiteBeadChoice.png","","","","","","","","","","","","","","","","","","","","","","","",""
"image-keyboard-response","32","368017","0.0-4.0-4.0-1.0-2.5","5c2ff645644d5300010c25f3","63690f60c96a0a9a64b48fbd","636920633f084c7ff1c7618a","null","","null","","","","","","","","./tasks/HMM-beads/Images/WhiteBeadChoiceWrong.png","","","","","","","","","","","","","","","","","","","","","","","",""
"image-keyboard-response","33","371417","0.0-4.0-4.0-1.0-0.6","5c2ff645644d5300010c25f3","63690f60c96a0a9a64b48fbd","636920633f084c7ff1c7618a","3385","","j","","","","","","","","./tasks/HMM-beads/Images/NewTrialBC.png","practice","6","1","2","1","2","true","","","","","","","","","","","","","","","","",""
"image-keyboard-response","34","371730","0.0-4.0-4.0-1.0-1.6","5c2ff645644d5300010c25f3","63690f60c96a0a9a64b48fbd","636920633f084c7ff1c7618a","null","","null","","","","","","","","./tasks/HMM-beads/Images/WhiteBeadChoice.png","","","","","","","","","","","","","","","","","","","","","","","",""
"image-keyboard-response","35","372239","0.0-4.0-4.0-1.0-2.6","5c2ff645644d5300010c25f3","63690f60c96a0a9a64b48fbd","636920633f084c7ff1c7618a","null","","null","","","","","","","","./tasks/HMM-beads/Images/WhiteBeadChoiceCorrect.png","","","","","","","","","","","","","","","","","","","","","","","",""
"image-keyboard-response","36","374217","0.0-4.0-4.0-1.0-0.7","5c2ff645644d5300010c25f3","63690f60c96a0a9a64b48fbd","636920633f084c7ff1c7618a","1965","","f","","","","","","","","./tasks/HMM-beads/Images/NewTrialWC.png","practice","7","1","1","2","1","true","","","","","","","","","","","","","","","","",""
"image-keyboard-response","37","374537","0.0-4.0-4.0-1.0-1.7","5c2ff645644d5300010c25f3","63690f60c96a0a9a64b48fbd","636920633f084c7ff1c7618a","null","","null","","","","","","","","./tasks/HMM-beads/Images/BlackBeadChoice.png","","","","","","","","","","","","","","","","","","","","","","","",""
"image-keyboard-response","38","375047","0.0-4.0-4.0-1.0-2.7","5c2ff645644d5300010c25f3","63690f60c96a0a9a64b48fbd","636920633f084c7ff1c7618a","null","","null","","","","","","","","./tasks/HMM-beads/Images/BlackBeadChoiceCorrect.png","","","","","","","","","","","","","","","","","","","","","","","",""
"image-keyboard-response","39","376558","0.0-4.0-4.0-1.0-0.8","5c2ff645644d5300010c25f3","63690f60c96a0a9a64b48fbd","636920633f084c7ff1c7618a","1509","","j","","","","","","","","./tasks/HMM-beads/Images/NewTrialBC.png","practice","8","1","1","1","2","false","","","","","","","","","","","","","","","","",""
"image-keyboard-response","40","376860","0.0-4.0-4.0-1.0-1.8","5c2ff645644d5300010c25f3","63690f60c96a0a9a64b48fbd","636920633f084c7ff1c7618a","null","","null","","","","","","","","./tasks/HMM-beads/Images/WhiteBeadChoice.png","","","","","","","","","","","","","","","","","","","","","","","",""
"image-keyboard-response","41","377368","0.0-4.0-4.0-1.0-2.8","5c2ff645644d5300010c25f3","63690f60c96a0a9a64b48fbd","636920633f084c7ff1c7618a","null","","null","","","","","","","","./tasks/HMM-beads/Images/WhiteBeadChoiceWrong.png","","","","","","","","","","","","","","","","","","","","","","","",""
"image-keyboard-response","42","378742","0.0-4.0-4.0-1.0-0.9","5c2ff645644d5300010c25f3","63690f60c96a0a9a64b48fbd","636920633f084c7ff1c7618a","1373","","j","","","","","","","","./tasks/HMM-beads/Images/NewTrialBC.png","practice","9","2","2","1","2","true","","","","","","","","","","","","","","","","",""
"image-keyboard-response","43","379070","0.0-4.0-4.0-1.0-1.9","5c2ff645644d5300010c25f3","63690f60c96a0a9a64b48fbd","636920633f084c7ff1c7618a","null","","null","","","","","","","","./tasks/HMM-beads/Images/WhiteBeadChoice.png","","","","","","","","","","","","","","","","","","","","","","","",""
"image-keyboard-response","44","379570","0.0-4.0-4.0-1.0-2.9","5c2ff645644d5300010c25f3","63690f60c96a0a9a64b48fbd","636920633f084c7ff1c7618a","null","","null","","","","","","","","./tasks/HMM-beads/Images/WhiteBeadChoiceCorrect.png","","","","","","","","","","","","","","","","","","","","","","","",""
"image-keyboard-response","45","381066","0.0-4.0-4.0-1.0-0.10","5c2ff645644d5300010c25f3","63690f60c96a0a9a64b48fbd","636920633f084c7ff1c7618a","1495","","f","","","","","","","","./tasks/HMM-beads/Images/NewTrialWC.png","practice","10","2","1","2","1","true","","","","","","","","","","","","","","","","",""
"image-keyboard-response","46","381400","0.0-4.0-4.0-1.0-1.10","5c2ff645644d5300010c25f3","63690f60c96a0a9a64b48fbd","636920633f084c7ff1c7618a","null","","null","","","","","","","","./tasks/HMM-beads/Images/BlackBeadChoice.png","","","","","","","","","","","","","","","","","","","","","","","",""
"image-keyboard-response","47","381908","0.0-4.0-4.0-1.0-2.10","5c2ff645644d5300010c25f3","63690f60c96a0a9a64b48fbd","636920633f084c7ff1c7618a","null","","null","","","","","","","","./tasks/HMM-beads/Images/BlackBeadChoiceCorrect.png","","","","","","","","","","","","","","","","","","","","","","","",""
"image-keyboard-response","48","383337","0.0-4.0-4.0-1.0-0.11","5c2ff645644d5300010c25f3","63690f60c96a0a9a64b48fbd","636920633f084c7ff1c7618a","1419","","f","","","","","","","","./tasks/HMM-beads/Images/NewTrialBC.png","practice","11","2","2","1","1","false","","","","","","","","","","","","","","","","",""
"image-keyboard-response","49","383654","0.0-4.0-4.0-1.0-1.11","5c2ff645644d5300010c25f3","63690f60c96a0a9a64b48fbd","636920633f084c7ff1c7618a","null","","null","","","","","","","","./tasks/HMM-beads/Images/BlackBeadChoice.png","","","","","","","","","","","","","","","","","","","","","","","",""
"image-keyboard-response","50","384165","0.0-4.0-4.0-1.0-2.11","5c2ff645644d5300010c25f3","63690f60c96a0a9a64b48fbd","636920633f084c7ff1c7618a","null","","null","","","","","","","","./tasks/HMM-beads/Images/BlackBeadChoiceWrong.png","","","","","","","","","","","","","","","","","","","","","","","",""
"image-keyboard-response","51","385729","0.0-4.0-4.0-1.0-0.12","5c2ff645644d5300010c25f3","63690f60c96a0a9a64b48fbd","636920633f084c7ff1c7618a","1557","","f","","","","","","","","./tasks/HMM-beads/Images/NewTrialWC.png","practice","12","2","2","2","1","false","","","","","","","","","","","","","","","","",""
"image-keyboard-response","52","386039","0.0-4.0-4.0-1.0-1.12","5c2ff645644d5300010c25f3","63690f60c96a0a9a64b48fbd","636920633f084c7ff1c7618a","null","","null","","","","","","","","./tasks/HMM-beads/Images/BlackBeadChoice.png","","","","","","","","","","","","","","","","","","","","","","","",""
"image-keyboard-response","53","386552","0.0-4.0-4.0-1.0-2.12","5c2ff645644d5300010c25f3","63690f60c96a0a9a64b48fbd","636920633f084c7ff1c7618a","null","","null","","","","","","","","./tasks/HMM-beads/Images/BlackBeadChoiceWrong.png","","","","","","","","","","","","","","","","","","","","","","","",""
"image-keyboard-response","54","387481","0.0-4.0-4.0-1.0-0.13","5c2ff645644d5300010c25f3","63690f60c96a0a9a64b48fbd","636920633f084c7ff1c7618a","918","","f","","","","","","","","./tasks/HMM-beads/Images/NewTrialWC.png","practice","13","2","2","2","1","false","","","","","","","","","","","","","","","","",""
"image-keyboard-response","55","387797","0.0-4.0-4.0-1.0-1.13","5c2ff645644d5300010c25f3","63690f60c96a0a9a64b48fbd","636920633f084c7ff1c7618a","null","","null","","","","","","","","./tasks/HMM-beads/Images/BlackBeadChoice.png","","","","","","","","","","","","","","","","","","","","","","","",""
"image-keyboard-response","56","388304","0.0-4.0-4.0-1.0-2.13","5c2ff645644d5300010c25f3","63690f60c96a0a9a64b48fbd","636920633f084c7ff1c7618a","null","","null","","","","","","","","./tasks/HMM-beads/Images/BlackBeadChoiceWrong.png","","","","","","","","","","","","","","","","","","","","","","","",""
"image-keyboard-response","57","390490","0.0-4.0-4.0-1.0-0.14","5c2ff645644d5300010c25f3","63690f60c96a0a9a64b48fbd","636920633f084c7ff1c7618a","2184","","j","","","","","","","","./tasks/HMM-beads/Images/NewTrialWC.png","practice","14","2","2","2","2","true","","","","","","","","","","","","","","","","",""
"image-keyboard-response","58","390819","0.0-4.0-4.0-1.0-1.14","5c2ff645644d5300010c25f3","63690f60c96a0a9a64b48fbd","636920633f084c7ff1c7618a","null","","null","","","","","","","","./tasks/HMM-beads/Images/WhiteBeadChoice.png","","","","","","","","","","","","","","","","","","","","","","","",""
"image-keyboard-response","59","391329","0.0-4.0-4.0-1.0-2.14","5c2ff645644d5300010c25f3","63690f60c96a0a9a64b48fbd","636920633f084c7ff1c7618a","null","","null","","","","","","","","./tasks/HMM-beads/Images/WhiteBeadChoiceCorrect.png","","","","","","","","","","","","","","","","","","","","","","","",""
"image-keyboard-response","60","392997","0.0-4.0-4.0-1.0-0.15","5c2ff645644d5300010c25f3","63690f60c96a0a9a64b48fbd","636920633f084c7ff1c7618a","1667","","j","","","","","","","","./tasks/HMM-beads/Images/NewTrialWC.png","practice","15","1","1","2","2","false","","","","","","","","","","","","","","","","",""
"image-keyboard-response","61","393308","0.0-4.0-4.0-1.0-1.15","5c2ff645644d5300010c25f3","63690f60c96a0a9a64b48fbd","636920633f084c7ff1c7618a","null","","null","","","","","","","","./tasks/HMM-beads/Images/WhiteBeadChoice.png","","","","","","","","","","","","","","","","","","","","","","","",""
"image-keyboard-response","62","393817","0.0-4.0-4.0-1.0-2.15","5c2ff645644d5300010c25f3","63690f60c96a0a9a64b48fbd","636920633f084c7ff1c7618a","null","","null","","","","","","","","./tasks/HMM-beads/Images/WhiteBeadChoiceWrong.png","","","","","","","","","","","","","","","","","","","","","","","",""
"image-keyboard-response","63","395890","0.0-4.0-4.0-1.0-0.16","5c2ff645644d5300010c25f3","63690f60c96a0a9a64b48fbd","636920633f084c7ff1c7618a","2064","","j","","","","","","","","./tasks/HMM-beads/Images/NewTrialBC.png","practice","16","1","2","1","2","true","","","","","","","","","","","","","","","","",""
"image-keyboard-response","64","396198","0.0-4.0-4.0-1.0-1.16","5c2ff645644d5300010c25f3","63690f60c96a0a9a64b48fbd","636920633f084c7ff1c7618a","null","","null","","","","","","","","./tasks/HMM-beads/Images/WhiteBeadChoice.png","","","","","","","","","","","","","","","","","","","","","","","",""
"image-keyboard-response","65","396706","0.0-4.0-4.0-1.0-2.16","5c2ff645644d5300010c25f3","63690f60c96a0a9a64b48fbd","636920633f084c7ff1c7618a","null","","null","","","","","","","","./tasks/HMM-beads/Images/WhiteBeadChoiceCorrect.png","","","","","","","","","","","","","","","","","","","","","","","",""
"image-keyboard-response","66","398066","0.0-4.0-4.0-1.0-0.17","5c2ff645644d5300010c25f3","63690f60c96a0a9a64b48fbd","636920633f084c7ff1c7618a","1353","","f","","","","","","","","./tasks/HMM-beads/Images/NewTrialWC.png","practice","17","1","1","2","1","true","","","","","","","","","","","","","","","","",""
"image-keyboard-response","67","398370","0.0-4.0-4.0-1.0-1.17","5c2ff645644d5300010c25f3","63690f60c96a0a9a64b48fbd","636920633f084c7ff1c7618a","null","","null","","","","","","","","./tasks/HMM-beads/Images/BlackBeadChoice.png","","","","","","","","","","","","","","","","","","","","","","","",""
"image-keyboard-response","68","398877","0.0-4.0-4.0-1.0-2.17","5c2ff645644d5300010c25f3","63690f60c96a0a9a64b48fbd","636920633f084c7ff1c7618a","null","","null","","","","","","","","./tasks/HMM-beads/Images/BlackBeadChoiceCorrect.png","","","","","","","","","","","","","","","","","","","","","","","",""
"image-keyboard-response","69","401124","0.0-4.0-4.0-1.0-0.18","5c2ff645644d5300010c25f3","63690f60c96a0a9a64b48fbd","636920633f084c7ff1c7618a","2245","","f","","","","","","","","./tasks/HMM-beads/Images/NewTrialBC.png","practice","18","1","1","1","1","true","","","","","","","","","","","","","","","","",""
"image-keyboard-response","70","401443","0.0-4.0-4.0-1.0-1.18","5c2ff645644d5300010c25f3","63690f60c96a0a9a64b48fbd","636920633f084c7ff1c7618a","null","","null","","","","","","","","./tasks/HMM-beads/Images/BlackBeadChoice.png","","","","","","","","","","","","","","","","","","","","","","","",""
"image-keyboard-response","71","401950","0.0-4.0-4.0-1.0-2.18","5c2ff645644d5300010c25f3","63690f60c96a0a9a64b48fbd","636920633f084c7ff1c7618a","null","","null","","","","","","","","./tasks/HMM-beads/Images/BlackBeadChoiceCorrect.png","","","","","","","","","","","","","","","","","","","","","","","",""
"image-keyboard-response","72","404274","0.0-4.0-4.0-1.0-0.19","5c2ff645644d5300010c25f3","63690f60c96a0a9a64b48fbd","636920633f084c7ff1c7618a","2309","","j","","","","","","","","./tasks/HMM-beads/Images/NewTrialBC.png","practice","19","1","1","1","2","false","","","","","","","","","","","","","","","","",""
"image-keyboard-response","73","404581","0.0-4.0-4.0-1.0-1.19","5c2ff645644d5300010c25f3","63690f60c96a0a9a64b48fbd","636920633f084c7ff1c7618a","null","","null","","","","","","","","./tasks/HMM-beads/Images/WhiteBeadChoice.png","","","","","","","","","","","","","","","","","","","","","","","",""
"image-keyboard-response","74","405088","0.0-4.0-4.0-1.0-2.19","5c2ff645644d5300010c25f3","63690f60c96a0a9a64b48fbd","636920633f084c7ff1c7618a","null","","null","","","","","","","","./tasks/HMM-beads/Images/WhiteBeadChoiceWrong.png","","","","","","","","","","","","","","","","","","","","","","","",""
"html-keyboard-response","75","408083","0.0-4.0-4.0-2.0","5c2ff645644d5300010c25f3","63690f60c96a0a9a64b48fbd","636920633f084c7ff1c7618a","2975",""," ","","","","","","","","","","","","","","","","","","","","","","","","","","","","","","","",""
"instructions","76","426348","0.0-4.0-5.0","5c2ff645644d5300010c25f3","63690f60c96a0a9a64b48fbd","636920633f084c7ff1c7618a","18265","","","","[{""page_index"":0,""viewing_time"":14632},{""page_index"":1,""viewing_time"":3632}]","","","","","","","","","","","","","","","","","","","","","","","","","","","","","",""
"html-keyboard-response","77","435242","0.0-4.0-6.0-0.0","5c2ff645644d5300010c25f3","63690f60c96a0a9a64b48fbd","636920633f084c7ff1c7618a","8893",""," ","","","","","","","","<div align=center>In this block, there will be a <b>99%</b> chance that the jar on the next trial will be different from the jar on the current trial.<br><br></div>","","","","","","","","","","","","","","","","","","","","","","","",""
"image-keyboard-response","78","436890","0.0-4.0-6.0-1.0-0.0","5c2ff645644d5300010c25f3","63690f60c96a0a9a64b48fbd","636920633f084c7ff1c7618a","1640","","j","","","","","","","","./tasks/HMM-beads/Images/NoChoice.png","highH","0","1","1","0","2","false","","","","","","","","","","","","","","","","",""
"image-keyboard-response","79","437196","0.0-4.0-6.0-1.0-1.0","5c2ff645644d5300010c25f3","63690f60c96a0a9a64b48fbd","636920633f084c7ff1c7618a","null","","null","","","","","","","","./tasks/HMM-beads/Images/WhiteBeadChoice.png","","","","","","","","","","","","","","","","","","","","","","","",""
"image-keyboard-response","80","437703","0.0-4.0-6.0-1.0-2.0","5c2ff645644d5300010c25f3","63690f60c96a0a9a64b48fbd","636920633f084c7ff1c7618a","null","","null","","","","","","","","./tasks/HMM-beads/Images/WhiteBeadChoiceWrong.png","","","","","","","","","","","","","","","","","","","","","","","",""
"image-keyboard-response","81","439290","0.0-4.0-6.0-1.0-0.1","5c2ff645644d5300010c25f3","63690f60c96a0a9a64b48fbd","636920633f084c7ff1c7618a","1572","","j","","","","","","","","./tasks/HMM-beads/Images/NewTrialBC.png","highH","1","2","2","1","2","true","","","","","","","","","","","","","","","","",""
"image-keyboard-response","82","439601","0.0-4.0-6.0-1.0-1.1","5c2ff645644d5300010c25f3","63690f60c96a0a9a64b48fbd","636920633f084c7ff1c7618a","null","","null","","","","","","","","./tasks/HMM-beads/Images/WhiteBeadChoice.png","","","","","","","","","","","","","","","","","","","","","","","",""
"image-keyboard-response","83","440109","0.0-4.0-6.0-1.0-2.1","5c2ff645644d5300010c25f3","63690f60c96a0a9a64b48fbd","636920633f084c7ff1c7618a","null","","null","","","","","","","","./tasks/HMM-beads/Images/WhiteBeadChoiceCorrect.png","","","","","","","","","","","","","","","","","","","","","","","",""
"image-keyboard-response","84","441566","0.0-4.0-6.0-1.0-0.2","5c2ff645644d5300010c25f3","63690f60c96a0a9a64b48fbd","636920633f084c7ff1c7618a","1455","","f","","","","","","","","./tasks/HMM-beads/Images/NewTrialWC.png","highH","2","1","1","2","1","true","","","","","","","","","","","","","","","","",""
"image-keyboard-response","85","441894","0.0-4.0-6.0-1.0-1.2","5c2ff645644d5300010c25f3","63690f60c96a0a9a64b48fbd","636920633f084c7ff1c7618a","null","","null","","","","","","","","./tasks/HMM-beads/Images/BlackBeadChoice.png","","","","","","","","","","","","","","","","","","","","","","","",""
"image-keyboard-response","86","442410","0.0-4.0-6.0-1.0-2.2","5c2ff645644d5300010c25f3","63690f60c96a0a9a64b48fbd","636920633f084c7ff1c7618a","null","","null","","","","","","","","./tasks/HMM-beads/Images/BlackBeadChoiceCorrect.png","","","","","","","","","","","","","","","","","","","","","","","",""
"image-keyboard-response","87","443738","0.0-4.0-6.0-1.0-0.3","5c2ff645644d5300010c25f3","63690f60c96a0a9a64b48fbd","636920633f084c7ff1c7618a","1325","","f","","","","","","","","./tasks/HMM-beads/Images/NewTrialBC.png","highH","3","2","2","1","1","false","","","","","","","","","","","","","","","","",""
"image-keyboard-response","88","444057","0.0-4.0-6.0-1.0-1.3","5c2ff645644d5300010c25f3","63690f60c96a0a9a64b48fbd","636920633f084c7ff1c7618a","null","","null","","","","","","","","./tasks/HMM-beads/Images/BlackBeadChoice.png","","","","","","","","","","","","","","","","","","","","","","","",""
"image-keyboard-response","89","444567","0.0-4.0-6.0-1.0-2.3","5c2ff645644d5300010c25f3","63690f60c96a0a9a64b48fbd","636920633f084c7ff1c7618a","null","","null","","","","","","","","./tasks/HMM-beads/Images/BlackBeadChoiceWrong.png","","","","","","","","","","","","","","","","","","","","","","","",""
"image-keyboard-response","90","446092","0.0-4.0-6.0-1.0-0.4","5c2ff645644d5300010c25f3","63690f60c96a0a9a64b48fbd","636920633f084c7ff1c7618a","1502","","f","","","","","","","","./tasks/HMM-beads/Images/NewTrialWC.png","highH","4","1","1","2","1","true","","","","","","","","","","","","","","","","",""
"image-keyboard-response","91","446419","0.0-4.0-6.0-1.0-1.4","5c2ff645644d5300010c25f3","63690f60c96a0a9a64b48fbd","636920633f084c7ff1c7618a","null","","null","","","","","","","","./tasks/HMM-beads/Images/BlackBeadChoice.png","","","","","","","","","","","","","","","","","","","","","","","",""
"image-keyboard-response","92","446937","0.0-4.0-6.0-1.0-2.4","5c2ff645644d5300010c25f3","63690f60c96a0a9a64b48fbd","636920633f084c7ff1c7618a","null","","null","","","","","","","","./tasks/HMM-beads/Images/BlackBeadChoiceCorrect.png","","","","","","","","","","","","","","","","","","","","","","","",""
"image-keyboard-response","93","448201","0.0-4.0-6.0-1.0-0.5","5c2ff645644d5300010c25f3","63690f60c96a0a9a64b48fbd","636920633f084c7ff1c7618a","1263","","j","","","","","","","","./tasks/HMM-beads/Images/NewTrialBC.png","highH","5","2","2","1","2","true","","","","","","","","","","","","","","","","",""
"image-keyboard-response","94","448518","0.0-4.0-6.0-1.0-1.5","5c2ff645644d5300010c25f3","63690f60c96a0a9a64b48fbd","636920633f084c7ff1c7618a","null","","null","","","","","","","","./tasks/HMM-beads/Images/WhiteBeadChoice.png","","","","","","","","","","","","","","","","","","","","","","","",""
"image-keyboard-response","95","449025","0.0-4.0-6.0-1.0-2.5","5c2ff645644d5300010c25f3","63690f60c96a0a9a64b48fbd","636920633f084c7ff1c7618a","null","","null","","","","","","","","./tasks/HMM-beads/Images/WhiteBeadChoiceCorrect.png","","","","","","","","","","","","","","","","","","","","","","","",""
"image-keyboard-response","96","450304","0.0-4.0-6.0-1.0-0.6","5c2ff645644d5300010c25f3","63690f60c96a0a9a64b48fbd","636920633f084c7ff1c7618a","1278","","j","","","","","","","","./tasks/HMM-beads/Images/NewTrialWC.png","highH","6","1","1","2","2","false","","","","","","","","","","","","","","","","",""
"image-keyboard-response","97","450608","0.0-4.0-6.0-1.0-1.6","5c2ff645644d5300010c25f3","63690f60c96a0a9a64b48fbd","636920633f084c7ff1c7618a","null","","null","","","","","","","","./tasks/HMM-beads/Images/WhiteBeadChoice.png","","","","","","","","","","","","","","","","","","","","","","","",""
"image-keyboard-response","98","451128","0.0-4.0-6.0-1.0-2.6","5c2ff645644d5300010c25f3","63690f60c96a0a9a64b48fbd","636920633f084c7ff1c7618a","null","","null","","","","","","","","./tasks/HMM-beads/Images/WhiteBeadChoiceWrong.png","","","","","","","","","","","","","","","","","","","","","","","",""
"image-keyboard-response","99","452082","0.0-4.0-6.0-1.0-0.7","5c2ff645644d5300010c25f3","63690f60c96a0a9a64b48fbd","636920633f084c7ff1c7618a","949","","j","","","","","","","","./tasks/HMM-beads/Images/NewTrialBC.png","highH","7","2","1","1","2","false","","","","","","","","","","","","","","","","",""
"image-keyboard-response","100","452392","0.0-4.0-6.0-1.0-1.7","5c2ff645644d5300010c25f3","63690f60c96a0a9a64b48fbd","636920633f084c7ff1c7618a","null","","null","","","","","","","","./tasks/HMM-beads/Images/WhiteBeadChoice.png","","","","","","","","","","","","","","","","","","","","","","","",""
"image-keyboard-response","101","452901","0.0-4.0-6.0-1.0-2.7","5c2ff645644d5300010c25f3","63690f60c96a0a9a64b48fbd","636920633f084c7ff1c7618a","null","","null","","","","","","","","./tasks/HMM-beads/Images/WhiteBeadChoiceWrong.png","","","","","","","","","","","","","","","","","","","","","","","",""
"image-keyboard-response","102","455202","0.0-4.0-6.0-1.0-0.8","5c2ff645644d5300010c25f3","63690f60c96a0a9a64b48fbd","636920633f084c7ff1c7618a","2292","","j","","","","","","","","./tasks/HMM-beads/Images/NewTrialBC.png","highH","8","1","1","1","2","false","","","","","","","","","","","","","","","","",""
"image-keyboard-response","103","455535","0.0-4.0-6.0-1.0-1.8","5c2ff645644d5300010c25f3","63690f60c96a0a9a64b48fbd","636920633f084c7ff1c7618a","null","","null","","","","","","","","./tasks/HMM-beads/Images/WhiteBeadChoice.png","","","","","","","","","","","","","","","","","","","","","","","",""
"image-keyboard-response","104","456037","0.0-4.0-6.0-1.0-2.8","5c2ff645644d5300010c25f3","63690f60c96a0a9a64b48fbd","636920633f084c7ff1c7618a","null","","null","","","","","","","","./tasks/HMM-beads/Images/WhiteBeadChoiceWrong.png","","","","","","","","","","","","","","","","","","","","","","","",""
"image-keyboard-response","105","456962","0.0-4.0-6.0-1.0-0.9","5c2ff645644d5300010c25f3","63690f60c96a0a9a64b48fbd","636920633f084c7ff1c7618a","920","","f","","","","","","","","./tasks/HMM-beads/Images/NewTrialBC.png","highH","9","2","2","1","1","false","","","","","","","","","","","","","","","","",""
"image-keyboard-response","106","457269","0.0-4.0-6.0-1.0-1.9","5c2ff645644d5300010c25f3","63690f60c96a0a9a64b48fbd","636920633f084c7ff1c7618a","null","","null","","","","","","","","./tasks/HMM-beads/Images/BlackBeadChoice.png","","","","","","","","","","","","","","","","","","","","","","","",""
"image-keyboard-response","107","457775","0.0-4.0-6.0-1.0-2.9","5c2ff645644d5300010c25f3","63690f60c96a0a9a64b48fbd","636920633f084c7ff1c7618a","null","","null","","","","","","","","./tasks/HMM-beads/Images/BlackBeadChoiceWrong.png","","","","","","","","","","","","","","","","","","","","","","","",""
"image-keyboard-response","108","458836","0.0-4.0-6.0-1.0-0.10","5c2ff645644d5300010c25f3","63690f60c96a0a9a64b48fbd","636920633f084c7ff1c7618a","1060","","j","","","","","","","","./tasks/HMM-beads/Images/NewTrialWC.png","highH","10","1","1","2","2","false","","","","","","","","","","","","","","","","",""
"image-keyboard-response","109","459155","0.0-4.0-6.0-1.0-1.10","5c2ff645644d5300010c25f3","63690f60c96a0a9a64b48fbd","636920633f084c7ff1c7618a","null","","null","","","","","","","","./tasks/HMM-beads/Images/WhiteBeadChoice.png","","","","","","","","","","","","","","","","","","","","","","","",""
"image-keyboard-response","110","459663","0.0-4.0-6.0-1.0-2.10","5c2ff645644d5300010c25f3","63690f60c96a0a9a64b48fbd","636920633f084c7ff1c7618a","null","","null","","","","","","","","./tasks/HMM-beads/Images/WhiteBeadChoiceWrong.png","","","","","","","","","","","","","","","","","","","","","","","",""
"image-keyboard-response","111","460894","0.0-4.0-6.0-1.0-0.11","5c2ff645644d5300010c25f3","63690f60c96a0a9a64b48fbd","636920633f084c7ff1c7618a","1229","","f","","","","","","","","./tasks/HMM-beads/Images/NewTrialBC.png","highH","11","2","2","1","1","false","","","","","","","","","","","","","","","","",""
"image-keyboard-response","112","461209","0.0-4.0-6.0-1.0-1.11","5c2ff645644d5300010c25f3","63690f60c96a0a9a64b48fbd","636920633f084c7ff1c7618a","null","","null","","","","","","","","./tasks/HMM-beads/Images/BlackBeadChoice.png","","","","","","","","","","","","","","","","","","","","","","","",""
"image-keyboard-response","113","461718","0.0-4.0-6.0-1.0-2.11","5c2ff645644d5300010c25f3","63690f60c96a0a9a64b48fbd","636920633f084c7ff1c7618a","null","","null","","","","","","","","./tasks/HMM-beads/Images/BlackBeadChoiceWrong.png","","","","","","","","","","","","","","","","","","","","","","","",""
"image-keyboard-response","114","462854","0.0-4.0-6.0-1.0-0.12","5c2ff645644d5300010c25f3","63690f60c96a0a9a64b48fbd","636920633f084c7ff1c7618a","1134","","f","","","","","","","","./tasks/HMM-beads/Images/NewTrialWC.png","highH","12","1","1","2","1","true","","","","","","","","","","","","","","","","",""
"image-keyboard-response","115","463163","0.0-4.0-6.0-1.0-1.12","5c2ff645644d5300010c25f3","63690f60c96a0a9a64b48fbd","636920633f084c7ff1c7618a","null","","null","","","","","","","","./tasks/HMM-beads/Images/BlackBeadChoice.png","","","","","","","","","","","","","","","","","","","","","","","",""
"image-keyboard-response","116","463688","0.0-4.0-6.0-1.0-2.12","5c2ff645644d5300010c25f3","63690f60c96a0a9a64b48fbd","636920633f084c7ff1c7618a","null","","null","","","","","","","","./tasks/HMM-beads/Images/BlackBeadChoiceCorrect.png","","","","","","","","","","","","","","","","","","","","","","","",""
"image-keyboard-response","117","465298","0.0-4.0-6.0-1.0-0.13","5c2ff645644d5300010c25f3","63690f60c96a0a9a64b48fbd","636920633f084c7ff1c7618a","1605","","j","","","","","","","","./tasks/HMM-beads/Images/NewTrialBC.png","highH","13","2","1","1","2","false","","","","","","","","","","","","","","","","",""
"image-keyboard-response","118","465618","0.0-4.0-6.0-1.0-1.13","5c2ff645644d5300010c25f3","63690f60c96a0a9a64b48fbd","636920633f084c7ff1c7618a","null","","null","","","","","","","","./tasks/HMM-beads/Images/WhiteBeadChoice.png","","","","","","","","","","","","","","","","","","","","","","","",""
"image-keyboard-response","119","466125","0.0-4.0-6.0-1.0-2.13","5c2ff645644d5300010c25f3","63690f60c96a0a9a64b48fbd","636920633f084c7ff1c7618a","null","","null","","","","","","","","./tasks/HMM-beads/Images/WhiteBeadChoiceWrong.png","","","","","","","","","","","","","","","","","","","","","","","",""
"image-keyboard-response","120","466873","0.0-4.0-6.0-1.0-0.14","5c2ff645644d5300010c25f3","63690f60c96a0a9a64b48fbd","636920633f084c7ff1c7618a","747","","f","","","","","","","","./tasks/HMM-beads/Images/NewTrialBC.png","highH","14","1","2","1","1","false","","","","","","","","","","","","","","","","",""
"image-keyboard-response","121","467187","0.0-4.0-6.0-1.0-1.14","5c2ff645644d5300010c25f3","63690f60c96a0a9a64b48fbd","636920633f084c7ff1c7618a","null","","null","","","","","","","","./tasks/HMM-beads/Images/BlackBeadChoice.png","","","","","","","","","","","","","","","","","","","","","","","",""
"image-keyboard-response","122","467697","0.0-4.0-6.0-1.0-2.14","5c2ff645644d5300010c25f3","63690f60c96a0a9a64b48fbd","636920633f084c7ff1c7618a","null","","null","","","","","","","","./tasks/HMM-beads/Images/BlackBeadChoiceWrong.png","","","","","","","","","","","","","","","","","","","","","","","",""
"image-keyboard-response","123","469474","0.0-4.0-6.0-1.0-0.15","5c2ff645644d5300010c25f3","63690f60c96a0a9a64b48fbd","636920633f084c7ff1c7618a","1776","","j","","","","","","","","./tasks/HMM-beads/Images/NewTrialWC.png","highH","15","2","2","2","2","true","","","","","","","","","","","","","","","","",""
"image-keyboard-response","124","469793","0.0-4.0-6.0-1.0-1.15","5c2ff645644d5300010c25f3","63690f60c96a0a9a64b48fbd","636920633f084c7ff1c7618a","null","","null","","","","","","","","./tasks/HMM-beads/Images/WhiteBeadChoice.png","","","","","","","","","","","","","","","","","","","","","","","",""
"image-keyboard-response","125","470301","0.0-4.0-6.0-1.0-2.15","5c2ff645644d5300010c25f3","63690f60c96a0a9a64b48fbd","636920633f084c7ff1c7618a","null","","null","","","","","","","","./tasks/HMM-beads/Images/WhiteBeadChoiceCorrect.png","","","","","","","","","","","","","","","","","","","","","","","",""
"image-keyboard-response","126","471128","0.0-4.0-6.0-1.0-0.16","5c2ff645644d5300010c25f3","63690f60c96a0a9a64b48fbd","636920633f084c7ff1c7618a","826","","j","","","","","","","","./tasks/HMM-beads/Images/NewTrialWC.png","highH","16","1","1","2","2","false","","","","","","","","","","","","","","","","",""
"image-keyboard-response","127","471435","0.0-4.0-6.0-1.0-1.16","5c2ff645644d5300010c25f3","63690f60c96a0a9a64b48fbd","636920633f084c7ff1c7618a","null","","null","","","","","","","","./tasks/HMM-beads/Images/WhiteBeadChoice.png","","","","","","","","","","","","","","","","","","","","","","","",""
"image-keyboard-response","128","471949","0.0-4.0-6.0-1.0-2.16","5c2ff645644d5300010c25f3","63690f60c96a0a9a64b48fbd","636920633f084c7ff1c7618a","null","","null","","","","","","","","./tasks/HMM-beads/Images/WhiteBeadChoiceWrong.png","","","","","","","","","","","","","","","","","","","","","","","",""
"image-keyboard-response","129","473386","0.0-4.0-6.0-1.0-0.17","5c2ff645644d5300010c25f3","63690f60c96a0a9a64b48fbd","636920633f084c7ff1c7618a","1416","","j","","","","","","","","./tasks/HMM-beads/Images/NewTrialBC.png","highH","17","2","2","1","2","true","","","","","","","","","","","","","","","","",""
"image-keyboard-response","130","473700","0.0-4.0-6.0-1.0-1.17","5c2ff645644d5300010c25f3","63690f60c96a0a9a64b48fbd","636920633f084c7ff1c7618a","null","","null","","","","","","","","./tasks/HMM-beads/Images/WhiteBeadChoice.png","","","","","","","","","","","","","","","","","","","","","","","",""
"image-keyboard-response","131","474208","0.0-4.0-6.0-1.0-2.17","5c2ff645644d5300010c25f3","63690f60c96a0a9a64b48fbd","636920633f084c7ff1c7618a","null","","null","","","","","","","","./tasks/HMM-beads/Images/WhiteBeadChoiceCorrect.png","","","","","","","","","","","","","","","","","","","","","","","",""
"image-keyboard-response","132","475127","0.0-4.0-6.0-1.0-0.18","5c2ff645644d5300010c25f3","63690f60c96a0a9a64b48fbd","636920633f084c7ff1c7618a","918","","f","","","","","","","","./tasks/HMM-beads/Images/NewTrialWC.png","highH","18","1","2","2","1","false","","","","","","","","","","","","","","","","",""
"image-keyboard-response","133","475448","0.0-4.0-6.0-1.0-1.18","5c2ff645644d5300010c25f3","63690f60c96a0a9a64b48fbd","636920633f084c7ff1c7618a","null","","null","","","","","","","","./tasks/HMM-beads/Images/BlackBeadChoice.png","","","","","","","","","","","","","","","","","","","","","","","",""
"image-keyboard-response","134","475962","0.0-4.0-6.0-1.0-2.18","5c2ff645644d5300010c25f3","63690f60c96a0a9a64b48fbd","636920633f084c7ff1c7618a","null","","null","","","","","","","","./tasks/HMM-beads/Images/BlackBeadChoiceWrong.png","","","","","","","","","","","","","","","","","","","","","","","",""
"image-keyboard-response","135","477193","0.0-4.0-6.0-1.0-0.19","5c2ff645644d5300010c25f3","63690f60c96a0a9a64b48fbd","636920633f084c7ff1c7618a","1229","","f","","","","","","","","./tasks/HMM-beads/Images/NewTrialWC.png","highH","19","2","2","2","1","false","","","","","","","","","","","","","","","","",""
"image-keyboard-response","136","477507","0.0-4.0-6.0-1.0-1.19","5c2ff645644d5300010c25f3","63690f60c96a0a9a64b48fbd","636920633f084c7ff1c7618a","null","","null","","","","","","","","./tasks/HMM-beads/Images/BlackBeadChoice.png","","","","","","","","","","","","","","","","","","","","","","","",""
"image-keyboard-response","137","478015","0.0-4.0-6.0-1.0-2.19","5c2ff645644d5300010c25f3","63690f60c96a0a9a64b48fbd","636920633f084c7ff1c7618a","null","","null","","","","","","","","./tasks/HMM-beads/Images/BlackBeadChoiceWrong.png","","","","","","","","","","","","","","","","","","","","","","","",""
"image-keyboard-response","138","478793","0.0-4.0-6.0-1.0-0.20","5c2ff645644d5300010c25f3","63690f60c96a0a9a64b48fbd","636920633f084c7ff1c7618a","777","","j","","","","","","","","./tasks/HMM-beads/Images/NewTrialWC.png","highH","20","1","1","2","2","false","","","","","","","","","","","","","","","","",""
"image-keyboard-response","139","479114","0.0-4.0-6.0-1.0-1.20","5c2ff645644d5300010c25f3","63690f60c96a0a9a64b48fbd","636920633f084c7ff1c7618a","null","","null","","","","","","","","./tasks/HMM-beads/Images/WhiteBeadChoice.png","","","","","","","","","","","","","","","","","","","","","","","",""
"image-keyboard-response","140","479633","0.0-4.0-6.0-1.0-2.20","5c2ff645644d5300010c25f3","63690f60c96a0a9a64b48fbd","636920633f084c7ff1c7618a","null","","null","","","","","","","","./tasks/HMM-beads/Images/WhiteBeadChoiceWrong.png","","","","","","","","","","","","","","","","","","","","","","","",""
"image-keyboard-response","141","481434","0.0-4.0-6.0-1.0-0.21","5c2ff645644d5300010c25f3","63690f60c96a0a9a64b48fbd","636920633f084c7ff1c7618a","1794","","f","","","","","","","","./tasks/HMM-beads/Images/NewTrialBC.png","highH","21","2","1","1","1","true","","","","","","","","","","","","","","","","",""
"image-keyboard-response","142","481748","0.0-4.0-6.0-1.0-1.21","5c2ff645644d5300010c25f3","63690f60c96a0a9a64b48fbd","636920633f084c7ff1c7618a","null","","null","","","","","","","","./tasks/HMM-beads/Images/BlackBeadChoice.png","","","","","","","","","","","","","","","","","","","","","","","",""
"image-keyboard-response","143","482258","0.0-4.0-6.0-1.0-2.21","5c2ff645644d5300010c25f3","63690f60c96a0a9a64b48fbd","636920633f084c7ff1c7618a","null","","null","","","","","","","","./tasks/HMM-beads/Images/BlackBeadChoiceCorrect.png","","","","","","","","","","","","","","","","","","","","","","","",""
"image-keyboard-response","144","483535","0.0-4.0-6.0-1.0-0.22","5c2ff645644d5300010c25f3","63690f60c96a0a9a64b48fbd","636920633f084c7ff1c7618a","1275","","f","","","","","","","","./tasks/HMM-beads/Images/NewTrialBC.png","highH","22","1","1","1","1","true","","","","","","","","","","","","","","","","",""
"image-keyboard-response","145","483839","0.0-4.0-6.0-1.0-1.22","5c2ff645644d5300010c25f3","63690f60c96a0a9a64b48fbd","636920633f084c7ff1c7618a","null","","null","","","","","","","","./tasks/HMM-beads/Images/BlackBeadChoice.png","","","","","","","","","","","","","","","","","","","","","","","",""
"image-keyboard-response","146","484344","0.0-4.0-6.0-1.0-2.22","5c2ff645644d5300010c25f3","63690f60c96a0a9a64b48fbd","636920633f084c7ff1c7618a","null","","null","","","","","","","","./tasks/HMM-beads/Images/BlackBeadChoiceCorrect.png","","","","","","","","","","","","","","","","","","","","","","","",""
"image-keyboard-response","147","486482","0.0-4.0-6.0-1.0-0.23","5c2ff645644d5300010c25f3","63690f60c96a0a9a64b48fbd","636920633f084c7ff1c7618a","2136","","j","","","","","","","","./tasks/HMM-beads/Images/NewTrialBC.png","highH","23","2","2","1","2","true","","","","","","","","","","","","","","","","",""
"image-keyboard-response","148","486808","0.0-4.0-6.0-1.0-1.23","5c2ff645644d5300010c25f3","63690f60c96a0a9a64b48fbd","636920633f084c7ff1c7618a","null","","null","","","","","","","","./tasks/HMM-beads/Images/WhiteBeadChoice.png","","","","","","","","","","","","","","","","","","","","","","","",""
"image-keyboard-response","149","487318","0.0-4.0-6.0-1.0-2.23","5c2ff645644d5300010c25f3","63690f60c96a0a9a64b48fbd","636920633f084c7ff1c7618a","null","","null","","","","","","","","./tasks/HMM-beads/Images/WhiteBeadChoiceCorrect.png","","","","","","","","","","","","","","","","","","","","","","","",""
"image-keyboard-response","150","489186","0.0-4.0-6.0-1.0-0.24","5c2ff645644d5300010c25f3","63690f60c96a0a9a64b48fbd","636920633f084c7ff1c7618a","1853","","j","","","","","","","","./tasks/HMM-beads/Images/NewTrialWC.png","highH","24","1","1","2","2","false","","","","","","","","","","","","","","","","",""
"image-keyboard-response","151","489499","0.0-4.0-6.0-1.0-1.24","5c2ff645644d5300010c25f3","63690f60c96a0a9a64b48fbd","636920633f084c7ff1c7618a","null","","null","","","","","","","","./tasks/HMM-beads/Images/WhiteBeadChoice.png","","","","","","","","","","","","","","","","","","","","","","","",""
"image-keyboard-response","152","490006","0.0-4.0-6.0-1.0-2.24","5c2ff645644d5300010c25f3","63690f60c96a0a9a64b48fbd","636920633f084c7ff1c7618a","null","","null","","","","","","","","./tasks/HMM-beads/Images/WhiteBeadChoiceWrong.png","","","","","","","","","","","","","","","","","","","","","","","",""
"image-keyboard-response","153","491218","0.0-4.0-6.0-1.0-0.25","5c2ff645644d5300010c25f3","63690f60c96a0a9a64b48fbd","636920633f084c7ff1c7618a","1177","","j","","","","","","","","./tasks/HMM-beads/Images/NewTrialBC.png","highH","25","2","1","1","2","false","","","","","","","","","","","","","","","","",""
"image-keyboard-response","154","491534","0.0-4.0-6.0-1.0-1.25","5c2ff645644d5300010c25f3","63690f60c96a0a9a64b48fbd","636920633f084c7ff1c7618a","null","","null","","","","","","","","./tasks/HMM-beads/Images/WhiteBeadChoice.png","","","","","","","","","","","","","","","","","","","","","","","",""
"image-keyboard-response","155","492044","0.0-4.0-6.0-1.0-2.25","5c2ff645644d5300010c25f3","63690f60c96a0a9a64b48fbd","636920633f084c7ff1c7618a","null","","null","","","","","","","","./tasks/HMM-beads/Images/WhiteBeadChoiceWrong.png","","","","","","","","","","","","","","","","","","","","","","","",""
"image-keyboard-response","156","492805","0.0-4.0-6.0-1.0-0.26","5c2ff645644d5300010c25f3","63690f60c96a0a9a64b48fbd","636920633f084c7ff1c7618a","759","","f","","","","","","","","./tasks/HMM-beads/Images/NewTrialBC.png","highH","26","1","1","1","1","true","","","","","","","","","","","","","","","","",""
"image-keyboard-response","157","493119","0.0-4.0-6.0-1.0-1.26","5c2ff645644d5300010c25f3","63690f60c96a0a9a64b48fbd","636920633f084c7ff1c7618a","null","","null","","","","","","","","./tasks/HMM-beads/Images/BlackBeadChoice.png","","","","","","","","","","","","","","","","","","","","","","","",""
"image-keyboard-response","158","493629","0.0-4.0-6.0-1.0-2.26","5c2ff645644d5300010c25f3","63690f60c96a0a9a64b48fbd","636920633f084c7ff1c7618a","null","","null","","","","","","","","./tasks/HMM-beads/Images/BlackBeadChoiceCorrect.png","","","","","","","","","","","","","","","","","","","","","","","",""
"image-keyboard-response","159","494722","0.0-4.0-6.0-1.0-0.27","5c2ff645644d5300010c25f3","63690f60c96a0a9a64b48fbd","636920633f084c7ff1c7618a","1090","","j","","","","","","","","./tasks/HMM-beads/Images/NewTrialBC.png","highH","27","2","2","1","2","true","","","","","","","","","","","","","","","","",""
"image-keyboard-response","160","495042","0.0-4.0-6.0-1.0-1.27","5c2ff645644d5300010c25f3","63690f60c96a0a9a64b48fbd","636920633f084c7ff1c7618a","null","","null","","","","","","","","./tasks/HMM-beads/Images/WhiteBeadChoice.png","","","","","","","","","","","","","","","","","","","","","","","",""
"image-keyboard-response","161","495551","0.0-4.0-6.0-1.0-2.27","5c2ff645644d5300010c25f3","63690f60c96a0a9a64b48fbd","636920633f084c7ff1c7618a","null","","null","","","","","","","","./tasks/HMM-beads/Images/WhiteBeadChoiceCorrect.png","","","","","","","","","","","","","","","","","","","","","","","",""
"image-keyboard-response","162","496718","0.0-4.0-6.0-1.0-0.28","5c2ff645644d5300010c25f3","63690f60c96a0a9a64b48fbd","636920633f084c7ff1c7618a","1165","","f","","","","","","","","./tasks/HMM-beads/Images/NewTrialWC.png","highH","28","2","1","2","1","true","","","","","","","","","","","","","","","","",""
"image-keyboard-response","163","497029","0.0-4.0-6.0-1.0-1.28","5c2ff645644d5300010c25f3","63690f60c96a0a9a64b48fbd","636920633f084c7ff1c7618a","null","","null","","","","","","","","./tasks/HMM-beads/Images/BlackBeadChoice.png","","","","","","","","","","","","","","","","","","","","","","","",""
"image-keyboard-response","164","497538","0.0-4.0-6.0-1.0-2.28","5c2ff645644d5300010c25f3","63690f60c96a0a9a64b48fbd","636920633f084c7ff1c7618a","null","","null","","","","","","","","./tasks/HMM-beads/Images/BlackBeadChoiceCorrect.png","","","","","","","","","","","","","","","","","","","","","","","",""
"image-keyboard-response","165","498762","0.0-4.0-6.0-1.0-0.29","5c2ff645644d5300010c25f3","63690f60c96a0a9a64b48fbd","636920633f084c7ff1c7618a","1213","","f","","","","","","","","./tasks/HMM-beads/Images/NewTrialBC.png","highH","29","1","1","1","1","true","","","","","","","","","","","","","","","","",""
"image-keyboard-response","166","499099","0.0-4.0-6.0-1.0-1.29","5c2ff645644d5300010c25f3","63690f60c96a0a9a64b48fbd","636920633f084c7ff1c7618a","null","","null","","","","","","","","./tasks/HMM-beads/Images/BlackBeadChoice.png","","","","","","","","","","","","","","","","","","","","","","","",""
"image-keyboard-response","167","499607","0.0-4.0-6.0-1.0-2.29","5c2ff645644d5300010c25f3","63690f60c96a0a9a64b48fbd","636920633f084c7ff1c7618a","null","","null","","","","","","","","./tasks/HMM-beads/Images/BlackBeadChoiceCorrect.png","","","","","","","","","","","","","","","","","","","","","","","",""
"image-keyboard-response","168","500949","0.0-4.0-6.0-1.0-0.30","5c2ff645644d5300010c25f3","63690f60c96a0a9a64b48fbd","636920633f084c7ff1c7618a","1341","","f","","","","","","","","./tasks/HMM-beads/Images/NewTrialBC.png","highH","30","2","1","1","1","true","","","","","","","","","","","","","","","","",""
"image-keyboard-response","169","501270","0.0-4.0-6.0-1.0-1.30","5c2ff645644d5300010c25f3","63690f60c96a0a9a64b48fbd","636920633f084c7ff1c7618a","null","","null","","","","","","","","./tasks/HMM-beads/Images/BlackBeadChoice.png","","","","","","","","","","","","","","","","","","","","","","","",""
"image-keyboard-response","170","501780","0.0-4.0-6.0-1.0-2.30","5c2ff645644d5300010c25f3","63690f60c96a0a9a64b48fbd","636920633f084c7ff1c7618a","null","","null","","","","","","","","./tasks/HMM-beads/Images/BlackBeadChoiceCorrect.png","","","","","","","","","","","","","","","","","","","","","","","",""
"image-keyboard-response","171","503120","0.0-4.0-6.0-1.0-0.31","5c2ff645644d5300010c25f3","63690f60c96a0a9a64b48fbd","636920633f084c7ff1c7618a","1339","","j","","","","","","","","./tasks/HMM-beads/Images/NewTrialBC.png","highH","31","1","1","1","2","false","","","","","","","","","","","","","","","","",""
"image-keyboard-response","172","503441","0.0-4.0-6.0-1.0-1.31","5c2ff645644d5300010c25f3","63690f60c96a0a9a64b48fbd","636920633f084c7ff1c7618a","null","","null","","","","","","","","./tasks/HMM-beads/Images/WhiteBeadChoice.png","","","","","","","","","","","","","","","","","","","","","","","",""
"image-keyboard-response","173","503948","0.0-4.0-6.0-1.0-2.31","5c2ff645644d5300010c25f3","63690f60c96a0a9a64b48fbd","636920633f084c7ff1c7618a","null","","null","","","","","","","","./tasks/HMM-beads/Images/WhiteBeadChoiceWrong.png","","","","","","","","","","","","","","","","","","","","","","","",""
"image-keyboard-response","174","505228","0.0-4.0-6.0-1.0-0.32","5c2ff645644d5300010c25f3","63690f60c96a0a9a64b48fbd","636920633f084c7ff1c7618a","1278","","j","","","","","","","","./tasks/HMM-beads/Images/NewTrialBC.png","highH","32","2","2","1","2","true","","","","","","","","","","","","","","","","",""
"image-keyboard-response","175","505546","0.0-4.0-6.0-1.0-1.32","5c2ff645644d5300010c25f3","63690f60c96a0a9a64b48fbd","636920633f084c7ff1c7618a","null","","null","","","","","","","","./tasks/HMM-beads/Images/WhiteBeadChoice.png","","","","","","","","","","","","","","","","","","","","","","","",""
"image-keyboard-response","176","506053","0.0-4.0-6.0-1.0-2.32","5c2ff645644d5300010c25f3","63690f60c96a0a9a64b48fbd","636920633f084c7ff1c7618a","null","","null","","","","","","","","./tasks/HMM-beads/Images/WhiteBeadChoiceCorrect.png","","","","","","","","","","","","","","","","","","","","","","","",""
"image-keyboard-response","177","508052","0.0-4.0-6.0-1.0-0.33","5c2ff645644d5300010c25f3","63690f60c96a0a9a64b48fbd","636920633f084c7ff1c7618a","1998","","f","","","","","","","","./tasks/HMM-beads/Images/NewTrialWC.png","highH","33","1","1","2","1","true","","","","","","","","","","","","","","","","",""
"image-keyboard-response","178","508368","0.0-4.0-6.0-1.0-1.33","5c2ff645644d5300010c25f3","63690f60c96a0a9a64b48fbd","636920633f084c7ff1c7618a","null","","null","","","","","","","","./tasks/HMM-beads/Images/BlackBeadChoice.png","","","","","","","","","","","","","","","","","","","","","","","",""
"image-keyboard-response","179","508877","0.0-4.0-6.0-1.0-2.33","5c2ff645644d5300010c25f3","63690f60c96a0a9a64b48fbd","636920633f084c7ff1c7618a","null","","null","","","","","","","","./tasks/HMM-beads/Images/BlackBeadChoiceCorrect.png","","","","","","","","","","","","","","","","","","","","","","","",""
"image-keyboard-response","180","510155","0.0-4.0-6.0-1.0-0.34","5c2ff645644d5300010c25f3","63690f60c96a0a9a64b48fbd","636920633f084c7ff1c7618a","1277","","f","","","","","","","","./tasks/HMM-beads/Images/NewTrialBC.png","highH","34","2","2","1","1","false","","","","","","","","","","","","","","","","",""
"image-keyboard-response","181","510472","0.0-4.0-6.0-1.0-1.34","5c2ff645644d5300010c25f3","63690f60c96a0a9a64b48fbd","636920633f084c7ff1c7618a","null","","null","","","","","","","","./tasks/HMM-beads/Images/BlackBeadChoice.png","","","","","","","","","","","","","","","","","","","","","","","",""
"image-keyboard-response","182","510979","0.0-4.0-6.0-1.0-2.34","5c2ff645644d5300010c25f3","63690f60c96a0a9a64b48fbd","636920633f084c7ff1c7618a","null","","null","","","","","","","","./tasks/HMM-beads/Images/BlackBeadChoiceWrong.png","","","","","","","","","","","","","","","","","","","","","","","",""
"image-keyboard-response","183","513117","0.0-4.0-6.0-1.0-0.35","5c2ff645644d5300010c25f3","63690f60c96a0a9a64b48fbd","636920633f084c7ff1c7618a","2137","","f","","","","","","","","./tasks/HMM-beads/Images/NewTrialWC.png","highH","35","1","1","2","1","true","","","","","","","","","","","","","","","","",""
"image-keyboard-response","184","513444","0.0-4.0-6.0-1.0-1.35","5c2ff645644d5300010c25f3","63690f60c96a0a9a64b48fbd","636920633f084c7ff1c7618a","null","","null","","","","","","","","./tasks/HMM-beads/Images/BlackBeadChoice.png","","","","","","","","","","","","","","","","","","","","","","","",""
"image-keyboard-response","185","513968","0.0-4.0-6.0-1.0-2.35","5c2ff645644d5300010c25f3","63690f60c96a0a9a64b48fbd","636920633f084c7ff1c7618a","null","","null","","","","","","","","./tasks/HMM-beads/Images/BlackBeadChoiceCorrect.png","","","","","","","","","","","","","","","","","","","","","","","",""
"image-keyboard-response","186","515154","0.0-4.0-6.0-1.0-0.36","5c2ff645644d5300010c25f3","63690f60c96a0a9a64b48fbd","636920633f084c7ff1c7618a","1178","","j","","","","","","","","./tasks/HMM-beads/Images/NewTrialBC.png","highH","36","2","1","1","2","false","","","","","","","","","","","","","","","","",""
"image-keyboard-response","187","515465","0.0-4.0-6.0-1.0-1.36","5c2ff645644d5300010c25f3","63690f60c96a0a9a64b48fbd","636920633f084c7ff1c7618a","null","","null","","","","","","","","./tasks/HMM-beads/Images/WhiteBeadChoice.png","","","","","","","","","","","","","","","","","","","","","","","",""
"image-keyboard-response","188","515966","0.0-4.0-6.0-1.0-2.36","5c2ff645644d5300010c25f3","63690f60c96a0a9a64b48fbd","636920633f084c7ff1c7618a","null","","null","","","","","","","","./tasks/HMM-beads/Images/WhiteBeadChoiceWrong.png","","","","","","","","","","","","","","","","","","","","","","","",""
"image-keyboard-response","189","517209","0.0-4.0-6.0-1.0-0.37","5c2ff645644d5300010c25f3","63690f60c96a0a9a64b48fbd","636920633f084c7ff1c7618a","1228","","f","","","","","","","","./tasks/HMM-beads/Images/NewTrialBC.png","highH","37","1","1","1","1","true","","","","","","","","","","","","","","","","",""
"image-keyboard-response","190","517517","0.0-4.0-6.0-1.0-1.37","5c2ff645644d5300010c25f3","63690f60c96a0a9a64b48fbd","636920633f084c7ff1c7618a","null","","null","","","","","","","","./tasks/HMM-beads/Images/BlackBeadChoice.png","","","","","","","","","","","","","","","","","","","","","","","",""
"image-keyboard-response","191","518027","0.0-4.0-6.0-1.0-2.37","5c2ff645644d5300010c25f3","63690f60c96a0a9a64b48fbd","636920633f084c7ff1c7618a","null","","null","","","","","","","","./tasks/HMM-beads/Images/BlackBeadChoiceCorrect.png","","","","","","","","","","","","","","","","","","","","","","","",""
"image-keyboard-response","192","519008","0.0-4.0-6.0-1.0-0.38","5c2ff645644d5300010c25f3","63690f60c96a0a9a64b48fbd","636920633f084c7ff1c7618a","979","","f","","","","","","","","./tasks/HMM-beads/Images/NewTrialBC.png","highH","38","2","2","1","1","false","","","","","","","","","","","","","","","","",""
"image-keyboard-response","193","519322","0.0-4.0-6.0-1.0-1.38","5c2ff645644d5300010c25f3","63690f60c96a0a9a64b48fbd","636920633f084c7ff1c7618a","null","","null","","","","","","","","./tasks/HMM-beads/Images/BlackBeadChoice.png","","","","","","","","","","","","","","","","","","","","","","","",""
"image-keyboard-response","194","519830","0.0-4.0-6.0-1.0-2.38","5c2ff645644d5300010c25f3","63690f60c96a0a9a64b48fbd","636920633f084c7ff1c7618a","null","","null","","","","","","","","./tasks/HMM-beads/Images/BlackBeadChoiceWrong.png","","","","","","","","","","","","","","","","","","","","","","","",""
"image-keyboard-response","195","521015","0.0-4.0-6.0-1.0-0.39","5c2ff645644d5300010c25f3","63690f60c96a0a9a64b48fbd","636920633f084c7ff1c7618a","1184","","f","","","","","","","","./tasks/HMM-beads/Images/NewTrialWC.png","highH","39","1","1","2","1","true","","","","","","","","","","","","","","","","",""
"image-keyboard-response","196","521337","0.0-4.0-6.0-1.0-1.39","5c2ff645644d5300010c25f3","63690f60c96a0a9a64b48fbd","636920633f084c7ff1c7618a","null","","null","","","","","","","","./tasks/HMM-beads/Images/BlackBeadChoice.png","","","","","","","","","","","","","","","","","","","","","","","",""
"image-keyboard-response","197","521852","0.0-4.0-6.0-1.0-2.39","5c2ff645644d5300010c25f3","63690f60c96a0a9a64b48fbd","636920633f084c7ff1c7618a","null","","null","","","","","","","","./tasks/HMM-beads/Images/BlackBeadChoiceCorrect.png","","","","","","","","","","","","","","","","","","","","","","","",""
"image-keyboard-response","198","522753","0.0-4.0-6.0-1.0-0.40","5c2ff645644d5300010c25f3","63690f60c96a0a9a64b48fbd","636920633f084c7ff1c7618a","874","","f","","","","","","","","./tasks/HMM-beads/Images/NewTrialBC.png","highH","40","2","2","1","1","false","","","","","","","","","","","","","","","","",""
"image-keyboard-response","199","523063","0.0-4.0-6.0-1.0-1.40","5c2ff645644d5300010c25f3","63690f60c96a0a9a64b48fbd","636920633f084c7ff1c7618a","null","","null","","","","","","","","./tasks/HMM-beads/Images/BlackBeadChoice.png","","","","","","","","","","","","","","","","","","","","","","","",""
"image-keyboard-response","200","523569","0.0-4.0-6.0-1.0-2.40","5c2ff645644d5300010c25f3","63690f60c96a0a9a64b48fbd","636920633f084c7ff1c7618a","null","","null","","","","","","","","./tasks/HMM-beads/Images/BlackBeadChoiceWrong.png","","","","","","","","","","","","","","","","","","","","","","","",""
"image-keyboard-response","201","525084","0.0-4.0-6.0-1.0-0.41","5c2ff645644d5300010c25f3","63690f60c96a0a9a64b48fbd","636920633f084c7ff1c7618a","1513","","j","","","","","","","","./tasks/HMM-beads/Images/NewTrialWC.png","highH","41","1","2","2","2","true","","","","","","","","","","","","","","","","",""
"image-keyboard-response","202","525401","0.0-4.0-6.0-1.0-1.41","5c2ff645644d5300010c25f3","63690f60c96a0a9a64b48fbd","636920633f084c7ff1c7618a","null","","null","","","","","","","","./tasks/HMM-beads/Images/WhiteBeadChoice.png","","","","","","","","","","","","","","","","","","","","","","","",""
"image-keyboard-response","203","525910","0.0-4.0-6.0-1.0-2.41","5c2ff645644d5300010c25f3","63690f60c96a0a9a64b48fbd","636920633f084c7ff1c7618a","null","","null","","","","","","","","./tasks/HMM-beads/Images/WhiteBeadChoiceCorrect.png","","","","","","","","","","","","","","","","","","","","","","","",""
"image-keyboard-response","204","527000","0.0-4.0-6.0-1.0-0.42","5c2ff645644d5300010c25f3","63690f60c96a0a9a64b48fbd","636920633f084c7ff1c7618a","1089","","f","","","","","","","","./tasks/HMM-beads/Images/NewTrialWC.png","highH","42","2","2","2","1","false","","","","","","","","","","","","","","","","",""
"image-keyboard-response","205","527321","0.0-4.0-6.0-1.0-1.42","5c2ff645644d5300010c25f3","63690f60c96a0a9a64b48fbd","636920633f084c7ff1c7618a","null","","null","","","","","","","","./tasks/HMM-beads/Images/BlackBeadChoice.png","","","","","","","","","","","","","","","","","","","","","","","",""
"image-keyboard-response","206","527828","0.0-4.0-6.0-1.0-2.42","5c2ff645644d5300010c25f3","63690f60c96a0a9a64b48fbd","636920633f084c7ff1c7618a","null","","null","","","","","","","","./tasks/HMM-beads/Images/BlackBeadChoiceWrong.png","","","","","","","","","","","","","","","","","","","","","","","",""
"image-keyboard-response","207","528985","0.0-4.0-6.0-1.0-0.43","5c2ff645644d5300010c25f3","63690f60c96a0a9a64b48fbd","636920633f084c7ff1c7618a","1154","","j","","","","","","","","./tasks/HMM-beads/Images/NewTrialWC.png","highH","43","1","1","2","2","false","","","","","","","","","","","","","","","","",""
"image-keyboard-response","208","529293","0.0-4.0-6.0-1.0-1.43","5c2ff645644d5300010c25f3","63690f60c96a0a9a64b48fbd","636920633f084c7ff1c7618a","null","","null","","","","","","","","./tasks/HMM-beads/Images/WhiteBeadChoice.png","","","","","","","","","","","","","","","","","","","","","","","",""
"image-keyboard-response","209","529800","0.0-4.0-6.0-1.0-2.43","5c2ff645644d5300010c25f3","63690f60c96a0a9a64b48fbd","636920633f084c7ff1c7618a","null","","null","","","","","","","","./tasks/HMM-beads/Images/WhiteBeadChoiceWrong.png","","","","","","","","","","","","","","","","","","","","","","","",""
"image-keyboard-response","210","531363","0.0-4.0-6.0-1.0-0.44","5c2ff645644d5300010c25f3","63690f60c96a0a9a64b48fbd","636920633f084c7ff1c7618a","1562","","f","","","","","","","","./tasks/HMM-beads/Images/NewTrialBC.png","highH","44","2","1","1","1","true","","","","","","","","","","","","","","","","",""
"image-keyboard-response","211","531665","0.0-4.0-6.0-1.0-1.44","5c2ff645644d5300010c25f3","63690f60c96a0a9a64b48fbd","636920633f084c7ff1c7618a","null","","null","","","","","","","","./tasks/HMM-beads/Images/BlackBeadChoice.png","","","","","","","","","","","","","","","","","","","","","","","",""
"image-keyboard-response","212","532171","0.0-4.0-6.0-1.0-2.44","5c2ff645644d5300010c25f3","63690f60c96a0a9a64b48fbd","636920633f084c7ff1c7618a","null","","null","","","","","","","","./tasks/HMM-beads/Images/BlackBeadChoiceCorrect.png","","","","","","","","","","","","","","","","","","","","","","","",""
"image-keyboard-response","213","533361","0.0-4.0-6.0-1.0-0.45","5c2ff645644d5300010c25f3","63690f60c96a0a9a64b48fbd","636920633f084c7ff1c7618a","1183","","j","","","","","","","","./tasks/HMM-beads/Images/NewTrialBC.png","highH","45","1","1","1","2","false","","","","","","","","","","","","","","","","",""
"image-keyboard-response","214","533667","0.0-4.0-6.0-1.0-1.45","5c2ff645644d5300010c25f3","63690f60c96a0a9a64b48fbd","636920633f084c7ff1c7618a","null","","null","","","","","","","","./tasks/HMM-beads/Images/WhiteBeadChoice.png","","","","","","","","","","","","","","","","","","","","","","","",""
"image-keyboard-response","215","534175","0.0-4.0-6.0-1.0-2.45","5c2ff645644d5300010c25f3","63690f60c96a0a9a64b48fbd","636920633f084c7ff1c7618a","null","","null","","","","","","","","./tasks/HMM-beads/Images/WhiteBeadChoiceWrong.png","","","","","","","","","","","","","","","","","","","","","","","",""
"image-keyboard-response","216","535553","0.0-4.0-6.0-1.0-0.46","5c2ff645644d5300010c25f3","63690f60c96a0a9a64b48fbd","636920633f084c7ff1c7618a","1369","","f","","","","","","","","./tasks/HMM-beads/Images/NewTrialBC.png","highH","46","2","2","1","1","false","","","","","","","","","","","","","","","","",""
"image-keyboard-response","217","535871","0.0-4.0-6.0-1.0-1.46","5c2ff645644d5300010c25f3","63690f60c96a0a9a64b48fbd","636920633f084c7ff1c7618a","null","","null","","","","","","","","./tasks/HMM-beads/Images/BlackBeadChoice.png","","","","","","","","","","","","","","","","","","","","","","","",""
"image-keyboard-response","218","536378","0.0-4.0-6.0-1.0-2.46","5c2ff645644d5300010c25f3","63690f60c96a0a9a64b48fbd","636920633f084c7ff1c7618a","null","","null","","","","","","","","./tasks/HMM-beads/Images/BlackBeadChoiceWrong.png","","","","","","","","","","","","","","","","","","","","","","","",""
"image-keyboard-response","219","537729","0.0-4.0-6.0-1.0-0.47","5c2ff645644d5300010c25f3","63690f60c96a0a9a64b48fbd","636920633f084c7ff1c7618a","1321","","f","","","","","","","","./tasks/HMM-beads/Images/NewTrialWC.png","highH","47","1","1","2","1","true","","","","","","","","","","","","","","","","",""
"image-keyboard-response","220","538043","0.0-4.0-6.0-1.0-1.47","5c2ff645644d5300010c25f3","63690f60c96a0a9a64b48fbd","636920633f084c7ff1c7618a","null","","null","","","","","","","","./tasks/HMM-beads/Images/BlackBeadChoice.png","","","","","","","","","","","","","","","","","","","","","","","",""
"image-keyboard-response","221","538549","0.0-4.0-6.0-1.0-2.47","5c2ff645644d5300010c25f3","63690f60c96a0a9a64b48fbd","636920633f084c7ff1c7618a","null","","null","","","","","","","","./tasks/HMM-beads/Images/BlackBeadChoiceCorrect.png","","","","","","","","","","","","","","","","","","","","","","","",""
"image-keyboard-response","222","539844","0.0-4.0-6.0-1.0-0.48","5c2ff645644d5300010c25f3","63690f60c96a0a9a64b48fbd","636920633f084c7ff1c7618a","1294","","f","","","","","","","","./tasks/HMM-beads/Images/NewTrialBC.png","highH","48","2","2","1","1","false","","","","","","","","","","","","","","","","",""
"image-keyboard-response","223","540148","0.0-4.0-6.0-1.0-1.48","5c2ff645644d5300010c25f3","63690f60c96a0a9a64b48fbd","636920633f084c7ff1c7618a","null","","null","","","","","","","","./tasks/HMM-beads/Images/BlackBeadChoice.png","","","","","","","","","","","","","","","","","","","","","","","",""
"image-keyboard-response","224","540656","0.0-4.0-6.0-1.0-2.48","5c2ff645644d5300010c25f3","63690f60c96a0a9a64b48fbd","636920633f084c7ff1c7618a","null","","null","","","","","","","","./tasks/HMM-beads/Images/BlackBeadChoiceWrong.png","","","","","","","","","","","","","","","","","","","","","","","",""
"image-keyboard-response","225","542729","0.0-4.0-6.0-1.0-0.49","5c2ff645644d5300010c25f3","63690f60c96a0a9a64b48fbd","636920633f084c7ff1c7618a","2056","","j","","","","","","","","./tasks/HMM-beads/Images/NewTrialWC.png","highH","49","1","1","2","2","false","","","","","","","","","","","","","","","","",""
"image-keyboard-response","226","543035","0.0-4.0-6.0-1.0-1.49","5c2ff645644d5300010c25f3","63690f60c96a0a9a64b48fbd","636920633f084c7ff1c7618a","null","","null","","","","","","","","./tasks/HMM-beads/Images/WhiteBeadChoice.png","","","","","","","","","","","","","","","","","","","","","","","",""
"image-keyboard-response","227","543544","0.0-4.0-6.0-1.0-2.49","5c2ff645644d5300010c25f3","63690f60c96a0a9a64b48fbd","636920633f084c7ff1c7618a","null","","null","","","","","","","","./tasks/HMM-beads/Images/WhiteBeadChoiceWrong.png","","","","","","","","","","","","","","","","","","","","","","","",""
"image-keyboard-response","228","545513","0.0-4.0-6.0-1.0-0.50","5c2ff645644d5300010c25f3","63690f60c96a0a9a64b48fbd","636920633f084c7ff1c7618a","1962","","j","","","","","","","","./tasks/HMM-beads/Images/NewTrialBC.png","highH","50","2","1","1","2","false","","","","","","","","","","","","","","","","",""
"image-keyboard-response","229","545824","0.0-4.0-6.0-1.0-1.50","5c2ff645644d5300010c25f3","63690f60c96a0a9a64b48fbd","636920633f084c7ff1c7618a","null","","null","","","","","","","","./tasks/HMM-beads/Images/WhiteBeadChoice.png","","","","","","","","","","","","","","","","","","","","","","","",""
"image-keyboard-response","230","546332","0.0-4.0-6.0-1.0-2.50","5c2ff645644d5300010c25f3","63690f60c96a0a9a64b48fbd","636920633f084c7ff1c7618a","null","","null","","","","","","","","./tasks/HMM-beads/Images/WhiteBeadChoiceWrong.png","","","","","","","","","","","","","","","","","","","","","","","",""
"image-keyboard-response","231","546735","0.0-4.0-6.0-1.0-0.51","5c2ff645644d5300010c25f3","63690f60c96a0a9a64b48fbd","636920633f084c7ff1c7618a","401","","f","","","","","","","","./tasks/HMM-beads/Images/NewTrialBC.png","highH","51","1","1","1","1","true","","","","","","","","","","","","","","","","",""
"image-keyboard-response","232","547059","0.0-4.0-6.0-1.0-1.51","5c2ff645644d5300010c25f3","63690f60c96a0a9a64b48fbd","636920633f084c7ff1c7618a","null","","null","","","","","","","","./tasks/HMM-beads/Images/BlackBeadChoice.png","","","","","","","","","","","","","","","","","","","","","","","",""
"image-keyboard-response","233","547566","0.0-4.0-6.0-1.0-2.51","5c2ff645644d5300010c25f3","63690f60c96a0a9a64b48fbd","636920633f084c7ff1c7618a","null","","null","","","","","","","","./tasks/HMM-beads/Images/BlackBeadChoiceCorrect.png","","","","","","","","","","","","","","","","","","","","","","","",""
"image-keyboard-response","234","549409","0.0-4.0-6.0-1.0-0.52","5c2ff645644d5300010c25f3","63690f60c96a0a9a64b48fbd","636920633f084c7ff1c7618a","1841","","j","","","","","","","","./tasks/HMM-beads/Images/NewTrialBC.png","highH","52","2","2","1","2","true","","","","","","","","","","","","","","","","",""
"image-keyboard-response","235","549730","0.0-4.0-6.0-1.0-1.52","5c2ff645644d5300010c25f3","63690f60c96a0a9a64b48fbd","636920633f084c7ff1c7618a","null","","null","","","","","","","","./tasks/HMM-beads/Images/WhiteBeadChoice.png","","","","","","","","","","","","","","","","","","","","","","","",""
"image-keyboard-response","236","550240","0.0-4.0-6.0-1.0-2.52","5c2ff645644d5300010c25f3","63690f60c96a0a9a64b48fbd","636920633f084c7ff1c7618a","null","","null","","","","","","","","./tasks/HMM-beads/Images/WhiteBeadChoiceCorrect.png","","","","","","","","","","","","","","","","","","","","","","","",""
"image-keyboard-response","237","551880","0.0-4.0-6.0-1.0-0.53","5c2ff645644d5300010c25f3","63690f60c96a0a9a64b48fbd","636920633f084c7ff1c7618a","1618","","j","","","","","","","","./tasks/HMM-beads/Images/NewTrialWC.png","highH","53","1","1","2","2","false","","","","","","","","","","","","","","","","",""
"image-keyboard-response","238","552202","0.0-4.0-6.0-1.0-1.53","5c2ff645644d5300010c25f3","63690f60c96a0a9a64b48fbd","636920633f084c7ff1c7618a","null","","null","","","","","","","","./tasks/HMM-beads/Images/WhiteBeadChoice.png","","","","","","","","","","","","","","","","","","","","","","","",""
"image-keyboard-response","239","552711","0.0-4.0-6.0-1.0-2.53","5c2ff645644d5300010c25f3","63690f60c96a0a9a64b48fbd","636920633f084c7ff1c7618a","null","","null","","","","","","","","./tasks/HMM-beads/Images/WhiteBeadChoiceWrong.png","","","","","","","","","","","","","","","","","","","","","","","",""
"image-keyboard-response","240","553873","0.0-4.0-6.0-1.0-0.54","5c2ff645644d5300010c25f3","63690f60c96a0a9a64b48fbd","636920633f084c7ff1c7618a","1153","","j","","","","","","","","./tasks/HMM-beads/Images/NewTrialBC.png","highH","54","2","2","1","2","true","","","","","","","","","","","","","","","","",""
"image-keyboard-response","241","554190","0.0-4.0-6.0-1.0-1.54","5c2ff645644d5300010c25f3","63690f60c96a0a9a64b48fbd","636920633f084c7ff1c7618a","null","","null","","","","","","","","./tasks/HMM-beads/Images/WhiteBeadChoice.png","","","","","","","","","","","","","","","","","","","","","","","",""
"image-keyboard-response","242","554699","0.0-4.0-6.0-1.0-2.54","5c2ff645644d5300010c25f3","63690f60c96a0a9a64b48fbd","636920633f084c7ff1c7618a","null","","null","","","","","","","","./tasks/HMM-beads/Images/WhiteBeadChoiceCorrect.png","","","","","","","","","","","","","","","","","","","","","","","",""
"image-keyboard-response","243","556007","0.0-4.0-6.0-1.0-0.55","5c2ff645644d5300010c25f3","63690f60c96a0a9a64b48fbd","636920633f084c7ff1c7618a","1306","","f","","","","","","","","./tasks/HMM-beads/Images/NewTrialWC.png","highH","55","1","1","2","1","true","","","","","","","","","","","","","","","","",""
"image-keyboard-response","244","556332","0.0-4.0-6.0-1.0-1.55","5c2ff645644d5300010c25f3","63690f60c96a0a9a64b48fbd","636920633f084c7ff1c7618a","null","","null","","","","","","","","./tasks/HMM-beads/Images/BlackBeadChoice.png","","","","","","","","","","","","","","","","","","","","","","","",""
"image-keyboard-response","245","556849","0.0-4.0-6.0-1.0-2.55","5c2ff645644d5300010c25f3","63690f60c96a0a9a64b48fbd","636920633f084c7ff1c7618a","null","","null","","","","","","","","./tasks/HMM-beads/Images/BlackBeadChoiceCorrect.png","","","","","","","","","","","","","","","","","","","","","","","",""
"image-keyboard-response","246","558489","0.0-4.0-6.0-1.0-0.56","5c2ff645644d5300010c25f3","63690f60c96a0a9a64b48fbd","636920633f084c7ff1c7618a","1629","","f","","","","","","","","./tasks/HMM-beads/Images/NewTrialBC.png","highH","56","2","2","1","1","false","","","","","","","","","","","","","","","","",""
"image-keyboard-response","247","558800","0.0-4.0-6.0-1.0-1.56","5c2ff645644d5300010c25f3","63690f60c96a0a9a64b48fbd","636920633f084c7ff1c7618a","null","","null","","","","","","","","./tasks/HMM-beads/Images/BlackBeadChoice.png","","","","","","","","","","","","","","","","","","","","","","","",""
"image-keyboard-response","248","559308","0.0-4.0-6.0-1.0-2.56","5c2ff645644d5300010c25f3","63690f60c96a0a9a64b48fbd","636920633f084c7ff1c7618a","null","","null","","","","","","","","./tasks/HMM-beads/Images/BlackBeadChoiceWrong.png","","","","","","","","","","","","","","","","","","","","","","","",""
"image-keyboard-response","249","560226","0.0-4.0-6.0-1.0-0.57","5c2ff645644d5300010c25f3","63690f60c96a0a9a64b48fbd","636920633f084c7ff1c7618a","916","","f","","","","","","","","./tasks/HMM-beads/Images/NewTrialWC.png","highH","57","1","1","2","1","true","","","","","","","","","","","","","","","","",""
"image-keyboard-response","250","560558","0.0-4.0-6.0-1.0-1.57","5c2ff645644d5300010c25f3","63690f60c96a0a9a64b48fbd","636920633f084c7ff1c7618a","null","","null","","","","","","","","./tasks/HMM-beads/Images/BlackBeadChoice.png","","","","","","","","","","","","","","","","","","","","","","","",""
"image-keyboard-response","251","561073","0.0-4.0-6.0-1.0-2.57","5c2ff645644d5300010c25f3","63690f60c96a0a9a64b48fbd","636920633f084c7ff1c7618a","null","","null","","","","","","","","./tasks/HMM-beads/Images/BlackBeadChoiceCorrect.png","","","","","","","","","","","","","","","","","","","","","","","",""
"image-keyboard-response","252","562234","0.0-4.0-6.0-1.0-0.58","5c2ff645644d5300010c25f3","63690f60c96a0a9a64b48fbd","636920633f084c7ff1c7618a","1159","","f","","","","","","","","./tasks/HMM-beads/Images/NewTrialBC.png","highH","58","2","2","1","1","false","","","","","","","","","","","","","","","","",""
"image-keyboard-response","253","562558","0.0-4.0-6.0-1.0-1.58","5c2ff645644d5300010c25f3","63690f60c96a0a9a64b48fbd","636920633f084c7ff1c7618a","null","","null","","","","","","","","./tasks/HMM-beads/Images/BlackBeadChoice.png","","","","","","","","","","","","","","","","","","","","","","","",""
"image-keyboard-response","254","563065","0.0-4.0-6.0-1.0-2.58","5c2ff645644d5300010c25f3","63690f60c96a0a9a64b48fbd","636920633f084c7ff1c7618a","null","","null","","","","","","","","./tasks/HMM-beads/Images/BlackBeadChoiceWrong.png","","","","","","","","","","","","","","","","","","","","","","","",""
"image-keyboard-response","255","564859","0.0-4.0-6.0-1.0-0.59","5c2ff645644d5300010c25f3","63690f60c96a0a9a64b48fbd","636920633f084c7ff1c7618a","1793","","f","","","","","","","","./tasks/HMM-beads/Images/NewTrialWC.png","highH","59","1","1","2","1","true","","","","","","","","","","","","","","","","",""
"image-keyboard-response","256","565165","0.0-4.0-6.0-1.0-1.59","5c2ff645644d5300010c25f3","63690f60c96a0a9a64b48fbd","636920633f084c7ff1c7618a","null","","null","","","","","","","","./tasks/HMM-beads/Images/BlackBeadChoice.png","","","","","","","","","","","","","","","","","","","","","","","",""
"image-keyboard-response","257","565670","0.0-4.0-6.0-1.0-2.59","5c2ff645644d5300010c25f3","63690f60c96a0a9a64b48fbd","636920633f084c7ff1c7618a","null","","null","","","","","","","","./tasks/HMM-beads/Images/BlackBeadChoiceCorrect.png","","","","","","","","","","","","","","","","","","","","","","","",""
"image-keyboard-response","258","566743","0.0-4.0-6.0-1.0-0.60","5c2ff645644d5300010c25f3","63690f60c96a0a9a64b48fbd","636920633f084c7ff1c7618a","1055","","j","","","","","","","","./tasks/HMM-beads/Images/NewTrialBC.png","highH","60","2","2","1","2","true","","","","","","","","","","","","","","","","",""
"image-keyboard-response","259","567052","0.0-4.0-6.0-1.0-1.60","5c2ff645644d5300010c25f3","63690f60c96a0a9a64b48fbd","636920633f084c7ff1c7618a","null","","null","","","","","","","","./tasks/HMM-beads/Images/WhiteBeadChoice.png","","","","","","","","","","","","","","","","","","","","","","","",""
"image-keyboard-response","260","567557","0.0-4.0-6.0-1.0-2.60","5c2ff645644d5300010c25f3","63690f60c96a0a9a64b48fbd","636920633f084c7ff1c7618a","null","","null","","","","","","","","./tasks/HMM-beads/Images/WhiteBeadChoiceCorrect.png","","","","","","","","","","","","","","","","","","","","","","","",""
"image-keyboard-response","261","569117","0.0-4.0-6.0-1.0-0.61","5c2ff645644d5300010c25f3","63690f60c96a0a9a64b48fbd","636920633f084c7ff1c7618a","1558","","j","","","","","","","","./tasks/HMM-beads/Images/NewTrialWC.png","highH","61","1","2","2","2","true","","","","","","","","","","","","","","","","",""
"image-keyboard-response","262","569437","0.0-4.0-6.0-1.0-1.61","5c2ff645644d5300010c25f3","63690f60c96a0a9a64b48fbd","636920633f084c7ff1c7618a","null","","null","","","","","","","","./tasks/HMM-beads/Images/WhiteBeadChoice.png","","","","","","","","","","","","","","","","","","","","","","","",""
"image-keyboard-response","263","569946","0.0-4.0-6.0-1.0-2.61","5c2ff645644d5300010c25f3","63690f60c96a0a9a64b48fbd","636920633f084c7ff1c7618a","null","","null","","","","","","","","./tasks/HMM-beads/Images/WhiteBeadChoiceCorrect.png","","","","","","","","","","","","","","","","","","","","","","","",""
"image-keyboard-response","264","571552","0.0-4.0-6.0-1.0-0.62","5c2ff645644d5300010c25f3","63690f60c96a0a9a64b48fbd","636920633f084c7ff1c7618a","1605","","j","","","","","","","","./tasks/HMM-beads/Images/NewTrialWC.png","highH","62","2","2","2","2","true","","","","","","","","","","","","","","","","",""
"image-keyboard-response","265","571875","0.0-4.0-6.0-1.0-1.62","5c2ff645644d5300010c25f3","63690f60c96a0a9a64b48fbd","636920633f084c7ff1c7618a","null","","null","","","","","","","","./tasks/HMM-beads/Images/WhiteBeadChoice.png","","","","","","","","","","","","","","","","","","","","","","","",""
"image-keyboard-response","266","572381","0.0-4.0-6.0-1.0-2.62","5c2ff645644d5300010c25f3","63690f60c96a0a9a64b48fbd","636920633f084c7ff1c7618a","null","","null","","","","","","","","./tasks/HMM-beads/Images/WhiteBeadChoiceCorrect.png","","","","","","","","","","","","","","","","","","","","","","","",""
"image-keyboard-response","267","573706","0.0-4.0-6.0-1.0-0.63","5c2ff645644d5300010c25f3","63690f60c96a0a9a64b48fbd","636920633f084c7ff1c7618a","1323","","f","","","","","","","","./tasks/HMM-beads/Images/NewTrialWC.png","highH","63","1","1","2","1","true","","","","","","","","","","","","","","","","",""
"image-keyboard-response","268","574030","0.0-4.0-6.0-1.0-1.63","5c2ff645644d5300010c25f3","63690f60c96a0a9a64b48fbd","636920633f084c7ff1c7618a","null","","null","","","","","","","","./tasks/HMM-beads/Images/BlackBeadChoice.png","","","","","","","","","","","","","","","","","","","","","","","",""
"image-keyboard-response","269","574538","0.0-4.0-6.0-1.0-2.63","5c2ff645644d5300010c25f3","63690f60c96a0a9a64b48fbd","636920633f084c7ff1c7618a","null","","null","","","","","","","","./tasks/HMM-beads/Images/BlackBeadChoiceCorrect.png","","","","","","","","","","","","","","","","","","","","","","","",""
"image-keyboard-response","270","576449","0.0-4.0-6.0-1.0-0.64","5c2ff645644d5300010c25f3","63690f60c96a0a9a64b48fbd","636920633f084c7ff1c7618a","1908","","f","","","","","","","","./tasks/HMM-beads/Images/NewTrialBC.png","highH","64","2","2","1","1","false","","","","","","","","","","","","","","","","",""
"image-keyboard-response","271","576779","0.0-4.0-6.0-1.0-1.64","5c2ff645644d5300010c25f3","63690f60c96a0a9a64b48fbd","636920633f084c7ff1c7618a","null","","null","","","","","","","","./tasks/HMM-beads/Images/BlackBeadChoice.png","","","","","","","","","","","","","","","","","","","","","","","",""
"image-keyboard-response","272","577293","0.0-4.0-6.0-1.0-2.64","5c2ff645644d5300010c25f3","63690f60c96a0a9a64b48fbd","636920633f084c7ff1c7618a","null","","null","","","","","","","","./tasks/HMM-beads/Images/BlackBeadChoiceWrong.png","","","","","","","","","","","","","","","","","","","","","","","",""
"image-keyboard-response","273","579082","0.0-4.0-6.0-1.0-0.65","5c2ff645644d5300010c25f3","63690f60c96a0a9a64b48fbd","636920633f084c7ff1c7618a","1781","","f","","","","","","","","./tasks/HMM-beads/Images/NewTrialWC.png","highH","65","1","1","2","1","true","","","","","","","","","","","","","","","","",""
"image-keyboard-response","274","579388","0.0-4.0-6.0-1.0-1.65","5c2ff645644d5300010c25f3","63690f60c96a0a9a64b48fbd","636920633f084c7ff1c7618a","null","","null","","","","","","","","./tasks/HMM-beads/Images/BlackBeadChoice.png","","","","","","","","","","","","","","","","","","","","","","","",""
"image-keyboard-response","275","579897","0.0-4.0-6.0-1.0-2.65","5c2ff645644d5300010c25f3","63690f60c96a0a9a64b48fbd","636920633f084c7ff1c7618a","null","","null","","","","","","","","./tasks/HMM-beads/Images/BlackBeadChoiceCorrect.png","","","","","","","","","","","","","","","","","","","","","","","",""
"image-keyboard-response","276","581145","0.0-4.0-6.0-1.0-0.66","5c2ff645644d5300010c25f3","63690f60c96a0a9a64b48fbd","636920633f084c7ff1c7618a","1246","","j","","","","","","","","./tasks/HMM-beads/Images/NewTrialBC.png","highH","66","2","2","1","2","true","","","","","","","","","","","","","","","","",""
"image-keyboard-response","277","581465","0.0-4.0-6.0-1.0-1.66","5c2ff645644d5300010c25f3","63690f60c96a0a9a64b48fbd","636920633f084c7ff1c7618a","null","","null","","","","","","","","./tasks/HMM-beads/Images/WhiteBeadChoice.png","","","","","","","","","","","","","","","","","","","","","","","",""
"image-keyboard-response","278","581981","0.0-4.0-6.0-1.0-2.66","5c2ff645644d5300010c25f3","63690f60c96a0a9a64b48fbd","636920633f084c7ff1c7618a","null","","null","","","","","","","","./tasks/HMM-beads/Images/WhiteBeadChoiceCorrect.png","","","","","","","","","","","","","","","","","","","","","","","",""
"image-keyboard-response","279","582940","0.0-4.0-6.0-1.0-0.67","5c2ff645644d5300010c25f3","63690f60c96a0a9a64b48fbd","636920633f084c7ff1c7618a","959","","j","","","","","","","","./tasks/HMM-beads/Images/NewTrialWC.png","highH","67","1","1","2","2","false","","","","","","","","","","","","","","","","",""
"image-keyboard-response","280","583266","0.0-4.0-6.0-1.0-1.67","5c2ff645644d5300010c25f3","63690f60c96a0a9a64b48fbd","636920633f084c7ff1c7618a","null","","null","","","","","","","","./tasks/HMM-beads/Images/WhiteBeadChoice.png","","","","","","","","","","","","","","","","","","","","","","","",""
"image-keyboard-response","281","583773","0.0-4.0-6.0-1.0-2.67","5c2ff645644d5300010c25f3","63690f60c96a0a9a64b48fbd","636920633f084c7ff1c7618a","null","","null","","","","","","","","./tasks/HMM-beads/Images/WhiteBeadChoiceWrong.png","","","","","","","","","","","","","","","","","","","","","","","",""
"image-keyboard-response","282","585097","0.0-4.0-6.0-1.0-0.68","5c2ff645644d5300010c25f3","63690f60c96a0a9a64b48fbd","636920633f084c7ff1c7618a","1322","","f","","","","","","","","./tasks/HMM-beads/Images/NewTrialBC.png","highH","68","2","2","1","1","false","","","","","","","","","","","","","","","","",""
"image-keyboard-response","283","585423","0.0-4.0-6.0-1.0-1.68","5c2ff645644d5300010c25f3","63690f60c96a0a9a64b48fbd","636920633f084c7ff1c7618a","null","","null","","","","","","","","./tasks/HMM-beads/Images/BlackBeadChoice.png","","","","","","","","","","","","","","","","","","","","","","","",""
"image-keyboard-response","284","585925","0.0-4.0-6.0-1.0-2.68","5c2ff645644d5300010c25f3","63690f60c96a0a9a64b48fbd","636920633f084c7ff1c7618a","null","","null","","","","","","","","./tasks/HMM-beads/Images/BlackBeadChoiceWrong.png","","","","","","","","","","","","","","","","","","","","","","","",""
"image-keyboard-response","285","586689","0.0-4.0-6.0-1.0-0.69","5c2ff645644d5300010c25f3","63690f60c96a0a9a64b48fbd","636920633f084c7ff1c7618a","762","","f","","","","","","","","./tasks/HMM-beads/Images/NewTrialWC.png","highH","69","1","2","2","1","false","","","","","","","","","","","","","","","","",""
"image-keyboard-response","286","587008","0.0-4.0-6.0-1.0-1.69","5c2ff645644d5300010c25f3","63690f60c96a0a9a64b48fbd","636920633f084c7ff1c7618a","null","","null","","","","","","","","./tasks/HMM-beads/Images/BlackBeadChoice.png","","","","","","","","","","","","","","","","","","","","","","","",""
"image-keyboard-response","287","587515","0.0-4.0-6.0-1.0-2.69","5c2ff645644d5300010c25f3","63690f60c96a0a9a64b48fbd","636920633f084c7ff1c7618a","null","","null","","","","","","","","./tasks/HMM-beads/Images/BlackBeadChoiceWrong.png","","","","","","","","","","","","","","","","","","","","","","","",""
"image-keyboard-response","288","588933","0.0-4.0-6.0-1.0-0.70","5c2ff645644d5300010c25f3","63690f60c96a0a9a64b48fbd","636920633f084c7ff1c7618a","1417","","f","","","","","","","","./tasks/HMM-beads/Images/NewTrialWC.png","highH","70","2","2","2","1","false","","","","","","","","","","","","","","","","",""
"image-keyboard-response","289","589259","0.0-4.0-6.0-1.0-1.70","5c2ff645644d5300010c25f3","63690f60c96a0a9a64b48fbd","636920633f084c7ff1c7618a","null","","null","","","","","","","","./tasks/HMM-beads/Images/BlackBeadChoice.png","","","","","","","","","","","","","","","","","","","","","","","",""
"image-keyboard-response","290","589768","0.0-4.0-6.0-1.0-2.70","5c2ff645644d5300010c25f3","63690f60c96a0a9a64b48fbd","636920633f084c7ff1c7618a","null","","null","","","","","","","","./tasks/HMM-beads/Images/BlackBeadChoiceWrong.png","","","","","","","","","","","","","","","","","","","","","","","",""
"image-keyboard-response","291","591499","0.0-4.0-6.0-1.0-0.71","5c2ff645644d5300010c25f3","63690f60c96a0a9a64b48fbd","636920633f084c7ff1c7618a","1730","","j","","","","","","","","./tasks/HMM-beads/Images/NewTrialWC.png","highH","71","1","2","2","2","true","","","","","","","","","","","","","","","","",""
"image-keyboard-response","292","591815","0.0-4.0-6.0-1.0-1.71","5c2ff645644d5300010c25f3","63690f60c96a0a9a64b48fbd","636920633f084c7ff1c7618a","null","","null","","","","","","","","./tasks/HMM-beads/Images/WhiteBeadChoice.png","","","","","","","","","","","","","","","","","","","","","","","",""
"image-keyboard-response","293","592324","0.0-4.0-6.0-1.0-2.71","5c2ff645644d5300010c25f3","63690f60c96a0a9a64b48fbd","636920633f084c7ff1c7618a","null","","null","","","","","","","","./tasks/HMM-beads/Images/WhiteBeadChoiceCorrect.png","","","","","","","","","","","","","","","","","","","","","","","",""
"image-keyboard-response","294","594054","0.0-4.0-6.0-1.0-0.72","5c2ff645644d5300010c25f3","63690f60c96a0a9a64b48fbd","636920633f084c7ff1c7618a","1728","","j","","","","","","","","./tasks/HMM-beads/Images/NewTrialWC.png","highH","72","2","2","2","2","true","","","","","","","","","","","","","","","","",""
"image-keyboard-response","295","594370","0.0-4.0-6.0-1.0-1.72","5c2ff645644d5300010c25f3","63690f60c96a0a9a64b48fbd","636920633f084c7ff1c7618a","null","","null","","","","","","","","./tasks/HMM-beads/Images/WhiteBeadChoice.png","","","","","","","","","","","","","","","","","","","","","","","",""
"image-keyboard-response","296","594893","0.0-4.0-6.0-1.0-2.72","5c2ff645644d5300010c25f3","63690f60c96a0a9a64b48fbd","636920633f084c7ff1c7618a","null","","null","","","","","","","","./tasks/HMM-beads/Images/WhiteBeadChoiceCorrect.png","","","","","","","","","","","","","","","","","","","","","","","",""
"image-keyboard-response","297","596538","0.0-4.0-6.0-1.0-0.73","5c2ff645644d5300010c25f3","63690f60c96a0a9a64b48fbd","636920633f084c7ff1c7618a","1639","","f","","","","","","","","./tasks/HMM-beads/Images/NewTrialWC.png","highH","73","1","1","2","1","true","","","","","","","","","","","","","","","","",""
"image-keyboard-response","298","596858","0.0-4.0-6.0-1.0-1.73","5c2ff645644d5300010c25f3","63690f60c96a0a9a64b48fbd","636920633f084c7ff1c7618a","null","","null","","","","","","","","./tasks/HMM-beads/Images/BlackBeadChoice.png","","","","","","","","","","","","","","","","","","","","","","","",""
"image-keyboard-response","299","597365","0.0-4.0-6.0-1.0-2.73","5c2ff645644d5300010c25f3","63690f60c96a0a9a64b48fbd","636920633f084c7ff1c7618a","null","","null","","","","","","","","./tasks/HMM-beads/Images/BlackBeadChoiceCorrect.png","","","","","","","","","","","","","","","","","","","","","","","",""
"image-keyboard-response","300","598941","0.0-4.0-6.0-1.0-0.74","5c2ff645644d5300010c25f3","63690f60c96a0a9a64b48fbd","636920633f084c7ff1c7618a","1574","","f","","","","","","","","./tasks/HMM-beads/Images/NewTrialBC.png","highH","74","2","2","1","1","false","","","","","","","","","","","","","","","","",""
"image-keyboard-response","301","599264","0.0-4.0-6.0-1.0-1.74","5c2ff645644d5300010c25f3","63690f60c96a0a9a64b48fbd","636920633f084c7ff1c7618a","null","","null","","","","","","","","./tasks/HMM-beads/Images/BlackBeadChoice.png","","","","","","","","","","","","","","","","","","","","","","","",""
"image-keyboard-response","302","599770","0.0-4.0-6.0-1.0-2.74","5c2ff645644d5300010c25f3","63690f60c96a0a9a64b48fbd","636920633f084c7ff1c7618a","null","","null","","","","","","","","./tasks/HMM-beads/Images/BlackBeadChoiceWrong.png","","","","","","","","","","","","","","","","","","","","","","","",""
"image-keyboard-response","303","601831","0.0-4.0-6.0-1.0-0.75","5c2ff645644d5300010c25f3","63690f60c96a0a9a64b48fbd","636920633f084c7ff1c7618a","2060","","j","","","","","","","","./tasks/HMM-beads/Images/NewTrialWC.png","highH","75","1","1","2","2","false","","","","","","","","","","","","","","","","",""
"image-keyboard-response","304","602152","0.0-4.0-6.0-1.0-1.75","5c2ff645644d5300010c25f3","63690f60c96a0a9a64b48fbd","636920633f084c7ff1c7618a","null","","null","","","","","","","","./tasks/HMM-beads/Images/WhiteBeadChoice.png","","","","","","","","","","","","","","","","","","","","","","","",""
"image-keyboard-response","305","602661","0.0-4.0-6.0-1.0-2.75","5c2ff645644d5300010c25f3","63690f60c96a0a9a64b48fbd","636920633f084c7ff1c7618a","null","","null","","","","","","","","./tasks/HMM-beads/Images/WhiteBeadChoiceWrong.png","","","","","","","","","","","","","","","","","","","","","","","",""
"image-keyboard-response","306","604641","0.0-4.0-6.0-1.0-0.76","5c2ff645644d5300010c25f3","63690f60c96a0a9a64b48fbd","636920633f084c7ff1c7618a","1979","","j","","","","","","","","./tasks/HMM-beads/Images/NewTrialBC.png","highH","76","2","2","1","2","true","","","","","","","","","","","","","","","","",""
"image-keyboard-response","307","604961","0.0-4.0-6.0-1.0-1.76","5c2ff645644d5300010c25f3","63690f60c96a0a9a64b48fbd","636920633f084c7ff1c7618a","null","","null","","","","","","","","./tasks/HMM-beads/Images/WhiteBeadChoice.png","","","","","","","","","","","","","","","","","","","","","","","",""
"image-keyboard-response","308","605478","0.0-4.0-6.0-1.0-2.76","5c2ff645644d5300010c25f3","63690f60c96a0a9a64b48fbd","636920633f084c7ff1c7618a","null","","null","","","","","","","","./tasks/HMM-beads/Images/WhiteBeadChoiceCorrect.png","","","","","","","","","","","","","","","","","","","","","","","",""
"image-keyboard-response","309","606722","0.0-4.0-6.0-1.0-0.77","5c2ff645644d5300010c25f3","63690f60c96a0a9a64b48fbd","636920633f084c7ff1c7618a","1225","","j","","","","","","","","./tasks/HMM-beads/Images/NewTrialWC.png","highH","77","1","1","2","2","false","","","","","","","","","","","","","","","","",""
"image-keyboard-response","310","607028","0.0-4.0-6.0-1.0-1.77","5c2ff645644d5300010c25f3","63690f60c96a0a9a64b48fbd","636920633f084c7ff1c7618a","null","","null","","","","","","","","./tasks/HMM-beads/Images/WhiteBeadChoice.png","","","","","","","","","","","","","","","","","","","","","","","",""
"image-keyboard-response","311","607537","0.0-4.0-6.0-1.0-2.77","5c2ff645644d5300010c25f3","63690f60c96a0a9a64b48fbd","636920633f084c7ff1c7618a","null","","null","","","","","","","","./tasks/HMM-beads/Images/WhiteBeadChoiceWrong.png","","","","","","","","","","","","","","","","","","","","","","","",""
"image-keyboard-response","312","609034","0.0-4.0-6.0-1.0-0.78","5c2ff645644d5300010c25f3","63690f60c96a0a9a64b48fbd","636920633f084c7ff1c7618a","1479","","j","","","","","","","","./tasks/HMM-beads/Images/NewTrialBC.png","highH","78","2","2","1","2","true","","","","","","","","","","","","","","","","",""
"image-keyboard-response","313","609350","0.0-4.0-6.0-1.0-1.78","5c2ff645644d5300010c25f3","63690f60c96a0a9a64b48fbd","636920633f084c7ff1c7618a","null","","null","","","","","","","","./tasks/HMM-beads/Images/WhiteBeadChoice.png","","","","","","","","","","","","","","","","","","","","","","","",""
"image-keyboard-response","314","609868","0.0-4.0-6.0-1.0-2.78","5c2ff645644d5300010c25f3","63690f60c96a0a9a64b48fbd","636920633f084c7ff1c7618a","null","","null","","","","","","","","./tasks/HMM-beads/Images/WhiteBeadChoiceCorrect.png","","","","","","","","","","","","","","","","","","","","","","","",""
"image-keyboard-response","315","611042","0.0-4.0-6.0-1.0-0.79","5c2ff645644d5300010c25f3","63690f60c96a0a9a64b48fbd","636920633f084c7ff1c7618a","1157","","f","","","","","","","","./tasks/HMM-beads/Images/NewTrialWC.png","highH","79","1","1","2","1","true","","","","","","","","","","","","","","","","",""
"image-keyboard-response","316","611353","0.0-4.0-6.0-1.0-1.79","5c2ff645644d5300010c25f3","63690f60c96a0a9a64b48fbd","636920633f084c7ff1c7618a","null","","null","","","","","","","","./tasks/HMM-beads/Images/BlackBeadChoice.png","","","","","","","","","","","","","","","","","","","","","","","",""
"image-keyboard-response","317","611861","0.0-4.0-6.0-1.0-2.79","5c2ff645644d5300010c25f3","63690f60c96a0a9a64b48fbd","636920633f084c7ff1c7618a","null","","null","","","","","","","","./tasks/HMM-beads/Images/BlackBeadChoiceCorrect.png","","","","","","","","","","","","","","","","","","","","","","","",""
"image-keyboard-response","318","613139","0.0-4.0-6.0-1.0-0.80","5c2ff645644d5300010c25f3","63690f60c96a0a9a64b48fbd","636920633f084c7ff1c7618a","1276","","j","","","","","","","","./tasks/HMM-beads/Images/NewTrialBC.png","highH","80","2","1","1","2","false","","","","","","","","","","","","","","","","",""
"image-keyboard-response","319","613474","0.0-4.0-6.0-1.0-1.80","5c2ff645644d5300010c25f3","63690f60c96a0a9a64b48fbd","636920633f084c7ff1c7618a","null","","null","","","","","","","","./tasks/HMM-beads/Images/WhiteBeadChoice.png","","","","","","","","","","","","","","","","","","","","","","","",""
"image-keyboard-response","320","613982","0.0-4.0-6.0-1.0-2.80","5c2ff645644d5300010c25f3","63690f60c96a0a9a64b48fbd","636920633f084c7ff1c7618a","null","","null","","","","","","","","./tasks/HMM-beads/Images/WhiteBeadChoiceWrong.png","","","","","","","","","","","","","","","","","","","","","","","",""
