"trial_type","trial_index","time_elapsed","internal_node_id","subject_id","study_id","session_id","rt","url","response","question_order","view_history","success","timeout","failed_images","failed_audio","failed_video","stimulus","block","trial_number","jar","bead","previous_bead","choice","correct","highH_score","lowH_score","state","rewarded","state1_action","state2_visited","state1_key","state2_key","state1_rt","state2_rt","two_arm_score","total_bonus"
"pavlovia","0","4330","0.0-0.0","5e4898bd88257233536a65b5","635ab8fc87ce89828e04cd4e","635abff82cd4b651c01af48d","","","","","","","","","","","","","","","","","","","","","","","","","","","","","",""
"external-html","1","45339","0.0-1.0-0.0","5e4898bd88257233536a65b5","635ab8fc87ce89828e04cd4e","635abff82cd4b651c01af48d","40803","new_consent.html","","","","","","","","","","","","","","","","","","","","","","","","","","","",""
"survey-multi-choice","2","54041","0.0-1.0-1.0","5e4898bd88257233536a65b5","635ab8fc87ce89828e04cd4e","635abff82cd4b651c01af48d","8687","","{""Q0"":""Female"",""Q1"":""Hispanic or Latino""}","[0,1]","","","","","","","","","","","","","","","","","","","","","","","","","",""
"survey-text","3","57209","0.0-1.0-2.0","5e4898bd88257233536a65b5","635ab8fc87ce89828e04cd4e","635abff82cd4b651c01af48d","3139","","{""Q0"":""21""}","","","","","","","","","","","","","","","","","","","","","","","","","","",""
"instructions","4","78192","0.0-2.0","5e4898bd88257233536a65b5","635ab8fc87ce89828e04cd4e","635abff82cd4b651c01af48d","20879","","","","[{""page_index"":0,""viewing_time"":18529},{""page_index"":1,""viewing_time"":2346}]","","","","","","","","","","","","","","","","","","","","","","","","",""
"instructions","5","79609","0.0-3.0","5e4898bd88257233536a65b5","635ab8fc87ce89828e04cd4e","635abff82cd4b651c01af48d","1414","","","","[{""page_index"":0,""viewing_time"":1413}]","","","","","","","","","","","","","","","","","","","","","","","","",""
"preload","6","93913","0.0-4.0-0.0","5e4898bd88257233536a65b5","635ab8fc87ce89828e04cd4e","635abff82cd4b651c01af48d","","","","","","true","false","[]","[]","[]","","","","","","","","","","","","","","","","","","","",""
"instructions","7","406714","0.0-4.0-1.0","5e4898bd88257233536a65b5","635ab8fc87ce89828e04cd4e","635abff82cd4b651c01af48d","312800","","","","[{""page_index"":0,""viewing_time"":31052},{""page_index"":1,""viewing_time"":13110},{""page_index"":2,""viewing_time"":7079},{""page_index"":3,""viewing_time"":4431},{""page_index"":4,""viewing_time"":18994},{""page_index"":5,""viewing_time"":2620},{""page_index"":4,""viewing_time"":5412},{""page_index"":3,""viewing_time"":2690},{""page_index"":4,""viewing_time"":93504},{""page_index"":5,""viewing_time"":62692},{""page_index"":6,""viewing_time"":7488},{""page_index"":7,""viewing_time"":9748},{""page_index"":8,""viewing_time"":7434},{""page_index"":9,""viewing_time"":11814},{""page_index"":8,""viewing_time"":1427},{""page_index"":9,""viewing_time"":2694},{""page_index"":10,""viewing_time"":27268},{""page_index"":11,""viewing_time"":3341}]","","","","","","","","","","","","","","","","","","","","","","","","",""
"html-button-response","8","412034","0.0-4.0-2.0-0.0-0.0","5e4898bd88257233536a65b5","635ab8fc87ce89828e04cd4e","635abff82cd4b651c01af48d","5315","","1","","","","","","","","<div align=center>Your goal is to predict…?<br><br></div>","","","","","","","","","","","","","","","","","","",""
"html-button-response","9","419943","0.0-4.0-2.0-1.0-0.0","5e4898bd88257233536a65b5","635ab8fc87ce89828e04cd4e","635abff82cd4b651c01af48d","5812","","2","","","","","","","","<div align=center>In the jar with mostly white beads, there are ___% white beads and ___% black beads?<br><br></div>","","","","","","","","","","","","","","","","","","",""
"html-button-response","10","439162","0.0-4.0-2.0-2.0-0.0","5e4898bd88257233536a65b5","635ab8fc87ce89828e04cd4e","635abff82cd4b651c01af48d","17603","","1","","","","","","","","<div align=center>When there is a 1% probability that the jars will switch, the next bead will most likely be drawn from the…<br><br></div>","","","","","","","","","","","","","","","","","","",""
"html-button-response","11","444277","0.0-4.0-2.0-2.1-0.1","5e4898bd88257233536a65b5","635ab8fc87ce89828e04cd4e","635abff82cd4b651c01af48d","3587","","0","","","","","","","","<div align=center>When there is a 1% probability that the jars will switch, the next bead will most likely be drawn from the…<br><br></div>","","","","","","","","","","","","","","","","","","",""
"html-button-response","12","448857","0.0-4.0-2.0-3.0-0.0","5e4898bd88257233536a65b5","635ab8fc87ce89828e04cd4e","635abff82cd4b651c01af48d","3379","","1","","","","","","","","<div align=center>When there is a 99% probability that the jars will switch, the next bead will most likely be drawn from the…<br><br></div>","","","","","","","","","","","","","","","","","","",""
"instructions","13","466573","0.0-4.0-3.0","5e4898bd88257233536a65b5","635ab8fc87ce89828e04cd4e","635abff82cd4b651c01af48d","16497","","","","[{""page_index"":0,""viewing_time"":16496}]","","","","","","","","","","","","","","","","","","","","","","","","",""
"html-keyboard-response","14","485585","0.0-4.0-4.0-0.0","5e4898bd88257233536a65b5","635ab8fc87ce89828e04cd4e","635abff82cd4b651c01af48d","19007",""," ","","","","","","","","<div align=center>In this practice block, there will be a <b>10% chance</b> that the jar on the next trial will be different from the jar on the current trial.<br><br></div>","","","","","","","","","","","","","","","","","","",""
"image-keyboard-response","15","496311","0.0-4.0-4.0-1.0-0.0","5e4898bd88257233536a65b5","635ab8fc87ce89828e04cd4e","635abff82cd4b651c01af48d","10714","","f","","","","","","","","./tasks/HMM-beads/Images/NoChoice.png","practice","0","1","1","0","1","true","","","","","","","","","","","",""
"image-keyboard-response","16","496622","0.0-4.0-4.0-1.0-1.0","5e4898bd88257233536a65b5","635ab8fc87ce89828e04cd4e","635abff82cd4b651c01af48d","null","","null","","","","","","","","./tasks/HMM-beads/Images/BlackBeadChoice.png","","","","","","","","","","","","","","","","","","",""
"image-keyboard-response","17","497129","0.0-4.0-4.0-1.0-2.0","5e4898bd88257233536a65b5","635ab8fc87ce89828e04cd4e","635abff82cd4b651c01af48d","null","","null","","","","","","","","./tasks/HMM-beads/Images/BlackBeadChoiceCorrect.png","","","","","","","","","","","","","","","","","","",""
"image-keyboard-response","18","502329","0.0-4.0-4.0-1.0-0.1","5e4898bd88257233536a65b5","635ab8fc87ce89828e04cd4e","635abff82cd4b651c01af48d","5194","","f","","","","","","","","./tasks/HMM-beads/Images/NewTrialBC.png","practice","1","1","1","1","1","true","","","","","","","","","","","",""
"image-keyboard-response","19","502635","0.0-4.0-4.0-1.0-1.1","5e4898bd88257233536a65b5","635ab8fc87ce89828e04cd4e","635abff82cd4b651c01af48d","null","","null","","","","","","","","./tasks/HMM-beads/Images/BlackBeadChoice.png","","","","","","","","","","","","","","","","","","",""
"image-keyboard-response","20","503141","0.0-4.0-4.0-1.0-2.1","5e4898bd88257233536a65b5","635ab8fc87ce89828e04cd4e","635abff82cd4b651c01af48d","null","","null","","","","","","","","./tasks/HMM-beads/Images/BlackBeadChoiceCorrect.png","","","","","","","","","","","","","","","","","","",""
"image-keyboard-response","21","511214","0.0-4.0-4.0-1.0-0.2","5e4898bd88257233536a65b5","635ab8fc87ce89828e04cd4e","635abff82cd4b651c01af48d","8068","","f","","","","","","","","./tasks/HMM-beads/Images/NewTrialBC.png","practice","2","1","2","1","1","false","","","","","","","","","","","",""
"image-keyboard-response","22","511521","0.0-4.0-4.0-1.0-1.2","5e4898bd88257233536a65b5","635ab8fc87ce89828e04cd4e","635abff82cd4b651c01af48d","null","","null","","","","","","","","./tasks/HMM-beads/Images/BlackBeadChoice.png","","","","","","","","","","","","","","","","","","",""
"image-keyboard-response","23","512027","0.0-4.0-4.0-1.0-2.2","5e4898bd88257233536a65b5","635ab8fc87ce89828e04cd4e","635abff82cd4b651c01af48d","null","","null","","","","","","","","./tasks/HMM-beads/Images/BlackBeadChoiceWrong.png","","","","","","","","","","","","","","","","","","",""
"image-keyboard-response","24","520225","0.0-4.0-4.0-1.0-0.3","5e4898bd88257233536a65b5","635ab8fc87ce89828e04cd4e","635abff82cd4b651c01af48d","8193","","j","","","","","","","","./tasks/HMM-beads/Images/NewTrialWC.png","practice","3","1","1","2","2","false","","","","","","","","","","","",""
"image-keyboard-response","25","520532","0.0-4.0-4.0-1.0-1.3","5e4898bd88257233536a65b5","635ab8fc87ce89828e04cd4e","635abff82cd4b651c01af48d","null","","null","","","","","","","","./tasks/HMM-beads/Images/WhiteBeadChoice.png","","","","","","","","","","","","","","","","","","",""
"image-keyboard-response","26","521038","0.0-4.0-4.0-1.0-2.3","5e4898bd88257233536a65b5","635ab8fc87ce89828e04cd4e","635abff82cd4b651c01af48d","null","","null","","","","","","","","./tasks/HMM-beads/Images/WhiteBeadChoiceWrong.png","","","","","","","","","","","","","","","","","","",""
"image-keyboard-response","27","534505","0.0-4.0-4.0-1.0-0.4","5e4898bd88257233536a65b5","635ab8fc87ce89828e04cd4e","635abff82cd4b651c01af48d","13428","","f","","","","","","","","./tasks/HMM-beads/Images/NewTrialBC.png","practice","4","1","2","1","1","false","","","","","","","","","","","",""
"image-keyboard-response","28","534810","0.0-4.0-4.0-1.0-1.4","5e4898bd88257233536a65b5","635ab8fc87ce89828e04cd4e","635abff82cd4b651c01af48d","null","","null","","","","","","","","./tasks/HMM-beads/Images/BlackBeadChoice.png","","","","","","","","","","","","","","","","","","",""
"image-keyboard-response","29","535316","0.0-4.0-4.0-1.0-2.4","5e4898bd88257233536a65b5","635ab8fc87ce89828e04cd4e","635abff82cd4b651c01af48d","null","","null","","","","","","","","./tasks/HMM-beads/Images/BlackBeadChoiceWrong.png","","","","","","","","","","","","","","","","","","",""
"image-keyboard-response","30","537930","0.0-4.0-4.0-1.0-0.5","5e4898bd88257233536a65b5","635ab8fc87ce89828e04cd4e","635abff82cd4b651c01af48d","2608","","f","","","","","","","","./tasks/HMM-beads/Images/NewTrialWC.png","practice","5","1","1","2","1","true","","","","","","","","","","","",""
"image-keyboard-response","31","538235","0.0-4.0-4.0-1.0-1.5","5e4898bd88257233536a65b5","635ab8fc87ce89828e04cd4e","635abff82cd4b651c01af48d","null","","null","","","","","","","","./tasks/HMM-beads/Images/BlackBeadChoice.png","","","","","","","","","","","","","","","","","","",""
"image-keyboard-response","32","538740","0.0-4.0-4.0-1.0-2.5","5e4898bd88257233536a65b5","635ab8fc87ce89828e04cd4e","635abff82cd4b651c01af48d","null","","null","","","","","","","","./tasks/HMM-beads/Images/BlackBeadChoiceCorrect.png","","","","","","","","","","","","","","","","","","",""
"image-keyboard-response","33","541387","0.0-4.0-4.0-1.0-0.6","5e4898bd88257233536a65b5","635ab8fc87ce89828e04cd4e","635abff82cd4b651c01af48d","2643","","f","","","","","","","","./tasks/HMM-beads/Images/NewTrialBC.png","practice","6","1","2","1","1","false","","","","","","","","","","","",""
"image-keyboard-response","34","541692","0.0-4.0-4.0-1.0-1.6","5e4898bd88257233536a65b5","635ab8fc87ce89828e04cd4e","635abff82cd4b651c01af48d","null","","null","","","","","","","","./tasks/HMM-beads/Images/BlackBeadChoice.png","","","","","","","","","","","","","","","","","","",""
"image-keyboard-response","35","542197","0.0-4.0-4.0-1.0-2.6","5e4898bd88257233536a65b5","635ab8fc87ce89828e04cd4e","635abff82cd4b651c01af48d","null","","null","","","","","","","","./tasks/HMM-beads/Images/BlackBeadChoiceWrong.png","","","","","","","","","","","","","","","","","","",""
"image-keyboard-response","36","550239","0.0-4.0-4.0-1.0-0.7","5e4898bd88257233536a65b5","635ab8fc87ce89828e04cd4e","635abff82cd4b651c01af48d","8038","","f","","","","","","","","./tasks/HMM-beads/Images/NewTrialWC.png","practice","7","1","1","2","1","true","","","","","","","","","","","",""
"image-keyboard-response","37","550544","0.0-4.0-4.0-1.0-1.7","5e4898bd88257233536a65b5","635ab8fc87ce89828e04cd4e","635abff82cd4b651c01af48d","null","","null","","","","","","","","./tasks/HMM-beads/Images/BlackBeadChoice.png","","","","","","","","","","","","","","","","","","",""
"image-keyboard-response","38","551049","0.0-4.0-4.0-1.0-2.7","5e4898bd88257233536a65b5","635ab8fc87ce89828e04cd4e","635abff82cd4b651c01af48d","null","","null","","","","","","","","./tasks/HMM-beads/Images/BlackBeadChoiceCorrect.png","","","","","","","","","","","","","","","","","","",""
"image-keyboard-response","39","552526","0.0-4.0-4.0-1.0-0.8","5e4898bd88257233536a65b5","635ab8fc87ce89828e04cd4e","635abff82cd4b651c01af48d","1474","","f","","","","","","","","./tasks/HMM-beads/Images/NewTrialBC.png","practice","8","1","1","1","1","true","","","","","","","","","","","",""
"image-keyboard-response","40","552842","0.0-4.0-4.0-1.0-1.8","5e4898bd88257233536a65b5","635ab8fc87ce89828e04cd4e","635abff82cd4b651c01af48d","null","","null","","","","","","","","./tasks/HMM-beads/Images/BlackBeadChoice.png","","","","","","","","","","","","","","","","","","",""
"image-keyboard-response","41","553347","0.0-4.0-4.0-1.0-2.8","5e4898bd88257233536a65b5","635ab8fc87ce89828e04cd4e","635abff82cd4b651c01af48d","null","","null","","","","","","","","./tasks/HMM-beads/Images/BlackBeadChoiceCorrect.png","","","","","","","","","","","","","","","","","","",""
"image-keyboard-response","42","555183","0.0-4.0-4.0-1.0-0.9","5e4898bd88257233536a65b5","635ab8fc87ce89828e04cd4e","635abff82cd4b651c01af48d","1831","","f","","","","","","","","./tasks/HMM-beads/Images/NewTrialBC.png","practice","9","2","2","1","1","false","","","","","","","","","","","",""
"image-keyboard-response","43","555487","0.0-4.0-4.0-1.0-1.9","5e4898bd88257233536a65b5","635ab8fc87ce89828e04cd4e","635abff82cd4b651c01af48d","null","","null","","","","","","","","./tasks/HMM-beads/Images/BlackBeadChoice.png","","","","","","","","","","","","","","","","","","",""
"image-keyboard-response","44","555992","0.0-4.0-4.0-1.0-2.9","5e4898bd88257233536a65b5","635ab8fc87ce89828e04cd4e","635abff82cd4b651c01af48d","null","","null","","","","","","","","./tasks/HMM-beads/Images/BlackBeadChoiceWrong.png","","","","","","","","","","","","","","","","","","",""
"image-keyboard-response","45","557805","0.0-4.0-4.0-1.0-0.10","5e4898bd88257233536a65b5","635ab8fc87ce89828e04cd4e","635abff82cd4b651c01af48d","1809","","f","","","","","","","","./tasks/HMM-beads/Images/NewTrialWC.png","practice","10","2","1","2","1","true","","","","","","","","","","","",""
"image-keyboard-response","46","558110","0.0-4.0-4.0-1.0-1.10","5e4898bd88257233536a65b5","635ab8fc87ce89828e04cd4e","635abff82cd4b651c01af48d","null","","null","","","","","","","","./tasks/HMM-beads/Images/BlackBeadChoice.png","","","","","","","","","","","","","","","","","","",""
"image-keyboard-response","47","558615","0.0-4.0-4.0-1.0-2.10","5e4898bd88257233536a65b5","635ab8fc87ce89828e04cd4e","635abff82cd4b651c01af48d","null","","null","","","","","","","","./tasks/HMM-beads/Images/BlackBeadChoiceCorrect.png","","","","","","","","","","","","","","","","","","",""
"image-keyboard-response","48","560606","0.0-4.0-4.0-1.0-0.11","5e4898bd88257233536a65b5","635ab8fc87ce89828e04cd4e","635abff82cd4b651c01af48d","1987","","f","","","","","","","","./tasks/HMM-beads/Images/NewTrialBC.png","practice","11","2","2","1","1","false","","","","","","","","","","","",""
"image-keyboard-response","49","560911","0.0-4.0-4.0-1.0-1.11","5e4898bd88257233536a65b5","635ab8fc87ce89828e04cd4e","635abff82cd4b651c01af48d","null","","null","","","","","","","","./tasks/HMM-beads/Images/BlackBeadChoice.png","","","","","","","","","","","","","","","","","","",""
"image-keyboard-response","50","561416","0.0-4.0-4.0-1.0-2.11","5e4898bd88257233536a65b5","635ab8fc87ce89828e04cd4e","635abff82cd4b651c01af48d","null","","null","","","","","","","","./tasks/HMM-beads/Images/BlackBeadChoiceWrong.png","","","","","","","","","","","","","","","","","","",""
"image-keyboard-response","51","563262","0.0-4.0-4.0-1.0-0.12","5e4898bd88257233536a65b5","635ab8fc87ce89828e04cd4e","635abff82cd4b651c01af48d","1842","","f","","","","","","","","./tasks/HMM-beads/Images/NewTrialWC.png","practice","12","2","2","2","1","false","","","","","","","","","","","",""
"image-keyboard-response","52","563567","0.0-4.0-4.0-1.0-1.12","5e4898bd88257233536a65b5","635ab8fc87ce89828e04cd4e","635abff82cd4b651c01af48d","null","","null","","","","","","","","./tasks/HMM-beads/Images/BlackBeadChoice.png","","","","","","","","","","","","","","","","","","",""
"image-keyboard-response","53","564088","0.0-4.0-4.0-1.0-2.12","5e4898bd88257233536a65b5","635ab8fc87ce89828e04cd4e","635abff82cd4b651c01af48d","null","","null","","","","","","","","./tasks/HMM-beads/Images/BlackBeadChoiceWrong.png","","","","","","","","","","","","","","","","","","",""
"image-keyboard-response","54","564942","0.0-4.0-4.0-1.0-0.13","5e4898bd88257233536a65b5","635ab8fc87ce89828e04cd4e","635abff82cd4b651c01af48d","849","","j","","","","","","","","./tasks/HMM-beads/Images/NewTrialWC.png","practice","13","2","2","2","2","true","","","","","","","","","","","",""
"image-keyboard-response","55","565247","0.0-4.0-4.0-1.0-1.13","5e4898bd88257233536a65b5","635ab8fc87ce89828e04cd4e","635abff82cd4b651c01af48d","null","","null","","","","","","","","./tasks/HMM-beads/Images/WhiteBeadChoice.png","","","","","","","","","","","","","","","","","","",""
"image-keyboard-response","56","565752","0.0-4.0-4.0-1.0-2.13","5e4898bd88257233536a65b5","635ab8fc87ce89828e04cd4e","635abff82cd4b651c01af48d","null","","null","","","","","","","","./tasks/HMM-beads/Images/WhiteBeadChoiceCorrect.png","","","","","","","","","","","","","","","","","","",""
"image-keyboard-response","57","566686","0.0-4.0-4.0-1.0-0.14","5e4898bd88257233536a65b5","635ab8fc87ce89828e04cd4e","635abff82cd4b651c01af48d","930","","j","","","","","","","","./tasks/HMM-beads/Images/NewTrialWC.png","practice","14","2","2","2","2","true","","","","","","","","","","","",""
"image-keyboard-response","58","566991","0.0-4.0-4.0-1.0-1.14","5e4898bd88257233536a65b5","635ab8fc87ce89828e04cd4e","635abff82cd4b651c01af48d","null","","null","","","","","","","","./tasks/HMM-beads/Images/WhiteBeadChoice.png","","","","","","","","","","","","","","","","","","",""
"image-keyboard-response","59","567496","0.0-4.0-4.0-1.0-2.14","5e4898bd88257233536a65b5","635ab8fc87ce89828e04cd4e","635abff82cd4b651c01af48d","null","","null","","","","","","","","./tasks/HMM-beads/Images/WhiteBeadChoiceCorrect.png","","","","","","","","","","","","","","","","","","",""
"image-keyboard-response","60","568974","0.0-4.0-4.0-1.0-0.15","5e4898bd88257233536a65b5","635ab8fc87ce89828e04cd4e","635abff82cd4b651c01af48d","1474","","j","","","","","","","","./tasks/HMM-beads/Images/NewTrialWC.png","practice","15","1","1","2","2","false","","","","","","","","","","","",""
"image-keyboard-response","61","569278","0.0-4.0-4.0-1.0-1.15","5e4898bd88257233536a65b5","635ab8fc87ce89828e04cd4e","635abff82cd4b651c01af48d","null","","null","","","","","","","","./tasks/HMM-beads/Images/WhiteBeadChoice.png","","","","","","","","","","","","","","","","","","",""
"image-keyboard-response","62","569783","0.0-4.0-4.0-1.0-2.15","5e4898bd88257233536a65b5","635ab8fc87ce89828e04cd4e","635abff82cd4b651c01af48d","null","","null","","","","","","","","./tasks/HMM-beads/Images/WhiteBeadChoiceWrong.png","","","","","","","","","","","","","","","","","","",""
"image-keyboard-response","63","570574","0.0-4.0-4.0-1.0-0.16","5e4898bd88257233536a65b5","635ab8fc87ce89828e04cd4e","635abff82cd4b651c01af48d","787","","f","","","","","","","","./tasks/HMM-beads/Images/NewTrialBC.png","practice","16","1","2","1","1","false","","","","","","","","","","","",""
"image-keyboard-response","64","570879","0.0-4.0-4.0-1.0-1.16","5e4898bd88257233536a65b5","635ab8fc87ce89828e04cd4e","635abff82cd4b651c01af48d","null","","null","","","","","","","","./tasks/HMM-beads/Images/BlackBeadChoice.png","","","","","","","","","","","","","","","","","","",""
"image-keyboard-response","65","571384","0.0-4.0-4.0-1.0-2.16","5e4898bd88257233536a65b5","635ab8fc87ce89828e04cd4e","635abff82cd4b651c01af48d","null","","null","","","","","","","","./tasks/HMM-beads/Images/BlackBeadChoiceWrong.png","","","","","","","","","","","","","","","","","","",""
"image-keyboard-response","66","571983","0.0-4.0-4.0-1.0-0.17","5e4898bd88257233536a65b5","635ab8fc87ce89828e04cd4e","635abff82cd4b651c01af48d","582","","j","","","","","","","","./tasks/HMM-beads/Images/NewTrialWC.png","practice","17","1","1","2","2","false","","","","","","","","","","","",""
"image-keyboard-response","67","572288","0.0-4.0-4.0-1.0-1.17","5e4898bd88257233536a65b5","635ab8fc87ce89828e04cd4e","635abff82cd4b651c01af48d","null","","null","","","","","","","","./tasks/HMM-beads/Images/WhiteBeadChoice.png","","","","","","","","","","","","","","","","","","",""
"image-keyboard-response","68","572793","0.0-4.0-4.0-1.0-2.17","5e4898bd88257233536a65b5","635ab8fc87ce89828e04cd4e","635abff82cd4b651c01af48d","null","","null","","","","","","","","./tasks/HMM-beads/Images/WhiteBeadChoiceWrong.png","","","","","","","","","","","","","","","","","","",""
"image-keyboard-response","69","572943","0.0-4.0-4.0-1.0-0.18","5e4898bd88257233536a65b5","635ab8fc87ce89828e04cd4e","635abff82cd4b651c01af48d","145","","f","","","","","","","","./tasks/HMM-beads/Images/NewTrialBC.png","practice","18","1","1","1","1","true","","","","","","","","","","","",""
"image-keyboard-response","70","573247","0.0-4.0-4.0-1.0-1.18","5e4898bd88257233536a65b5","635ab8fc87ce89828e04cd4e","635abff82cd4b651c01af48d","null","","null","","","","","","","","./tasks/HMM-beads/Images/BlackBeadChoice.png","","","","","","","","","","","","","","","","","","",""
"image-keyboard-response","71","573752","0.0-4.0-4.0-1.0-2.18","5e4898bd88257233536a65b5","635ab8fc87ce89828e04cd4e","635abff82cd4b651c01af48d","null","","null","","","","","","","","./tasks/HMM-beads/Images/BlackBeadChoiceCorrect.png","","","","","","","","","","","","","","","","","","",""
"image-keyboard-response","72","573789","0.0-4.0-4.0-1.0-0.19","5e4898bd88257233536a65b5","635ab8fc87ce89828e04cd4e","635abff82cd4b651c01af48d","32","","f","","","","","","","","./tasks/HMM-beads/Images/NewTrialBC.png","practice","19","1","1","1","1","true","","","","","","","","","","","",""
"image-keyboard-response","73","574094","0.0-4.0-4.0-1.0-1.19","5e4898bd88257233536a65b5","635ab8fc87ce89828e04cd4e","635abff82cd4b651c01af48d","null","","null","","","","","","","","./tasks/HMM-beads/Images/BlackBeadChoice.png","","","","","","","","","","","","","","","","","","",""
"image-keyboard-response","74","574599","0.0-4.0-4.0-1.0-2.19","5e4898bd88257233536a65b5","635ab8fc87ce89828e04cd4e","635abff82cd4b651c01af48d","null","","null","","","","","","","","./tasks/HMM-beads/Images/BlackBeadChoiceCorrect.png","","","","","","","","","","","","","","","","","","",""
"html-keyboard-response","75","578398","0.0-4.0-4.0-2.0","5e4898bd88257233536a65b5","635ab8fc87ce89828e04cd4e","635abff82cd4b651c01af48d","3796",""," ","","","","","","","","","","","","","","","","","","","","","","","","","","",""
"instructions","76","594833","0.0-4.0-5.0","5e4898bd88257233536a65b5","635ab8fc87ce89828e04cd4e","635abff82cd4b651c01af48d","16433","","","","[{""page_index"":0,""viewing_time"":12088},{""page_index"":1,""viewing_time"":4343}]","","","","","","","","","","","","","","","","","","","","","","","","",""
"html-keyboard-response","77","625472","0.0-4.0-6.0-0.0","5e4898bd88257233536a65b5","635ab8fc87ce89828e04cd4e","635abff82cd4b651c01af48d","30636",""," ","","","","","","","","<div align=center>In this block, there will be a <b>99%</b> chance that the jar on the next trial will be different from the jar on the current trial.<br><br></div>","","","","","","","","","","","","","","","","","","",""
"image-keyboard-response","78","632190","0.0-4.0-6.0-1.0-0.0","5e4898bd88257233536a65b5","635ab8fc87ce89828e04cd4e","635abff82cd4b651c01af48d","6714","","f","","","","","","","","./tasks/HMM-beads/Images/NoChoice.png","highH","0","1","1","0","1","true","","","","","","","","","","","",""
"image-keyboard-response","79","632495","0.0-4.0-6.0-1.0-1.0","5e4898bd88257233536a65b5","635ab8fc87ce89828e04cd4e","635abff82cd4b651c01af48d","null","","null","","","","","","","","./tasks/HMM-beads/Images/BlackBeadChoice.png","","","","","","","","","","","","","","","","","","",""
"image-keyboard-response","80","633000","0.0-4.0-6.0-1.0-2.0","5e4898bd88257233536a65b5","635ab8fc87ce89828e04cd4e","635abff82cd4b651c01af48d","null","","null","","","","","","","","./tasks/HMM-beads/Images/BlackBeadChoiceCorrect.png","","","","","","","","","","","","","","","","","","",""
"image-keyboard-response","81","634846","0.0-4.0-6.0-1.0-0.1","5e4898bd88257233536a65b5","635ab8fc87ce89828e04cd4e","635abff82cd4b651c01af48d","1841","","f","","","","","","","","./tasks/HMM-beads/Images/NewTrialBC.png","highH","1","2","1","1","1","true","","","","","","","","","","","",""
"image-keyboard-response","82","635150","0.0-4.0-6.0-1.0-1.1","5e4898bd88257233536a65b5","635ab8fc87ce89828e04cd4e","635abff82cd4b651c01af48d","null","","null","","","","","","","","./tasks/HMM-beads/Images/BlackBeadChoice.png","","","","","","","","","","","","","","","","","","",""
"image-keyboard-response","83","635657","0.0-4.0-6.0-1.0-2.1","5e4898bd88257233536a65b5","635ab8fc87ce89828e04cd4e","635abff82cd4b651c01af48d","null","","null","","","","","","","","./tasks/HMM-beads/Images/BlackBeadChoiceCorrect.png","","","","","","","","","","","","","","","","","","",""
"image-keyboard-response","84","637327","0.0-4.0-6.0-1.0-0.2","5e4898bd88257233536a65b5","635ab8fc87ce89828e04cd4e","635abff82cd4b651c01af48d","1666","","f","","","","","","","","./tasks/HMM-beads/Images/NewTrialBC.png","highH","2","1","1","1","1","true","","","","","","","","","","","",""
"image-keyboard-response","85","637632","0.0-4.0-6.0-1.0-1.2","5e4898bd88257233536a65b5","635ab8fc87ce89828e04cd4e","635abff82cd4b651c01af48d","null","","null","","","","","","","","./tasks/HMM-beads/Images/BlackBeadChoice.png","","","","","","","","","","","","","","","","","","",""
"image-keyboard-response","86","638137","0.0-4.0-6.0-1.0-2.2","5e4898bd88257233536a65b5","635ab8fc87ce89828e04cd4e","635abff82cd4b651c01af48d","null","","null","","","","","","","","./tasks/HMM-beads/Images/BlackBeadChoiceCorrect.png","","","","","","","","","","","","","","","","","","",""
"image-keyboard-response","87","640365","0.0-4.0-6.0-1.0-0.3","5e4898bd88257233536a65b5","635ab8fc87ce89828e04cd4e","635abff82cd4b651c01af48d","2224","","f","","","","","","","","./tasks/HMM-beads/Images/NewTrialBC.png","highH","3","2","2","1","1","false","","","","","","","","","","","",""
"image-keyboard-response","88","640670","0.0-4.0-6.0-1.0-1.3","5e4898bd88257233536a65b5","635ab8fc87ce89828e04cd4e","635abff82cd4b651c01af48d","null","","null","","","","","","","","./tasks/HMM-beads/Images/BlackBeadChoice.png","","","","","","","","","","","","","","","","","","",""
"image-keyboard-response","89","641175","0.0-4.0-6.0-1.0-2.3","5e4898bd88257233536a65b5","635ab8fc87ce89828e04cd4e","635abff82cd4b651c01af48d","null","","null","","","","","","","","./tasks/HMM-beads/Images/BlackBeadChoiceWrong.png","","","","","","","","","","","","","","","","","","",""
"image-keyboard-response","90","644189","0.0-4.0-6.0-1.0-0.4","5e4898bd88257233536a65b5","635ab8fc87ce89828e04cd4e","635abff82cd4b651c01af48d","3010","","f","","","","","","","","./tasks/HMM-beads/Images/NewTrialWC.png","highH","4","1","1","2","1","true","","","","","","","","","","","",""
"image-keyboard-response","91","644494","0.0-4.0-6.0-1.0-1.4","5e4898bd88257233536a65b5","635ab8fc87ce89828e04cd4e","635abff82cd4b651c01af48d","null","","null","","","","","","","","./tasks/HMM-beads/Images/BlackBeadChoice.png","","","","","","","","","","","","","","","","","","",""
"image-keyboard-response","92","644999","0.0-4.0-6.0-1.0-2.4","5e4898bd88257233536a65b5","635ab8fc87ce89828e04cd4e","635abff82cd4b651c01af48d","null","","null","","","","","","","","./tasks/HMM-beads/Images/BlackBeadChoiceCorrect.png","","","","","","","","","","","","","","","","","","",""
"image-keyboard-response","93","646686","0.0-4.0-6.0-1.0-0.5","5e4898bd88257233536a65b5","635ab8fc87ce89828e04cd4e","635abff82cd4b651c01af48d","1683","","f","","","","","","","","./tasks/HMM-beads/Images/NewTrialBC.png","highH","5","2","2","1","1","false","","","","","","","","","","","",""
"image-keyboard-response","94","646991","0.0-4.0-6.0-1.0-1.5","5e4898bd88257233536a65b5","635ab8fc87ce89828e04cd4e","635abff82cd4b651c01af48d","null","","null","","","","","","","","./tasks/HMM-beads/Images/BlackBeadChoice.png","","","","","","","","","","","","","","","","","","",""
"image-keyboard-response","95","647496","0.0-4.0-6.0-1.0-2.5","5e4898bd88257233536a65b5","635ab8fc87ce89828e04cd4e","635abff82cd4b651c01af48d","null","","null","","","","","","","","./tasks/HMM-beads/Images/BlackBeadChoiceWrong.png","","","","","","","","","","","","","","","","","","",""
"image-keyboard-response","96","649199","0.0-4.0-6.0-1.0-0.6","5e4898bd88257233536a65b5","635ab8fc87ce89828e04cd4e","635abff82cd4b651c01af48d","1699","","j","","","","","","","","./tasks/HMM-beads/Images/NewTrialWC.png","highH","6","1","1","2","2","false","","","","","","","","","","","",""
"image-keyboard-response","97","649503","0.0-4.0-6.0-1.0-1.6","5e4898bd88257233536a65b5","635ab8fc87ce89828e04cd4e","635abff82cd4b651c01af48d","null","","null","","","","","","","","./tasks/HMM-beads/Images/WhiteBeadChoice.png","","","","","","","","","","","","","","","","","","",""
"image-keyboard-response","98","650028","0.0-4.0-6.0-1.0-2.6","5e4898bd88257233536a65b5","635ab8fc87ce89828e04cd4e","635abff82cd4b651c01af48d","null","","null","","","","","","","","./tasks/HMM-beads/Images/WhiteBeadChoiceWrong.png","","","","","","","","","","","","","","","","","","",""
"image-keyboard-response","99","651262","0.0-4.0-6.0-1.0-0.7","5e4898bd88257233536a65b5","635ab8fc87ce89828e04cd4e","635abff82cd4b651c01af48d","1230","","f","","","","","","","","./tasks/HMM-beads/Images/NewTrialBC.png","highH","7","2","2","1","1","false","","","","","","","","","","","",""
"image-keyboard-response","100","651567","0.0-4.0-6.0-1.0-1.7","5e4898bd88257233536a65b5","635ab8fc87ce89828e04cd4e","635abff82cd4b651c01af48d","null","","null","","","","","","","","./tasks/HMM-beads/Images/BlackBeadChoice.png","","","","","","","","","","","","","","","","","","",""
"image-keyboard-response","101","652072","0.0-4.0-6.0-1.0-2.7","5e4898bd88257233536a65b5","635ab8fc87ce89828e04cd4e","635abff82cd4b651c01af48d","null","","null","","","","","","","","./tasks/HMM-beads/Images/BlackBeadChoiceWrong.png","","","","","","","","","","","","","","","","","","",""
"image-keyboard-response","102","652574","0.0-4.0-6.0-1.0-0.8","5e4898bd88257233536a65b5","635ab8fc87ce89828e04cd4e","635abff82cd4b651c01af48d","498","","j","","","","","","","","./tasks/HMM-beads/Images/NewTrialWC.png","highH","8","1","1","2","2","false","","","","","","","","","","","",""
"image-keyboard-response","103","652878","0.0-4.0-6.0-1.0-1.8","5e4898bd88257233536a65b5","635ab8fc87ce89828e04cd4e","635abff82cd4b651c01af48d","null","","null","","","","","","","","./tasks/HMM-beads/Images/WhiteBeadChoice.png","","","","","","","","","","","","","","","","","","",""
"image-keyboard-response","104","653382","0.0-4.0-6.0-1.0-2.8","5e4898bd88257233536a65b5","635ab8fc87ce89828e04cd4e","635abff82cd4b651c01af48d","null","","null","","","","","","","","./tasks/HMM-beads/Images/WhiteBeadChoiceWrong.png","","","","","","","","","","","","","","","","","","",""
"image-keyboard-response","105","654333","0.0-4.0-6.0-1.0-0.9","5e4898bd88257233536a65b5","635ab8fc87ce89828e04cd4e","635abff82cd4b651c01af48d","946","","j","","","","","","","","./tasks/HMM-beads/Images/NewTrialBC.png","highH","9","2","2","1","2","true","","","","","","","","","","","",""
"image-keyboard-response","106","654638","0.0-4.0-6.0-1.0-1.9","5e4898bd88257233536a65b5","635ab8fc87ce89828e04cd4e","635abff82cd4b651c01af48d","null","","null","","","","","","","","./tasks/HMM-beads/Images/WhiteBeadChoice.png","","","","","","","","","","","","","","","","","","",""
"image-keyboard-response","107","655143","0.0-4.0-6.0-1.0-2.9","5e4898bd88257233536a65b5","635ab8fc87ce89828e04cd4e","635abff82cd4b651c01af48d","null","","null","","","","","","","","./tasks/HMM-beads/Images/WhiteBeadChoiceCorrect.png","","","","","","","","","","","","","","","","","","",""
"image-keyboard-response","108","657214","0.0-4.0-6.0-1.0-0.10","5e4898bd88257233536a65b5","635ab8fc87ce89828e04cd4e","635abff82cd4b651c01af48d","2042","","f","","","","","","","","./tasks/HMM-beads/Images/NewTrialWC.png","highH","10","1","1","2","1","true","","","","","","","","","","","",""
"image-keyboard-response","109","657519","0.0-4.0-6.0-1.0-1.10","5e4898bd88257233536a65b5","635ab8fc87ce89828e04cd4e","635abff82cd4b651c01af48d","null","","null","","","","","","","","./tasks/HMM-beads/Images/BlackBeadChoice.png","","","","","","","","","","","","","","","","","","",""
"image-keyboard-response","110","658024","0.0-4.0-6.0-1.0-2.10","5e4898bd88257233536a65b5","635ab8fc87ce89828e04cd4e","635abff82cd4b651c01af48d","null","","null","","","","","","","","./tasks/HMM-beads/Images/BlackBeadChoiceCorrect.png","","","","","","","","","","","","","","","","","","",""
"image-keyboard-response","111","659679","0.0-4.0-6.0-1.0-0.11","5e4898bd88257233536a65b5","635ab8fc87ce89828e04cd4e","635abff82cd4b651c01af48d","1651","","f","","","","","","","","./tasks/HMM-beads/Images/NewTrialBC.png","highH","11","2","1","1","1","true","","","","","","","","","","","",""
"image-keyboard-response","112","659984","0.0-4.0-6.0-1.0-1.11","5e4898bd88257233536a65b5","635ab8fc87ce89828e04cd4e","635abff82cd4b651c01af48d","null","","null","","","","","","","","./tasks/HMM-beads/Images/BlackBeadChoice.png","","","","","","","","","","","","","","","","","","",""
"image-keyboard-response","113","660489","0.0-4.0-6.0-1.0-2.11","5e4898bd88257233536a65b5","635ab8fc87ce89828e04cd4e","635abff82cd4b651c01af48d","null","","null","","","","","","","","./tasks/HMM-beads/Images/BlackBeadChoiceCorrect.png","","","","","","","","","","","","","","","","","","",""
"image-keyboard-response","114","662302","0.0-4.0-6.0-1.0-0.12","5e4898bd88257233536a65b5","635ab8fc87ce89828e04cd4e","635abff82cd4b651c01af48d","1809","","j","","","","","","","","./tasks/HMM-beads/Images/NewTrialBC.png","highH","12","1","1","1","2","false","","","","","","","","","","","",""
"image-keyboard-response","115","662606","0.0-4.0-6.0-1.0-1.12","5e4898bd88257233536a65b5","635ab8fc87ce89828e04cd4e","635abff82cd4b651c01af48d","null","","null","","","","","","","","./tasks/HMM-beads/Images/WhiteBeadChoice.png","","","","","","","","","","","","","","","","","","",""
"image-keyboard-response","116","663111","0.0-4.0-6.0-1.0-2.12","5e4898bd88257233536a65b5","635ab8fc87ce89828e04cd4e","635abff82cd4b651c01af48d","null","","null","","","","","","","","./tasks/HMM-beads/Images/WhiteBeadChoiceWrong.png","","","","","","","","","","","","","","","","","","",""
"image-keyboard-response","117","664317","0.0-4.0-6.0-1.0-0.13","5e4898bd88257233536a65b5","635ab8fc87ce89828e04cd4e","635abff82cd4b651c01af48d","1203","","j","","","","","","","","./tasks/HMM-beads/Images/NewTrialBC.png","highH","13","2","2","1","2","true","","","","","","","","","","","",""
"image-keyboard-response","118","664621","0.0-4.0-6.0-1.0-1.13","5e4898bd88257233536a65b5","635ab8fc87ce89828e04cd4e","635abff82cd4b651c01af48d","null","","null","","","","","","","","./tasks/HMM-beads/Images/WhiteBeadChoice.png","","","","","","","","","","","","","","","","","","",""
"image-keyboard-response","119","665127","0.0-4.0-6.0-1.0-2.13","5e4898bd88257233536a65b5","635ab8fc87ce89828e04cd4e","635abff82cd4b651c01af48d","null","","null","","","","","","","","./tasks/HMM-beads/Images/WhiteBeadChoiceCorrect.png","","","","","","","","","","","","","","","","","","",""
"image-keyboard-response","120","666334","0.0-4.0-6.0-1.0-0.14","5e4898bd88257233536a65b5","635ab8fc87ce89828e04cd4e","635abff82cd4b651c01af48d","1203","","j","","","","","","","","./tasks/HMM-beads/Images/NewTrialWC.png","highH","14","1","1","2","2","false","","","","","","","","","","","",""
"image-keyboard-response","121","666639","0.0-4.0-6.0-1.0-1.14","5e4898bd88257233536a65b5","635ab8fc87ce89828e04cd4e","635abff82cd4b651c01af48d","null","","null","","","","","","","","./tasks/HMM-beads/Images/WhiteBeadChoice.png","","","","","","","","","","","","","","","","","","",""
"image-keyboard-response","122","667145","0.0-4.0-6.0-1.0-2.14","5e4898bd88257233536a65b5","635ab8fc87ce89828e04cd4e","635abff82cd4b651c01af48d","null","","null","","","","","","","","./tasks/HMM-beads/Images/WhiteBeadChoiceWrong.png","","","","","","","","","","","","","","","","","","",""
"image-keyboard-response","123","668382","0.0-4.0-6.0-1.0-0.15","5e4898bd88257233536a65b5","635ab8fc87ce89828e04cd4e","635abff82cd4b651c01af48d","1232","","f","","","","","","","","./tasks/HMM-beads/Images/NewTrialBC.png","highH","15","2","2","1","1","false","","","","","","","","","","","",""
"image-keyboard-response","124","668687","0.0-4.0-6.0-1.0-1.15","5e4898bd88257233536a65b5","635ab8fc87ce89828e04cd4e","635abff82cd4b651c01af48d","null","","null","","","","","","","","./tasks/HMM-beads/Images/BlackBeadChoice.png","","","","","","","","","","","","","","","","","","",""
"image-keyboard-response","125","669192","0.0-4.0-6.0-1.0-2.15","5e4898bd88257233536a65b5","635ab8fc87ce89828e04cd4e","635abff82cd4b651c01af48d","null","","null","","","","","","","","./tasks/HMM-beads/Images/BlackBeadChoiceWrong.png","","","","","","","","","","","","","","","","","","",""
"image-keyboard-response","126","670767","0.0-4.0-6.0-1.0-0.16","5e4898bd88257233536a65b5","635ab8fc87ce89828e04cd4e","635abff82cd4b651c01af48d","1570","","j","","","","","","","","./tasks/HMM-beads/Images/NewTrialWC.png","highH","16","1","1","2","2","false","","","","","","","","","","","",""
"image-keyboard-response","127","671072","0.0-4.0-6.0-1.0-1.16","5e4898bd88257233536a65b5","635ab8fc87ce89828e04cd4e","635abff82cd4b651c01af48d","null","","null","","","","","","","","./tasks/HMM-beads/Images/WhiteBeadChoice.png","","","","","","","","","","","","","","","","","","",""
"image-keyboard-response","128","671576","0.0-4.0-6.0-1.0-2.16","5e4898bd88257233536a65b5","635ab8fc87ce89828e04cd4e","635abff82cd4b651c01af48d","null","","null","","","","","","","","./tasks/HMM-beads/Images/WhiteBeadChoiceWrong.png","","","","","","","","","","","","","","","","","","",""
"image-keyboard-response","129","675598","0.0-4.0-6.0-1.0-0.17","5e4898bd88257233536a65b5","635ab8fc87ce89828e04cd4e","635abff82cd4b651c01af48d","4018","","j","","","","","","","","./tasks/HMM-beads/Images/NewTrialBC.png","highH","17","2","1","1","2","false","","","","","","","","","","","",""
"image-keyboard-response","130","675902","0.0-4.0-6.0-1.0-1.17","5e4898bd88257233536a65b5","635ab8fc87ce89828e04cd4e","635abff82cd4b651c01af48d","null","","null","","","","","","","","./tasks/HMM-beads/Images/WhiteBeadChoice.png","","","","","","","","","","","","","","","","","","",""
"image-keyboard-response","131","676407","0.0-4.0-6.0-1.0-2.17","5e4898bd88257233536a65b5","635ab8fc87ce89828e04cd4e","635abff82cd4b651c01af48d","null","","null","","","","","","","","./tasks/HMM-beads/Images/WhiteBeadChoiceWrong.png","","","","","","","","","","","","","","","","","","",""
"image-keyboard-response","132","677246","0.0-4.0-6.0-1.0-0.18","5e4898bd88257233536a65b5","635ab8fc87ce89828e04cd4e","635abff82cd4b651c01af48d","834","","j","","","","","","","","./tasks/HMM-beads/Images/NewTrialBC.png","highH","18","1","1","1","2","false","","","","","","","","","","","",""
"image-keyboard-response","133","677551","0.0-4.0-6.0-1.0-1.18","5e4898bd88257233536a65b5","635ab8fc87ce89828e04cd4e","635abff82cd4b651c01af48d","null","","null","","","","","","","","./tasks/HMM-beads/Images/WhiteBeadChoice.png","","","","","","","","","","","","","","","","","","",""
"image-keyboard-response","134","678056","0.0-4.0-6.0-1.0-2.18","5e4898bd88257233536a65b5","635ab8fc87ce89828e04cd4e","635abff82cd4b651c01af48d","null","","null","","","","","","","","./tasks/HMM-beads/Images/WhiteBeadChoiceWrong.png","","","","","","","","","","","","","","","","","","",""
"image-keyboard-response","135","678414","0.0-4.0-6.0-1.0-0.19","5e4898bd88257233536a65b5","635ab8fc87ce89828e04cd4e","635abff82cd4b651c01af48d","354","","f","","","","","","","","./tasks/HMM-beads/Images/NewTrialBC.png","highH","19","2","2","1","1","false","","","","","","","","","","","",""
"image-keyboard-response","136","678719","0.0-4.0-6.0-1.0-1.19","5e4898bd88257233536a65b5","635ab8fc87ce89828e04cd4e","635abff82cd4b651c01af48d","null","","null","","","","","","","","./tasks/HMM-beads/Images/BlackBeadChoice.png","","","","","","","","","","","","","","","","","","",""
"image-keyboard-response","137","679224","0.0-4.0-6.0-1.0-2.19","5e4898bd88257233536a65b5","635ab8fc87ce89828e04cd4e","635abff82cd4b651c01af48d","null","","null","","","","","","","","./tasks/HMM-beads/Images/BlackBeadChoiceWrong.png","","","","","","","","","","","","","","","","","","",""
"image-keyboard-response","138","680717","0.0-4.0-6.0-1.0-0.20","5e4898bd88257233536a65b5","635ab8fc87ce89828e04cd4e","635abff82cd4b651c01af48d","1489","","f","","","","","","","","./tasks/HMM-beads/Images/NewTrialWC.png","highH","20","1","1","2","1","true","","","","","","","","","","","",""
"image-keyboard-response","139","681022","0.0-4.0-6.0-1.0-1.20","5e4898bd88257233536a65b5","635ab8fc87ce89828e04cd4e","635abff82cd4b651c01af48d","null","","null","","","","","","","","./tasks/HMM-beads/Images/BlackBeadChoice.png","","","","","","","","","","","","","","","","","","",""
"image-keyboard-response","140","681527","0.0-4.0-6.0-1.0-2.20","5e4898bd88257233536a65b5","635ab8fc87ce89828e04cd4e","635abff82cd4b651c01af48d","null","","null","","","","","","","","./tasks/HMM-beads/Images/BlackBeadChoiceCorrect.png","","","","","","","","","","","","","","","","","","",""
"image-keyboard-response","141","682142","0.0-4.0-6.0-1.0-0.21","5e4898bd88257233536a65b5","635ab8fc87ce89828e04cd4e","635abff82cd4b651c01af48d","611","","f","","","","","","","","./tasks/HMM-beads/Images/NewTrialBC.png","highH","21","2","2","1","1","false","","","","","","","","","","","",""
"image-keyboard-response","142","682446","0.0-4.0-6.0-1.0-1.21","5e4898bd88257233536a65b5","635ab8fc87ce89828e04cd4e","635abff82cd4b651c01af48d","null","","null","","","","","","","","./tasks/HMM-beads/Images/BlackBeadChoice.png","","","","","","","","","","","","","","","","","","",""
"image-keyboard-response","143","682965","0.0-4.0-6.0-1.0-2.21","5e4898bd88257233536a65b5","635ab8fc87ce89828e04cd4e","635abff82cd4b651c01af48d","null","","null","","","","","","","","./tasks/HMM-beads/Images/BlackBeadChoiceWrong.png","","","","","","","","","","","","","","","","","","",""
"image-keyboard-response","144","683614","0.0-4.0-6.0-1.0-0.22","5e4898bd88257233536a65b5","635ab8fc87ce89828e04cd4e","635abff82cd4b651c01af48d","644","","f","","","","","","","","./tasks/HMM-beads/Images/NewTrialWC.png","highH","22","1","1","2","1","true","","","","","","","","","","","",""
"image-keyboard-response","145","683918","0.0-4.0-6.0-1.0-1.22","5e4898bd88257233536a65b5","635ab8fc87ce89828e04cd4e","635abff82cd4b651c01af48d","null","","null","","","","","","","","./tasks/HMM-beads/Images/BlackBeadChoice.png","","","","","","","","","","","","","","","","","","",""
"image-keyboard-response","146","684423","0.0-4.0-6.0-1.0-2.22","5e4898bd88257233536a65b5","635ab8fc87ce89828e04cd4e","635abff82cd4b651c01af48d","null","","null","","","","","","","","./tasks/HMM-beads/Images/BlackBeadChoiceCorrect.png","","","","","","","","","","","","","","","","","","",""
"image-keyboard-response","147","689949","0.0-4.0-6.0-1.0-0.23","5e4898bd88257233536a65b5","635ab8fc87ce89828e04cd4e","635abff82cd4b651c01af48d","5522","","j","","","","","","","","./tasks/HMM-beads/Images/NewTrialBC.png","highH","23","2","2","1","2","true","","","","","","","","","","","",""
"image-keyboard-response","148","690254","0.0-4.0-6.0-1.0-1.23","5e4898bd88257233536a65b5","635ab8fc87ce89828e04cd4e","635abff82cd4b651c01af48d","null","","null","","","","","","","","./tasks/HMM-beads/Images/WhiteBeadChoice.png","","","","","","","","","","","","","","","","","","",""
"image-keyboard-response","149","690759","0.0-4.0-6.0-1.0-2.23","5e4898bd88257233536a65b5","635ab8fc87ce89828e04cd4e","635abff82cd4b651c01af48d","null","","null","","","","","","","","./tasks/HMM-beads/Images/WhiteBeadChoiceCorrect.png","","","","","","","","","","","","","","","","","","",""
"image-keyboard-response","150","691790","0.0-4.0-6.0-1.0-0.24","5e4898bd88257233536a65b5","635ab8fc87ce89828e04cd4e","635abff82cd4b651c01af48d","1026","","f","","","","","","","","./tasks/HMM-beads/Images/NewTrialWC.png","highH","24","1","2","2","1","false","","","","","","","","","","","",""
"image-keyboard-response","151","692093","0.0-4.0-6.0-1.0-1.24","5e4898bd88257233536a65b5","635ab8fc87ce89828e04cd4e","635abff82cd4b651c01af48d","null","","null","","","","","","","","./tasks/HMM-beads/Images/BlackBeadChoice.png","","","","","","","","","","","","","","","","","","",""
"image-keyboard-response","152","692598","0.0-4.0-6.0-1.0-2.24","5e4898bd88257233536a65b5","635ab8fc87ce89828e04cd4e","635abff82cd4b651c01af48d","null","","null","","","","","","","","./tasks/HMM-beads/Images/BlackBeadChoiceWrong.png","","","","","","","","","","","","","","","","","","",""
"image-keyboard-response","153","693583","0.0-4.0-6.0-1.0-0.25","5e4898bd88257233536a65b5","635ab8fc87ce89828e04cd4e","635abff82cd4b651c01af48d","981","","f","","","","","","","","./tasks/HMM-beads/Images/NewTrialWC.png","highH","25","2","2","2","1","false","","","","","","","","","","","",""
"image-keyboard-response","154","693887","0.0-4.0-6.0-1.0-1.25","5e4898bd88257233536a65b5","635ab8fc87ce89828e04cd4e","635abff82cd4b651c01af48d","null","","null","","","","","","","","./tasks/HMM-beads/Images/BlackBeadChoice.png","","","","","","","","","","","","","","","","","","",""
"image-keyboard-response","155","694392","0.0-4.0-6.0-1.0-2.25","5e4898bd88257233536a65b5","635ab8fc87ce89828e04cd4e","635abff82cd4b651c01af48d","null","","null","","","","","","","","./tasks/HMM-beads/Images/BlackBeadChoiceWrong.png","","","","","","","","","","","","","","","","","","",""
"image-keyboard-response","156","694893","0.0-4.0-6.0-1.0-0.26","5e4898bd88257233536a65b5","635ab8fc87ce89828e04cd4e","635abff82cd4b651c01af48d","497","","f","","","","","","","","./tasks/HMM-beads/Images/NewTrialWC.png","highH","26","1","2","2","1","false","","","","","","","","","","","",""
"image-keyboard-response","157","695198","0.0-4.0-6.0-1.0-1.26","5e4898bd88257233536a65b5","635ab8fc87ce89828e04cd4e","635abff82cd4b651c01af48d","null","","null","","","","","","","","./tasks/HMM-beads/Images/BlackBeadChoice.png","","","","","","","","","","","","","","","","","","",""
"image-keyboard-response","158","695703","0.0-4.0-6.0-1.0-2.26","5e4898bd88257233536a65b5","635ab8fc87ce89828e04cd4e","635abff82cd4b651c01af48d","null","","null","","","","","","","","./tasks/HMM-beads/Images/BlackBeadChoiceWrong.png","","","","","","","","","","","","","","","","","","",""
"image-keyboard-response","159","696461","0.0-4.0-6.0-1.0-0.27","5e4898bd88257233536a65b5","635ab8fc87ce89828e04cd4e","635abff82cd4b651c01af48d","754","","j","","","","","","","","./tasks/HMM-beads/Images/NewTrialWC.png","highH","27","2","2","2","2","true","","","","","","","","","","","",""
"image-keyboard-response","160","696766","0.0-4.0-6.0-1.0-1.27","5e4898bd88257233536a65b5","635ab8fc87ce89828e04cd4e","635abff82cd4b651c01af48d","null","","null","","","","","","","","./tasks/HMM-beads/Images/WhiteBeadChoice.png","","","","","","","","","","","","","","","","","","",""
"image-keyboard-response","161","697271","0.0-4.0-6.0-1.0-2.27","5e4898bd88257233536a65b5","635ab8fc87ce89828e04cd4e","635abff82cd4b651c01af48d","null","","null","","","","","","","","./tasks/HMM-beads/Images/WhiteBeadChoiceCorrect.png","","","","","","","","","","","","","","","","","","",""
"image-keyboard-response","162","697677","0.0-4.0-6.0-1.0-0.28","5e4898bd88257233536a65b5","635ab8fc87ce89828e04cd4e","635abff82cd4b651c01af48d","403","","j","","","","","","","","./tasks/HMM-beads/Images/NewTrialWC.png","highH","28","1","1","2","2","false","","","","","","","","","","","",""
"image-keyboard-response","163","697982","0.0-4.0-6.0-1.0-1.28","5e4898bd88257233536a65b5","635ab8fc87ce89828e04cd4e","635abff82cd4b651c01af48d","null","","null","","","","","","","","./tasks/HMM-beads/Images/WhiteBeadChoice.png","","","","","","","","","","","","","","","","","","",""
"image-keyboard-response","164","698487","0.0-4.0-6.0-1.0-2.28","5e4898bd88257233536a65b5","635ab8fc87ce89828e04cd4e","635abff82cd4b651c01af48d","null","","null","","","","","","","","./tasks/HMM-beads/Images/WhiteBeadChoiceWrong.png","","","","","","","","","","","","","","","","","","",""
"image-keyboard-response","165","700222","0.0-4.0-6.0-1.0-0.29","5e4898bd88257233536a65b5","635ab8fc87ce89828e04cd4e","635abff82cd4b651c01af48d","1731","","f","","","","","","","","./tasks/HMM-beads/Images/NewTrialBC.png","highH","29","2","1","1","1","true","","","","","","","","","","","",""
"image-keyboard-response","166","700525","0.0-4.0-6.0-1.0-1.29","5e4898bd88257233536a65b5","635ab8fc87ce89828e04cd4e","635abff82cd4b651c01af48d","null","","null","","","","","","","","./tasks/HMM-beads/Images/BlackBeadChoice.png","","","","","","","","","","","","","","","","","","",""
"image-keyboard-response","167","701052","0.0-4.0-6.0-1.0-2.29","5e4898bd88257233536a65b5","635ab8fc87ce89828e04cd4e","635abff82cd4b651c01af48d","null","","null","","","","","","","","./tasks/HMM-beads/Images/BlackBeadChoiceCorrect.png","","","","","","","","","","","","","","","","","","",""
"image-keyboard-response","168","702079","0.0-4.0-6.0-1.0-0.30","5e4898bd88257233536a65b5","635ab8fc87ce89828e04cd4e","635abff82cd4b651c01af48d","1023","","j","","","","","","","","./tasks/HMM-beads/Images/NewTrialBC.png","highH","30","1","1","1","2","false","","","","","","","","","","","",""
"image-keyboard-response","169","702384","0.0-4.0-6.0-1.0-1.30","5e4898bd88257233536a65b5","635ab8fc87ce89828e04cd4e","635abff82cd4b651c01af48d","null","","null","","","","","","","","./tasks/HMM-beads/Images/WhiteBeadChoice.png","","","","","","","","","","","","","","","","","","",""
"image-keyboard-response","170","702889","0.0-4.0-6.0-1.0-2.30","5e4898bd88257233536a65b5","635ab8fc87ce89828e04cd4e","635abff82cd4b651c01af48d","null","","null","","","","","","","","./tasks/HMM-beads/Images/WhiteBeadChoiceWrong.png","","","","","","","","","","","","","","","","","","",""
"image-keyboard-response","171","703807","0.0-4.0-6.0-1.0-0.31","5e4898bd88257233536a65b5","635ab8fc87ce89828e04cd4e","635abff82cd4b651c01af48d","914","","f","","","","","","","","./tasks/HMM-beads/Images/NewTrialBC.png","highH","31","2","2","1","1","false","","","","","","","","","","","",""
"image-keyboard-response","172","704111","0.0-4.0-6.0-1.0-1.31","5e4898bd88257233536a65b5","635ab8fc87ce89828e04cd4e","635abff82cd4b651c01af48d","null","","null","","","","","","","","./tasks/HMM-beads/Images/BlackBeadChoice.png","","","","","","","","","","","","","","","","","","",""
"image-keyboard-response","173","704616","0.0-4.0-6.0-1.0-2.31","5e4898bd88257233536a65b5","635ab8fc87ce89828e04cd4e","635abff82cd4b651c01af48d","null","","null","","","","","","","","./tasks/HMM-beads/Images/BlackBeadChoiceWrong.png","","","","","","","","","","","","","","","","","","",""
"image-keyboard-response","174","717263","0.0-4.0-6.0-1.0-0.32","5e4898bd88257233536a65b5","635ab8fc87ce89828e04cd4e","635abff82cd4b651c01af48d","12643","","f","","","","","","","","./tasks/HMM-beads/Images/NewTrialWC.png","highH","32","1","1","2","1","true","","","","","","","","","","","",""
"image-keyboard-response","175","717568","0.0-4.0-6.0-1.0-1.32","5e4898bd88257233536a65b5","635ab8fc87ce89828e04cd4e","635abff82cd4b651c01af48d","null","","null","","","","","","","","./tasks/HMM-beads/Images/BlackBeadChoice.png","","","","","","","","","","","","","","","","","","",""
"image-keyboard-response","176","718073","0.0-4.0-6.0-1.0-2.32","5e4898bd88257233536a65b5","635ab8fc87ce89828e04cd4e","635abff82cd4b651c01af48d","null","","null","","","","","","","","./tasks/HMM-beads/Images/BlackBeadChoiceCorrect.png","","","","","","","","","","","","","","","","","","",""
"image-keyboard-response","177","720110","0.0-4.0-6.0-1.0-0.33","5e4898bd88257233536a65b5","635ab8fc87ce89828e04cd4e","635abff82cd4b651c01af48d","2033","","f","","","","","","","","./tasks/HMM-beads/Images/NewTrialBC.png","highH","33","2","2","1","1","false","","","","","","","","","","","",""
"image-keyboard-response","178","720415","0.0-4.0-6.0-1.0-1.33","5e4898bd88257233536a65b5","635ab8fc87ce89828e04cd4e","635abff82cd4b651c01af48d","null","","null","","","","","","","","./tasks/HMM-beads/Images/BlackBeadChoice.png","","","","","","","","","","","","","","","","","","",""
"image-keyboard-response","179","720920","0.0-4.0-6.0-1.0-2.33","5e4898bd88257233536a65b5","635ab8fc87ce89828e04cd4e","635abff82cd4b651c01af48d","null","","null","","","","","","","","./tasks/HMM-beads/Images/BlackBeadChoiceWrong.png","","","","","","","","","","","","","","","","","","",""
"image-keyboard-response","180","722222","0.0-4.0-6.0-1.0-0.34","5e4898bd88257233536a65b5","635ab8fc87ce89828e04cd4e","635abff82cd4b651c01af48d","1279","","f","","","","","","","","./tasks/HMM-beads/Images/NewTrialWC.png","highH","34","1","1","2","1","true","","","","","","","","","","","",""
"image-keyboard-response","181","722527","0.0-4.0-6.0-1.0-1.34","5e4898bd88257233536a65b5","635ab8fc87ce89828e04cd4e","635abff82cd4b651c01af48d","null","","null","","","","","","","","./tasks/HMM-beads/Images/BlackBeadChoice.png","","","","","","","","","","","","","","","","","","",""
"image-keyboard-response","182","723033","0.0-4.0-6.0-1.0-2.34","5e4898bd88257233536a65b5","635ab8fc87ce89828e04cd4e","635abff82cd4b651c01af48d","null","","null","","","","","","","","./tasks/HMM-beads/Images/BlackBeadChoiceCorrect.png","","","","","","","","","","","","","","","","","","",""
"image-keyboard-response","183","724126","0.0-4.0-6.0-1.0-0.35","5e4898bd88257233536a65b5","635ab8fc87ce89828e04cd4e","635abff82cd4b651c01af48d","1089","","j","","","","","","","","./tasks/HMM-beads/Images/NewTrialBC.png","highH","35","2","2","1","2","true","","","","","","","","","","","",""
"image-keyboard-response","184","724430","0.0-4.0-6.0-1.0-1.35","5e4898bd88257233536a65b5","635ab8fc87ce89828e04cd4e","635abff82cd4b651c01af48d","null","","null","","","","","","","","./tasks/HMM-beads/Images/WhiteBeadChoice.png","","","","","","","","","","","","","","","","","","",""
"image-keyboard-response","185","724935","0.0-4.0-6.0-1.0-2.35","5e4898bd88257233536a65b5","635ab8fc87ce89828e04cd4e","635abff82cd4b651c01af48d","null","","null","","","","","","","","./tasks/HMM-beads/Images/WhiteBeadChoiceCorrect.png","","","","","","","","","","","","","","","","","","",""
"image-keyboard-response","186","728895","0.0-4.0-6.0-1.0-0.36","5e4898bd88257233536a65b5","635ab8fc87ce89828e04cd4e","635abff82cd4b651c01af48d","3956","","j","","","","","","","","./tasks/HMM-beads/Images/NewTrialWC.png","highH","36","1","1","2","2","false","","","","","","","","","","","",""
"image-keyboard-response","187","729199","0.0-4.0-6.0-1.0-1.36","5e4898bd88257233536a65b5","635ab8fc87ce89828e04cd4e","635abff82cd4b651c01af48d","null","","null","","","","","","","","./tasks/HMM-beads/Images/WhiteBeadChoice.png","","","","","","","","","","","","","","","","","","",""
"image-keyboard-response","188","729704","0.0-4.0-6.0-1.0-2.36","5e4898bd88257233536a65b5","635ab8fc87ce89828e04cd4e","635abff82cd4b651c01af48d","null","","null","","","","","","","","./tasks/HMM-beads/Images/WhiteBeadChoiceWrong.png","","","","","","","","","","","","","","","","","","",""
"image-keyboard-response","189","731022","0.0-4.0-6.0-1.0-0.37","5e4898bd88257233536a65b5","635ab8fc87ce89828e04cd4e","635abff82cd4b651c01af48d","1314","","j","","","","","","","","./tasks/HMM-beads/Images/NewTrialBC.png","highH","37","2","2","1","2","true","","","","","","","","","","","",""
"image-keyboard-response","190","731327","0.0-4.0-6.0-1.0-1.37","5e4898bd88257233536a65b5","635ab8fc87ce89828e04cd4e","635abff82cd4b651c01af48d","null","","null","","","","","","","","./tasks/HMM-beads/Images/WhiteBeadChoice.png","","","","","","","","","","","","","","","","","","",""
"image-keyboard-response","191","731832","0.0-4.0-6.0-1.0-2.37","5e4898bd88257233536a65b5","635ab8fc87ce89828e04cd4e","635abff82cd4b651c01af48d","null","","null","","","","","","","","./tasks/HMM-beads/Images/WhiteBeadChoiceCorrect.png","","","","","","","","","","","","","","","","","","",""
"image-keyboard-response","192","732590","0.0-4.0-6.0-1.0-0.38","5e4898bd88257233536a65b5","635ab8fc87ce89828e04cd4e","635abff82cd4b651c01af48d","754","","j","","","","","","","","./tasks/HMM-beads/Images/NewTrialWC.png","highH","38","1","2","2","2","true","","","","","","","","","","","",""
"image-keyboard-response","193","732895","0.0-4.0-6.0-1.0-1.38","5e4898bd88257233536a65b5","635ab8fc87ce89828e04cd4e","635abff82cd4b651c01af48d","null","","null","","","","","","","","./tasks/HMM-beads/Images/WhiteBeadChoice.png","","","","","","","","","","","","","","","","","","",""
"image-keyboard-response","194","733400","0.0-4.0-6.0-1.0-2.38","5e4898bd88257233536a65b5","635ab8fc87ce89828e04cd4e","635abff82cd4b651c01af48d","null","","null","","","","","","","","./tasks/HMM-beads/Images/WhiteBeadChoiceCorrect.png","","","","","","","","","","","","","","","","","","",""
"image-keyboard-response","195","734638","0.0-4.0-6.0-1.0-0.39","5e4898bd88257233536a65b5","635ab8fc87ce89828e04cd4e","635abff82cd4b651c01af48d","1234","","f","","","","","","","","./tasks/HMM-beads/Images/NewTrialWC.png","highH","39","2","2","2","1","false","","","","","","","","","","","",""
"image-keyboard-response","196","734943","0.0-4.0-6.0-1.0-1.39","5e4898bd88257233536a65b5","635ab8fc87ce89828e04cd4e","635abff82cd4b651c01af48d","null","","null","","","","","","","","./tasks/HMM-beads/Images/BlackBeadChoice.png","","","","","","","","","","","","","","","","","","",""
"image-keyboard-response","197","735448","0.0-4.0-6.0-1.0-2.39","5e4898bd88257233536a65b5","635ab8fc87ce89828e04cd4e","635abff82cd4b651c01af48d","null","","null","","","","","","","","./tasks/HMM-beads/Images/BlackBeadChoiceWrong.png","","","","","","","","","","","","","","","","","","",""
"image-keyboard-response","198","736254","0.0-4.0-6.0-1.0-0.40","5e4898bd88257233536a65b5","635ab8fc87ce89828e04cd4e","635abff82cd4b651c01af48d","802","","f","","","","","","","","./tasks/HMM-beads/Images/NewTrialWC.png","highH","40","1","1","2","1","true","","","","","","","","","","","",""
"image-keyboard-response","199","736559","0.0-4.0-6.0-1.0-1.40","5e4898bd88257233536a65b5","635ab8fc87ce89828e04cd4e","635abff82cd4b651c01af48d","null","","null","","","","","","","","./tasks/HMM-beads/Images/BlackBeadChoice.png","","","","","","","","","","","","","","","","","","",""
"image-keyboard-response","200","737064","0.0-4.0-6.0-1.0-2.40","5e4898bd88257233536a65b5","635ab8fc87ce89828e04cd4e","635abff82cd4b651c01af48d","null","","null","","","","","","","","./tasks/HMM-beads/Images/BlackBeadChoiceCorrect.png","","","","","","","","","","","","","","","","","","",""
"image-keyboard-response","201","739199","0.0-4.0-6.0-1.0-0.41","5e4898bd88257233536a65b5","635ab8fc87ce89828e04cd4e","635abff82cd4b651c01af48d","2131","","j","","","","","","","","./tasks/HMM-beads/Images/NewTrialBC.png","highH","41","2","2","1","2","true","","","","","","","","","","","",""
"image-keyboard-response","202","739504","0.0-4.0-6.0-1.0-1.41","5e4898bd88257233536a65b5","635ab8fc87ce89828e04cd4e","635abff82cd4b651c01af48d","null","","null","","","","","","","","./tasks/HMM-beads/Images/WhiteBeadChoice.png","","","","","","","","","","","","","","","","","","",""
"image-keyboard-response","203","740009","0.0-4.0-6.0-1.0-2.41","5e4898bd88257233536a65b5","635ab8fc87ce89828e04cd4e","635abff82cd4b651c01af48d","null","","null","","","","","","","","./tasks/HMM-beads/Images/WhiteBeadChoiceCorrect.png","","","","","","","","","","","","","","","","","","",""
"image-keyboard-response","204","741405","0.0-4.0-6.0-1.0-0.42","5e4898bd88257233536a65b5","635ab8fc87ce89828e04cd4e","635abff82cd4b651c01af48d","1392","","j","","","","","","","","./tasks/HMM-beads/Images/NewTrialWC.png","highH","42","1","1","2","2","false","","","","","","","","","","","",""
"image-keyboard-response","205","741709","0.0-4.0-6.0-1.0-1.42","5e4898bd88257233536a65b5","635ab8fc87ce89828e04cd4e","635abff82cd4b651c01af48d","null","","null","","","","","","","","./tasks/HMM-beads/Images/WhiteBeadChoice.png","","","","","","","","","","","","","","","","","","",""
"image-keyboard-response","206","742215","0.0-4.0-6.0-1.0-2.42","5e4898bd88257233536a65b5","635ab8fc87ce89828e04cd4e","635abff82cd4b651c01af48d","null","","null","","","","","","","","./tasks/HMM-beads/Images/WhiteBeadChoiceWrong.png","","","","","","","","","","","","","","","","","","",""
"image-keyboard-response","207","743886","0.0-4.0-6.0-1.0-0.43","5e4898bd88257233536a65b5","635ab8fc87ce89828e04cd4e","635abff82cd4b651c01af48d","1667","","f","","","","","","","","./tasks/HMM-beads/Images/NewTrialBC.png","highH","43","2","1","1","1","true","","","","","","","","","","","",""
"image-keyboard-response","208","744191","0.0-4.0-6.0-1.0-1.43","5e4898bd88257233536a65b5","635ab8fc87ce89828e04cd4e","635abff82cd4b651c01af48d","null","","null","","","","","","","","./tasks/HMM-beads/Images/BlackBeadChoice.png","","","","","","","","","","","","","","","","","","",""
"image-keyboard-response","209","744696","0.0-4.0-6.0-1.0-2.43","5e4898bd88257233536a65b5","635ab8fc87ce89828e04cd4e","635abff82cd4b651c01af48d","null","","null","","","","","","","","./tasks/HMM-beads/Images/BlackBeadChoiceCorrect.png","","","","","","","","","","","","","","","","","","",""
"image-keyboard-response","210","747118","0.0-4.0-6.0-1.0-0.44","5e4898bd88257233536a65b5","635ab8fc87ce89828e04cd4e","635abff82cd4b651c01af48d","2418","","j","","","","","","","","./tasks/HMM-beads/Images/NewTrialBC.png","highH","44","1","2","1","2","true","","","","","","","","","","","",""
"image-keyboard-response","211","747422","0.0-4.0-6.0-1.0-1.44","5e4898bd88257233536a65b5","635ab8fc87ce89828e04cd4e","635abff82cd4b651c01af48d","null","","null","","","","","","","","./tasks/HMM-beads/Images/WhiteBeadChoice.png","","","","","","","","","","","","","","","","","","",""
"image-keyboard-response","212","747957","0.0-4.0-6.0-1.0-2.44","5e4898bd88257233536a65b5","635ab8fc87ce89828e04cd4e","635abff82cd4b651c01af48d","null","","null","","","","","","","","./tasks/HMM-beads/Images/WhiteBeadChoiceCorrect.png","","","","","","","","","","","","","","","","","","",""
"image-keyboard-response","213","753359","0.0-4.0-6.0-1.0-0.45","5e4898bd88257233536a65b5","635ab8fc87ce89828e04cd4e","635abff82cd4b651c01af48d","5398","","j","","","","","","","","./tasks/HMM-beads/Images/NewTrialWC.png","highH","45","2","2","2","2","true","","","","","","","","","","","",""
"image-keyboard-response","214","753664","0.0-4.0-6.0-1.0-1.45","5e4898bd88257233536a65b5","635ab8fc87ce89828e04cd4e","635abff82cd4b651c01af48d","null","","null","","","","","","","","./tasks/HMM-beads/Images/WhiteBeadChoice.png","","","","","","","","","","","","","","","","","","",""
"image-keyboard-response","215","754169","0.0-4.0-6.0-1.0-2.45","5e4898bd88257233536a65b5","635ab8fc87ce89828e04cd4e","635abff82cd4b651c01af48d","null","","null","","","","","","","","./tasks/HMM-beads/Images/WhiteBeadChoiceCorrect.png","","","","","","","","","","","","","","","","","","",""
"image-keyboard-response","216","755037","0.0-4.0-6.0-1.0-0.46","5e4898bd88257233536a65b5","635ab8fc87ce89828e04cd4e","635abff82cd4b651c01af48d","864","","f","","","","","","","","./tasks/HMM-beads/Images/NewTrialWC.png","highH","46","1","2","2","1","false","","","","","","","","","","","",""
"image-keyboard-response","217","755342","0.0-4.0-6.0-1.0-1.46","5e4898bd88257233536a65b5","635ab8fc87ce89828e04cd4e","635abff82cd4b651c01af48d","null","","null","","","","","","","","./tasks/HMM-beads/Images/BlackBeadChoice.png","","","","","","","","","","","","","","","","","","",""
"image-keyboard-response","218","755847","0.0-4.0-6.0-1.0-2.46","5e4898bd88257233536a65b5","635ab8fc87ce89828e04cd4e","635abff82cd4b651c01af48d","null","","null","","","","","","","","./tasks/HMM-beads/Images/BlackBeadChoiceWrong.png","","","","","","","","","","","","","","","","","","",""
"image-keyboard-response","219","756637","0.0-4.0-6.0-1.0-0.47","5e4898bd88257233536a65b5","635ab8fc87ce89828e04cd4e","635abff82cd4b651c01af48d","786","","f","","","","","","","","./tasks/HMM-beads/Images/NewTrialWC.png","highH","47","2","2","2","1","false","","","","","","","","","","","",""
"image-keyboard-response","220","756942","0.0-4.0-6.0-1.0-1.47","5e4898bd88257233536a65b5","635ab8fc87ce89828e04cd4e","635abff82cd4b651c01af48d","null","","null","","","","","","","","./tasks/HMM-beads/Images/BlackBeadChoice.png","","","","","","","","","","","","","","","","","","",""
"image-keyboard-response","221","757447","0.0-4.0-6.0-1.0-2.47","5e4898bd88257233536a65b5","635ab8fc87ce89828e04cd4e","635abff82cd4b651c01af48d","null","","null","","","","","","","","./tasks/HMM-beads/Images/BlackBeadChoiceWrong.png","","","","","","","","","","","","","","","","","","",""
"image-keyboard-response","222","757837","0.0-4.0-6.0-1.0-0.48","5e4898bd88257233536a65b5","635ab8fc87ce89828e04cd4e","635abff82cd4b651c01af48d","387","","j","","","","","","","","./tasks/HMM-beads/Images/NewTrialWC.png","highH","48","1","1","2","2","false","","","","","","","","","","","",""
"image-keyboard-response","223","758141","0.0-4.0-6.0-1.0-1.48","5e4898bd88257233536a65b5","635ab8fc87ce89828e04cd4e","635abff82cd4b651c01af48d","null","","null","","","","","","","","./tasks/HMM-beads/Images/WhiteBeadChoice.png","","","","","","","","","","","","","","","","","","",""
"image-keyboard-response","224","758646","0.0-4.0-6.0-1.0-2.48","5e4898bd88257233536a65b5","635ab8fc87ce89828e04cd4e","635abff82cd4b651c01af48d","null","","null","","","","","","","","./tasks/HMM-beads/Images/WhiteBeadChoiceWrong.png","","","","","","","","","","","","","","","","","","",""
"image-keyboard-response","225","761406","0.0-4.0-6.0-1.0-0.49","5e4898bd88257233536a65b5","635ab8fc87ce89828e04cd4e","635abff82cd4b651c01af48d","2726","","f","","","","","","","","./tasks/HMM-beads/Images/NewTrialBC.png","highH","49","2","2","1","1","false","","","","","","","","","","","",""
"image-keyboard-response","226","761711","0.0-4.0-6.0-1.0-1.49","5e4898bd88257233536a65b5","635ab8fc87ce89828e04cd4e","635abff82cd4b651c01af48d","null","","null","","","","","","","","./tasks/HMM-beads/Images/BlackBeadChoice.png","","","","","","","","","","","","","","","","","","",""
"image-keyboard-response","227","762216","0.0-4.0-6.0-1.0-2.49","5e4898bd88257233536a65b5","635ab8fc87ce89828e04cd4e","635abff82cd4b651c01af48d","null","","null","","","","","","","","./tasks/HMM-beads/Images/BlackBeadChoiceWrong.png","","","","","","","","","","","","","","","","","","",""
"image-keyboard-response","228","762573","0.0-4.0-6.0-1.0-0.50","5e4898bd88257233536a65b5","635ab8fc87ce89828e04cd4e","635abff82cd4b651c01af48d","352","","j","","","","","","","","./tasks/HMM-beads/Images/NewTrialWC.png","highH","50","1","1","2","2","false","","","","","","","","","","","",""
"image-keyboard-response","229","762877","0.0-4.0-6.0-1.0-1.50","5e4898bd88257233536a65b5","635ab8fc87ce89828e04cd4e","635abff82cd4b651c01af48d","null","","null","","","","","","","","./tasks/HMM-beads/Images/WhiteBeadChoice.png","","","","","","","","","","","","","","","","","","",""
"image-keyboard-response","230","763382","0.0-4.0-6.0-1.0-2.50","5e4898bd88257233536a65b5","635ab8fc87ce89828e04cd4e","635abff82cd4b651c01af48d","null","","null","","","","","","","","./tasks/HMM-beads/Images/WhiteBeadChoiceWrong.png","","","","","","","","","","","","","","","","","","",""
"image-keyboard-response","231","765711","0.0-4.0-6.0-1.0-0.51","5e4898bd88257233536a65b5","635ab8fc87ce89828e04cd4e","635abff82cd4b651c01af48d","2325","","f","","","","","","","","./tasks/HMM-beads/Images/NewTrialBC.png","highH","51","2","2","1","1","false","","","","","","","","","","","",""
"image-keyboard-response","232","766015","0.0-4.0-6.0-1.0-1.51","5e4898bd88257233536a65b5","635ab8fc87ce89828e04cd4e","635abff82cd4b651c01af48d","null","","null","","","","","","","","./tasks/HMM-beads/Images/BlackBeadChoice.png","","","","","","","","","","","","","","","","","","",""
"image-keyboard-response","233","766520","0.0-4.0-6.0-1.0-2.51","5e4898bd88257233536a65b5","635ab8fc87ce89828e04cd4e","635abff82cd4b651c01af48d","null","","null","","","","","","","","./tasks/HMM-beads/Images/BlackBeadChoiceWrong.png","","","","","","","","","","","","","","","","","","",""
"image-keyboard-response","234","766911","0.0-4.0-6.0-1.0-0.52","5e4898bd88257233536a65b5","635ab8fc87ce89828e04cd4e","635abff82cd4b651c01af48d","387","","f","","","","","","","","./tasks/HMM-beads/Images/NewTrialWC.png","highH","52","1","1","2","1","true","","","","","","","","","","","",""
"image-keyboard-response","235","767215","0.0-4.0-6.0-1.0-1.52","5e4898bd88257233536a65b5","635ab8fc87ce89828e04cd4e","635abff82cd4b651c01af48d","null","","null","","","","","","","","./tasks/HMM-beads/Images/BlackBeadChoice.png","","","","","","","","","","","","","","","","","","",""
"image-keyboard-response","236","767721","0.0-4.0-6.0-1.0-2.52","5e4898bd88257233536a65b5","635ab8fc87ce89828e04cd4e","635abff82cd4b651c01af48d","null","","null","","","","","","","","./tasks/HMM-beads/Images/BlackBeadChoiceCorrect.png","","","","","","","","","","","","","","","","","","",""
"image-keyboard-response","237","769279","0.0-4.0-6.0-1.0-0.53","5e4898bd88257233536a65b5","635ab8fc87ce89828e04cd4e","635abff82cd4b651c01af48d","1554","","j","","","","","","","","./tasks/HMM-beads/Images/NewTrialBC.png","highH","53","2","2","1","2","true","","","","","","","","","","","",""
"image-keyboard-response","238","769584","0.0-4.0-6.0-1.0-1.53","5e4898bd88257233536a65b5","635ab8fc87ce89828e04cd4e","635abff82cd4b651c01af48d","null","","null","","","","","","","","./tasks/HMM-beads/Images/WhiteBeadChoice.png","","","","","","","","","","","","","","","","","","",""
"image-keyboard-response","239","770089","0.0-4.0-6.0-1.0-2.53","5e4898bd88257233536a65b5","635ab8fc87ce89828e04cd4e","635abff82cd4b651c01af48d","null","","null","","","","","","","","./tasks/HMM-beads/Images/WhiteBeadChoiceCorrect.png","","","","","","","","","","","","","","","","","","",""
"image-keyboard-response","240","771006","0.0-4.0-6.0-1.0-0.54","5e4898bd88257233536a65b5","635ab8fc87ce89828e04cd4e","635abff82cd4b651c01af48d","913","","f","","","","","","","","./tasks/HMM-beads/Images/NewTrialWC.png","highH","54","1","1","2","1","true","","","","","","","","","","","",""
"image-keyboard-response","241","771311","0.0-4.0-6.0-1.0-1.54","5e4898bd88257233536a65b5","635ab8fc87ce89828e04cd4e","635abff82cd4b651c01af48d","null","","null","","","","","","","","./tasks/HMM-beads/Images/BlackBeadChoice.png","","","","","","","","","","","","","","","","","","",""
"image-keyboard-response","242","771816","0.0-4.0-6.0-1.0-2.54","5e4898bd88257233536a65b5","635ab8fc87ce89828e04cd4e","635abff82cd4b651c01af48d","null","","null","","","","","","","","./tasks/HMM-beads/Images/BlackBeadChoiceCorrect.png","","","","","","","","","","","","","","","","","","",""
"image-keyboard-response","243","772334","0.0-4.0-6.0-1.0-0.55","5e4898bd88257233536a65b5","635ab8fc87ce89828e04cd4e","635abff82cd4b651c01af48d","514","","j","","","","","","","","./tasks/HMM-beads/Images/NewTrialBC.png","highH","55","2","1","1","2","false","","","","","","","","","","","",""
"image-keyboard-response","244","772638","0.0-4.0-6.0-1.0-1.55","5e4898bd88257233536a65b5","635ab8fc87ce89828e04cd4e","635abff82cd4b651c01af48d","null","","null","","","","","","","","./tasks/HMM-beads/Images/WhiteBeadChoice.png","","","","","","","","","","","","","","","","","","",""
"image-keyboard-response","245","773143","0.0-4.0-6.0-1.0-2.55","5e4898bd88257233536a65b5","635ab8fc87ce89828e04cd4e","635abff82cd4b651c01af48d","null","","null","","","","","","","","./tasks/HMM-beads/Images/WhiteBeadChoiceWrong.png","","","","","","","","","","","","","","","","","","",""
"image-keyboard-response","246","774014","0.0-4.0-6.0-1.0-0.56","5e4898bd88257233536a65b5","635ab8fc87ce89828e04cd4e","635abff82cd4b651c01af48d","867","","f","","","","","","","","./tasks/HMM-beads/Images/NewTrialBC.png","highH","56","1","2","1","1","false","","","","","","","","","","","",""
"image-keyboard-response","247","774319","0.0-4.0-6.0-1.0-1.56","5e4898bd88257233536a65b5","635ab8fc87ce89828e04cd4e","635abff82cd4b651c01af48d","null","","null","","","","","","","","./tasks/HMM-beads/Images/BlackBeadChoice.png","","","","","","","","","","","","","","","","","","",""
"image-keyboard-response","248","774854","0.0-4.0-6.0-1.0-2.56","5e4898bd88257233536a65b5","635ab8fc87ce89828e04cd4e","635abff82cd4b651c01af48d","null","","null","","","","","","","","./tasks/HMM-beads/Images/BlackBeadChoiceWrong.png","","","","","","","","","","","","","","","","","","",""
"image-keyboard-response","249","776799","0.0-4.0-6.0-1.0-0.57","5e4898bd88257233536a65b5","635ab8fc87ce89828e04cd4e","635abff82cd4b651c01af48d","1941","","j","","","","","","","","./tasks/HMM-beads/Images/NewTrialWC.png","highH","57","2","2","2","2","true","","","","","","","","","","","",""
"image-keyboard-response","250","777103","0.0-4.0-6.0-1.0-1.57","5e4898bd88257233536a65b5","635ab8fc87ce89828e04cd4e","635abff82cd4b651c01af48d","null","","null","","","","","","","","./tasks/HMM-beads/Images/WhiteBeadChoice.png","","","","","","","","","","","","","","","","","","",""
"image-keyboard-response","251","777608","0.0-4.0-6.0-1.0-2.57","5e4898bd88257233536a65b5","635ab8fc87ce89828e04cd4e","635abff82cd4b651c01af48d","null","","null","","","","","","","","./tasks/HMM-beads/Images/WhiteBeadChoiceCorrect.png","","","","","","","","","","","","","","","","","","",""
"image-keyboard-response","252","778125","0.0-4.0-6.0-1.0-0.58","5e4898bd88257233536a65b5","635ab8fc87ce89828e04cd4e","635abff82cd4b651c01af48d","514","","j","","","","","","","","./tasks/HMM-beads/Images/NewTrialWC.png","highH","58","1","1","2","2","false","","","","","","","","","","","",""
"image-keyboard-response","253","778429","0.0-4.0-6.0-1.0-1.58","5e4898bd88257233536a65b5","635ab8fc87ce89828e04cd4e","635abff82cd4b651c01af48d","null","","null","","","","","","","","./tasks/HMM-beads/Images/WhiteBeadChoice.png","","","","","","","","","","","","","","","","","","",""
"image-keyboard-response","254","778934","0.0-4.0-6.0-1.0-2.58","5e4898bd88257233536a65b5","635ab8fc87ce89828e04cd4e","635abff82cd4b651c01af48d","null","","null","","","","","","","","./tasks/HMM-beads/Images/WhiteBeadChoiceWrong.png","","","","","","","","","","","","","","","","","","",""
"image-keyboard-response","255","779582","0.0-4.0-6.0-1.0-0.59","5e4898bd88257233536a65b5","635ab8fc87ce89828e04cd4e","635abff82cd4b651c01af48d","644","","f","","","","","","","","./tasks/HMM-beads/Images/NewTrialBC.png","highH","59","2","2","1","1","false","","","","","","","","","","","",""
"image-keyboard-response","256","779887","0.0-4.0-6.0-1.0-1.59","5e4898bd88257233536a65b5","635ab8fc87ce89828e04cd4e","635abff82cd4b651c01af48d","null","","null","","","","","","","","./tasks/HMM-beads/Images/BlackBeadChoice.png","","","","","","","","","","","","","","","","","","",""
"image-keyboard-response","257","780392","0.0-4.0-6.0-1.0-2.59","5e4898bd88257233536a65b5","635ab8fc87ce89828e04cd4e","635abff82cd4b651c01af48d","null","","null","","","","","","","","./tasks/HMM-beads/Images/BlackBeadChoiceWrong.png","","","","","","","","","","","","","","","","","","",""
"image-keyboard-response","258","780557","0.0-4.0-6.0-1.0-0.60","5e4898bd88257233536a65b5","635ab8fc87ce89828e04cd4e","635abff82cd4b651c01af48d","161","","j","","","","","","","","./tasks/HMM-beads/Images/NewTrialWC.png","highH","60","1","1","2","2","false","","","","","","","","","","","",""
"image-keyboard-response","259","780862","0.0-4.0-6.0-1.0-1.60","5e4898bd88257233536a65b5","635ab8fc87ce89828e04cd4e","635abff82cd4b651c01af48d","null","","null","","","","","","","","./tasks/HMM-beads/Images/WhiteBeadChoice.png","","","","","","","","","","","","","","","","","","",""
"image-keyboard-response","260","781369","0.0-4.0-6.0-1.0-2.60","5e4898bd88257233536a65b5","635ab8fc87ce89828e04cd4e","635abff82cd4b651c01af48d","null","","null","","","","","","","","./tasks/HMM-beads/Images/WhiteBeadChoiceWrong.png","","","","","","","","","","","","","","","","","","",""
"image-keyboard-response","261","782158","0.0-4.0-6.0-1.0-0.61","5e4898bd88257233536a65b5","635ab8fc87ce89828e04cd4e","635abff82cd4b651c01af48d","752","","j","","","","","","","","./tasks/HMM-beads/Images/NewTrialBC.png","highH","61","2","2","1","2","true","","","","","","","","","","","",""
"image-keyboard-response","262","782463","0.0-4.0-6.0-1.0-1.61","5e4898bd88257233536a65b5","635ab8fc87ce89828e04cd4e","635abff82cd4b651c01af48d","null","","null","","","","","","","","./tasks/HMM-beads/Images/WhiteBeadChoice.png","","","","","","","","","","","","","","","","","","",""
"image-keyboard-response","263","782969","0.0-4.0-6.0-1.0-2.61","5e4898bd88257233536a65b5","635ab8fc87ce89828e04cd4e","635abff82cd4b651c01af48d","null","","null","","","","","","","","./tasks/HMM-beads/Images/WhiteBeadChoiceCorrect.png","","","","","","","","","","","","","","","","","","",""
"image-keyboard-response","264","783374","0.0-4.0-6.0-1.0-0.62","5e4898bd88257233536a65b5","635ab8fc87ce89828e04cd4e","635abff82cd4b651c01af48d","401","","j","","","","","","","","./tasks/HMM-beads/Images/NewTrialWC.png","highH","62","1","1","2","2","false","","","","","","","","","","","",""
"image-keyboard-response","265","783679","0.0-4.0-6.0-1.0-1.62","5e4898bd88257233536a65b5","635ab8fc87ce89828e04cd4e","635abff82cd4b651c01af48d","null","","null","","","","","","","","./tasks/HMM-beads/Images/WhiteBeadChoice.png","","","","","","","","","","","","","","","","","","",""
"image-keyboard-response","266","784183","0.0-4.0-6.0-1.0-2.62","5e4898bd88257233536a65b5","635ab8fc87ce89828e04cd4e","635abff82cd4b651c01af48d","null","","null","","","","","","","","./tasks/HMM-beads/Images/WhiteBeadChoiceWrong.png","","","","","","","","","","","","","","","","","","",""
"image-keyboard-response","267","784830","0.0-4.0-6.0-1.0-0.63","5e4898bd88257233536a65b5","635ab8fc87ce89828e04cd4e","635abff82cd4b651c01af48d","642","","f","","","","","","","","./tasks/HMM-beads/Images/NewTrialBC.png","highH","63","2","2","1","1","false","","","","","","","","","","","",""
"image-keyboard-response","268","785133","0.0-4.0-6.0-1.0-1.63","5e4898bd88257233536a65b5","635ab8fc87ce89828e04cd4e","635abff82cd4b651c01af48d","null","","null","","","","","","","","./tasks/HMM-beads/Images/BlackBeadChoice.png","","","","","","","","","","","","","","","","","","",""
"image-keyboard-response","269","785638","0.0-4.0-6.0-1.0-2.63","5e4898bd88257233536a65b5","635ab8fc87ce89828e04cd4e","635abff82cd4b651c01af48d","null","","null","","","","","","","","./tasks/HMM-beads/Images/BlackBeadChoiceWrong.png","","","","","","","","","","","","","","","","","","",""
"image-keyboard-response","270","786558","0.0-4.0-6.0-1.0-0.64","5e4898bd88257233536a65b5","635ab8fc87ce89828e04cd4e","635abff82cd4b651c01af48d","916","","f","","","","","","","","./tasks/HMM-beads/Images/NewTrialWC.png","highH","64","2","2","2","1","false","","","","","","","","","","","",""
"image-keyboard-response","271","786863","0.0-4.0-6.0-1.0-1.64","5e4898bd88257233536a65b5","635ab8fc87ce89828e04cd4e","635abff82cd4b651c01af48d","null","","null","","","","","","","","./tasks/HMM-beads/Images/BlackBeadChoice.png","","","","","","","","","","","","","","","","","","",""
"image-keyboard-response","272","787367","0.0-4.0-6.0-1.0-2.64","5e4898bd88257233536a65b5","635ab8fc87ce89828e04cd4e","635abff82cd4b651c01af48d","null","","null","","","","","","","","./tasks/HMM-beads/Images/BlackBeadChoiceWrong.png","","","","","","","","","","","","","","","","","","",""
"image-keyboard-response","273","787583","0.0-4.0-6.0-1.0-0.65","5e4898bd88257233536a65b5","635ab8fc87ce89828e04cd4e","635abff82cd4b651c01af48d","211","","j","","","","","","","","./tasks/HMM-beads/Images/NewTrialWC.png","highH","65","1","2","2","2","true","","","","","","","","","","","",""
"image-keyboard-response","274","787895","0.0-4.0-6.0-1.0-1.65","5e4898bd88257233536a65b5","635ab8fc87ce89828e04cd4e","635abff82cd4b651c01af48d","null","","null","","","","","","","","./tasks/HMM-beads/Images/WhiteBeadChoice.png","","","","","","","","","","","","","","","","","","",""
"image-keyboard-response","275","788400","0.0-4.0-6.0-1.0-2.65","5e4898bd88257233536a65b5","635ab8fc87ce89828e04cd4e","635abff82cd4b651c01af48d","null","","null","","","","","","","","./tasks/HMM-beads/Images/WhiteBeadChoiceCorrect.png","","","","","","","","","","","","","","","","","","",""
"image-keyboard-response","276","788926","0.0-4.0-6.0-1.0-0.66","5e4898bd88257233536a65b5","635ab8fc87ce89828e04cd4e","635abff82cd4b651c01af48d","522","","j","","","","","","","","./tasks/HMM-beads/Images/NewTrialWC.png","highH","66","2","2","2","2","true","","","","","","","","","","","",""
"image-keyboard-response","277","789231","0.0-4.0-6.0-1.0-1.66","5e4898bd88257233536a65b5","635ab8fc87ce89828e04cd4e","635abff82cd4b651c01af48d","null","","null","","","","","","","","./tasks/HMM-beads/Images/WhiteBeadChoice.png","","","","","","","","","","","","","","","","","","",""
"image-keyboard-response","278","789735","0.0-4.0-6.0-1.0-2.66","5e4898bd88257233536a65b5","635ab8fc87ce89828e04cd4e","635abff82cd4b651c01af48d","null","","null","","","","","","","","./tasks/HMM-beads/Images/WhiteBeadChoiceCorrect.png","","","","","","","","","","","","","","","","","","",""
"image-keyboard-response","279","790366","0.0-4.0-6.0-1.0-0.67","5e4898bd88257233536a65b5","635ab8fc87ce89828e04cd4e","635abff82cd4b651c01af48d","627","","j","","","","","","","","./tasks/HMM-beads/Images/NewTrialWC.png","highH","67","1","1","2","2","false","","","","","","","","","","","",""
"image-keyboard-response","280","790671","0.0-4.0-6.0-1.0-1.67","5e4898bd88257233536a65b5","635ab8fc87ce89828e04cd4e","635abff82cd4b651c01af48d","null","","null","","","","","","","","./tasks/HMM-beads/Images/WhiteBeadChoice.png","","","","","","","","","","","","","","","","","","",""
"image-keyboard-response","281","791176","0.0-4.0-6.0-1.0-2.67","5e4898bd88257233536a65b5","635ab8fc87ce89828e04cd4e","635abff82cd4b651c01af48d","null","","null","","","","","","","","./tasks/HMM-beads/Images/WhiteBeadChoiceWrong.png","","","","","","","","","","","","","","","","","","",""
"image-keyboard-response","282","792894","0.0-4.0-6.0-1.0-0.68","5e4898bd88257233536a65b5","635ab8fc87ce89828e04cd4e","635abff82cd4b651c01af48d","1714","","f","","","","","","","","./tasks/HMM-beads/Images/NewTrialBC.png","highH","68","2","2","1","1","false","","","","","","","","","","","",""
"image-keyboard-response","283","793199","0.0-4.0-6.0-1.0-1.68","5e4898bd88257233536a65b5","635ab8fc87ce89828e04cd4e","635abff82cd4b651c01af48d","null","","null","","","","","","","","./tasks/HMM-beads/Images/BlackBeadChoice.png","","","","","","","","","","","","","","","","","","",""
"image-keyboard-response","284","793703","0.0-4.0-6.0-1.0-2.68","5e4898bd88257233536a65b5","635ab8fc87ce89828e04cd4e","635abff82cd4b651c01af48d","null","","null","","","","","","","","./tasks/HMM-beads/Images/BlackBeadChoiceWrong.png","","","","","","","","","","","","","","","","","","",""
"image-keyboard-response","285","797695","0.0-4.0-6.0-1.0-0.69","5e4898bd88257233536a65b5","635ab8fc87ce89828e04cd4e","635abff82cd4b651c01af48d","3987","","j","","","","","","","","./tasks/HMM-beads/Images/NewTrialWC.png","highH","69","1","1","2","2","false","","","","","","","","","","","",""
"image-keyboard-response","286","797999","0.0-4.0-6.0-1.0-1.69","5e4898bd88257233536a65b5","635ab8fc87ce89828e04cd4e","635abff82cd4b651c01af48d","null","","null","","","","","","","","./tasks/HMM-beads/Images/WhiteBeadChoice.png","","","","","","","","","","","","","","","","","","",""
"image-keyboard-response","287","798504","0.0-4.0-6.0-1.0-2.69","5e4898bd88257233536a65b5","635ab8fc87ce89828e04cd4e","635abff82cd4b651c01af48d","null","","null","","","","","","","","./tasks/HMM-beads/Images/WhiteBeadChoiceWrong.png","","","","","","","","","","","","","","","","","","",""
"image-keyboard-response","288","799934","0.0-4.0-6.0-1.0-0.70","5e4898bd88257233536a65b5","635ab8fc87ce89828e04cd4e","635abff82cd4b651c01af48d","1426","","j","","","","","","","","./tasks/HMM-beads/Images/NewTrialBC.png","highH","70","2","2","1","2","true","","","","","","","","","","","",""
"image-keyboard-response","289","800239","0.0-4.0-6.0-1.0-1.70","5e4898bd88257233536a65b5","635ab8fc87ce89828e04cd4e","635abff82cd4b651c01af48d","null","","null","","","","","","","","./tasks/HMM-beads/Images/WhiteBeadChoice.png","","","","","","","","","","","","","","","","","","",""
"image-keyboard-response","290","800744","0.0-4.0-6.0-1.0-2.70","5e4898bd88257233536a65b5","635ab8fc87ce89828e04cd4e","635abff82cd4b651c01af48d","null","","null","","","","","","","","./tasks/HMM-beads/Images/WhiteBeadChoiceCorrect.png","","","","","","","","","","","","","","","","","","",""
"image-keyboard-response","291","802638","0.0-4.0-6.0-1.0-0.71","5e4898bd88257233536a65b5","635ab8fc87ce89828e04cd4e","635abff82cd4b651c01af48d","1890","","j","","","","","","","","./tasks/HMM-beads/Images/NewTrialWC.png","highH","71","1","1","2","2","false","","","","","","","","","","","",""
"image-keyboard-response","292","802943","0.0-4.0-6.0-1.0-1.71","5e4898bd88257233536a65b5","635ab8fc87ce89828e04cd4e","635abff82cd4b651c01af48d","null","","null","","","","","","","","./tasks/HMM-beads/Images/WhiteBeadChoice.png","","","","","","","","","","","","","","","","","","",""
"image-keyboard-response","293","803448","0.0-4.0-6.0-1.0-2.71","5e4898bd88257233536a65b5","635ab8fc87ce89828e04cd4e","635abff82cd4b651c01af48d","null","","null","","","","","","","","./tasks/HMM-beads/Images/WhiteBeadChoiceWrong.png","","","","","","","","","","","","","","","","","","",""
"image-keyboard-response","294","804046","0.0-4.0-6.0-1.0-0.72","5e4898bd88257233536a65b5","635ab8fc87ce89828e04cd4e","635abff82cd4b651c01af48d","594","","j","","","","","","","","./tasks/HMM-beads/Images/NewTrialBC.png","highH","72","2","1","1","2","false","","","","","","","","","","","",""
"image-keyboard-response","295","804385","0.0-4.0-6.0-1.0-1.72","5e4898bd88257233536a65b5","635ab8fc87ce89828e04cd4e","635abff82cd4b651c01af48d","null","","null","","","","","","","","./tasks/HMM-beads/Images/WhiteBeadChoice.png","","","","","","","","","","","","","","","","","","",""
"image-keyboard-response","296","804890","0.0-4.0-6.0-1.0-2.72","5e4898bd88257233536a65b5","635ab8fc87ce89828e04cd4e","635abff82cd4b651c01af48d","null","","null","","","","","","","","./tasks/HMM-beads/Images/WhiteBeadChoiceWrong.png","","","","","","","","","","","","","","","","","","",""
"image-keyboard-response","297","805358","0.0-4.0-6.0-1.0-0.73","5e4898bd88257233536a65b5","635ab8fc87ce89828e04cd4e","635abff82cd4b651c01af48d","463","","j","","","","","","","","./tasks/HMM-beads/Images/NewTrialBC.png","highH","73","1","1","1","2","false","","","","","","","","","","","",""
"image-keyboard-response","298","805662","0.0-4.0-6.0-1.0-1.73","5e4898bd88257233536a65b5","635ab8fc87ce89828e04cd4e","635abff82cd4b651c01af48d","null","","null","","","","","","","","./tasks/HMM-beads/Images/WhiteBeadChoice.png","","","","","","","","","","","","","","","","","","",""
"image-keyboard-response","299","806167","0.0-4.0-6.0-1.0-2.73","5e4898bd88257233536a65b5","635ab8fc87ce89828e04cd4e","635abff82cd4b651c01af48d","null","","null","","","","","","","","./tasks/HMM-beads/Images/WhiteBeadChoiceWrong.png","","","","","","","","","","","","","","","","","","",""
"image-keyboard-response","300","806622","0.0-4.0-6.0-1.0-0.74","5e4898bd88257233536a65b5","635ab8fc87ce89828e04cd4e","635abff82cd4b651c01af48d","452","","j","","","","","","","","./tasks/HMM-beads/Images/NewTrialBC.png","highH","74","2","2","1","2","true","","","","","","","","","","","",""
"image-keyboard-response","301","806927","0.0-4.0-6.0-1.0-1.74","5e4898bd88257233536a65b5","635ab8fc87ce89828e04cd4e","635abff82cd4b651c01af48d","null","","null","","","","","","","","./tasks/HMM-beads/Images/WhiteBeadChoice.png","","","","","","","","","","","","","","","","","","",""
"image-keyboard-response","302","807432","0.0-4.0-6.0-1.0-2.74","5e4898bd88257233536a65b5","635ab8fc87ce89828e04cd4e","635abff82cd4b651c01af48d","null","","null","","","","","","","","./tasks/HMM-beads/Images/WhiteBeadChoiceCorrect.png","","","","","","","","","","","","","","","","","","",""
"image-keyboard-response","303","807743","0.0-4.0-6.0-1.0-0.75","5e4898bd88257233536a65b5","635ab8fc87ce89828e04cd4e","635abff82cd4b651c01af48d","307","","j","","","","","","","","./tasks/HMM-beads/Images/NewTrialWC.png","highH","75","1","1","2","2","false","","","","","","","","","","","",""
"image-keyboard-response","304","808050","0.0-4.0-6.0-1.0-1.75","5e4898bd88257233536a65b5","635ab8fc87ce89828e04cd4e","635abff82cd4b651c01af48d","null","","null","","","","","","","","./tasks/HMM-beads/Images/WhiteBeadChoice.png","","","","","","","","","","","","","","","","","","",""
"image-keyboard-response","305","808556","0.0-4.0-6.0-1.0-2.75","5e4898bd88257233536a65b5","635ab8fc87ce89828e04cd4e","635abff82cd4b651c01af48d","null","","null","","","","","","","","./tasks/HMM-beads/Images/WhiteBeadChoiceWrong.png","","","","","","","","","","","","","","","","","","",""
"image-keyboard-response","306","809502","0.0-4.0-6.0-1.0-0.76","5e4898bd88257233536a65b5","635ab8fc87ce89828e04cd4e","635abff82cd4b651c01af48d","942","","f","","","","","","","","./tasks/HMM-beads/Images/NewTrialBC.png","highH","76","2","2","1","1","false","","","","","","","","","","","",""
"image-keyboard-response","307","809807","0.0-4.0-6.0-1.0-1.76","5e4898bd88257233536a65b5","635ab8fc87ce89828e04cd4e","635abff82cd4b651c01af48d","null","","null","","","","","","","","./tasks/HMM-beads/Images/BlackBeadChoice.png","","","","","","","","","","","","","","","","","","",""
"image-keyboard-response","308","810345","0.0-4.0-6.0-1.0-2.76","5e4898bd88257233536a65b5","635ab8fc87ce89828e04cd4e","635abff82cd4b651c01af48d","null","","null","","","","","","","","./tasks/HMM-beads/Images/BlackBeadChoiceWrong.png","","","","","","","","","","","","","","","","","","",""
"image-keyboard-response","309","810957","0.0-4.0-6.0-1.0-0.77","5e4898bd88257233536a65b5","635ab8fc87ce89828e04cd4e","635abff82cd4b651c01af48d","609","","f","","","","","","","","./tasks/HMM-beads/Images/NewTrialWC.png","highH","77","2","2","2","1","false","","","","","","","","","","","",""
"image-keyboard-response","310","811262","0.0-4.0-6.0-1.0-1.77","5e4898bd88257233536a65b5","635ab8fc87ce89828e04cd4e","635abff82cd4b651c01af48d","null","","null","","","","","","","","./tasks/HMM-beads/Images/BlackBeadChoice.png","","","","","","","","","","","","","","","","","","",""
"image-keyboard-response","311","811767","0.0-4.0-6.0-1.0-2.77","5e4898bd88257233536a65b5","635ab8fc87ce89828e04cd4e","635abff82cd4b651c01af48d","null","","null","","","","","","","","./tasks/HMM-beads/Images/BlackBeadChoiceWrong.png","","","","","","","","","","","","","","","","","","",""
"image-keyboard-response","312","812094","0.0-4.0-6.0-1.0-0.78","5e4898bd88257233536a65b5","635ab8fc87ce89828e04cd4e","635abff82cd4b651c01af48d","324","","j","","","","","","","","./tasks/HMM-beads/Images/NewTrialWC.png","highH","78","1","2","2","2","true","","","","","","","","","","","",""
"image-keyboard-response","313","812399","0.0-4.0-6.0-1.0-1.78","5e4898bd88257233536a65b5","635ab8fc87ce89828e04cd4e","635abff82cd4b651c01af48d","null","","null","","","","","","","","./tasks/HMM-beads/Images/WhiteBeadChoice.png","","","","","","","","","","","","","","","","","","",""
"image-keyboard-response","314","812903","0.0-4.0-6.0-1.0-2.78","5e4898bd88257233536a65b5","635ab8fc87ce89828e04cd4e","635abff82cd4b651c01af48d","null","","null","","","","","","","","./tasks/HMM-beads/Images/WhiteBeadChoiceCorrect.png","","","","","","","","","","","","","","","","","","",""
"image-keyboard-response","315","813294","0.0-4.0-6.0-1.0-0.79","5e4898bd88257233536a65b5","635ab8fc87ce89828e04cd4e","635abff82cd4b651c01af48d","386","","f","","","","","","","","./tasks/HMM-beads/Images/NewTrialWC.png","highH","79","2","2","2","1","false","","","","","","","","","","","",""
"image-keyboard-response","316","813599","0.0-4.0-6.0-1.0-1.79","5e4898bd88257233536a65b5","635ab8fc87ce89828e04cd4e","635abff82cd4b651c01af48d","null","","null","","","","","","","","./tasks/HMM-beads/Images/BlackBeadChoice.png","","","","","","","","","","","","","","","","","","",""
"image-keyboard-response","317","814104","0.0-4.0-6.0-1.0-2.79","5e4898bd88257233536a65b5","635ab8fc87ce89828e04cd4e","635abff82cd4b651c01af48d","null","","null","","","","","","","","./tasks/HMM-beads/Images/BlackBeadChoiceWrong.png","","","","","","","","","","","","","","","","","","",""
"image-keyboard-response","318","814286","0.0-4.0-6.0-1.0-0.80","5e4898bd88257233536a65b5","635ab8fc87ce89828e04cd4e","635abff82cd4b651c01af48d","178","","j","","","","","","","","./tasks/HMM-beads/Images/NewTrialWC.png","highH","80","1","1","2","2","false","","","","","","","","","","","",""
"image-keyboard-response","319","814590","0.0-4.0-6.0-1.0-1.80","5e4898bd88257233536a65b5","635ab8fc87ce89828e04cd4e","635abff82cd4b651c01af48d","null","","null","","","","","","","","./tasks/HMM-beads/Images/WhiteBeadChoice.png","","","","","","","","","","","","","","","","","","",""
"image-keyboard-response","320","815133","0.0-4.0-6.0-1.0-2.80","5e4898bd88257233536a65b5","635ab8fc87ce89828e04cd4e","635abff82cd4b651c01af48d","null","","null","","","","","","","","./tasks/HMM-beads/Images/WhiteBeadChoiceWrong.png","","","","","","","","","","","","","","","","","","",""
"image-keyboard-response","321","815694","0.0-4.0-6.0-1.0-0.81","5e4898bd88257233536a65b5","635ab8fc87ce89828e04cd4e","635abff82cd4b651c01af48d","557","","f","","","","","","","","./tasks/HMM-beads/Images/NewTrialBC.png","highH","81","2","2","1","1","false","","","","","","","","","","","",""
"image-keyboard-response","322","815999","0.0-4.0-6.0-1.0-1.81","5e4898bd88257233536a65b5","635ab8fc87ce89828e04cd4e","635abff82cd4b651c01af48d","null","","null","","","","","","","","./tasks/HMM-beads/Images/BlackBeadChoice.png","","","","","","","","","","","","","","","","","","",""
"image-keyboard-response","323","816504","0.0-4.0-6.0-1.0-2.81","5e4898bd88257233536a65b5","635ab8fc87ce89828e04cd4e","635abff82cd4b651c01af48d","null","","null","","","","","","","","./tasks/HMM-beads/Images/BlackBeadChoiceWrong.png","","","","","","","","","","","","","","","","","","",""
"image-keyboard-response","324","816557","0.0-4.0-6.0-1.0-0.82","5e4898bd88257233536a65b5","635ab8fc87ce89828e04cd4e","635abff82cd4b651c01af48d","49","","j","","","","","","","","./tasks/HMM-beads/Images/NewTrialWC.png","highH","82","1","2","2","2","true","","","","","","","","","","","",""
"image-keyboard-response","325","816862","0.0-4.0-6.0-1.0-1.82","5e4898bd88257233536a65b5","635ab8fc87ce89828e04cd4e","635abff82cd4b651c01af48d","null","","null","","","","","","","","./tasks/HMM-beads/Images/WhiteBeadChoice.png","","","","","","","","","","","","","","","","","","",""
"image-keyboard-response","326","817367","0.0-4.0-6.0-1.0-2.82","5e4898bd88257233536a65b5","635ab8fc87ce89828e04cd4e","635abff82cd4b651c01af48d","null","","null","","","","","","","","./tasks/HMM-beads/Images/WhiteBeadChoiceCorrect.png","","","","","","","","","","","","","","","","","","",""
"image-keyboard-response","327","817534","0.0-4.0-6.0-1.0-0.83","5e4898bd88257233536a65b5","635ab8fc87ce89828e04cd4e","635abff82cd4b651c01af48d","164","","j","","","","","","","","./tasks/HMM-beads/Images/NewTrialWC.png","highH","83","2","2","2","2","true","","","","","","","","","","","",""
"image-keyboard-response","328","817839","0.0-4.0-6.0-1.0-1.83","5e4898bd88257233536a65b5","635ab8fc87ce89828e04cd4e","635abff82cd4b651c01af48d","null","","null","","","","","","","","./tasks/HMM-beads/Images/WhiteBeadChoice.png","","","","","","","","","","","","","","","","","","",""
"image-keyboard-response","329","818344","0.0-4.0-6.0-1.0-2.83","5e4898bd88257233536a65b5","635ab8fc87ce89828e04cd4e","635abff82cd4b651c01af48d","null","","null","","","","","","","","./tasks/HMM-beads/Images/WhiteBeadChoiceCorrect.png","","","","","","","","","","","","","","","","","","",""
"image-keyboard-response","330","819359","0.0-4.0-6.0-1.0-0.84","5e4898bd88257233536a65b5","635ab8fc87ce89828e04cd4e","635abff82cd4b651c01af48d","1011","","j","","","","","","","","./tasks/HMM-beads/Images/NewTrialWC.png","highH","84","1","1","2","2","false","","","","","","","","","","","",""
"image-keyboard-response","331","819698","0.0-4.0-6.0-1.0-1.84","5e4898bd88257233536a65b5","635ab8fc87ce89828e04cd4e","635abff82cd4b651c01af48d","null","","null","","","","","","","","./tasks/HMM-beads/Images/WhiteBeadChoice.png","","","","","","","","","","","","","","","","","","",""
"image-keyboard-response","332","820203","0.0-4.0-6.0-1.0-2.84","5e4898bd88257233536a65b5","635ab8fc87ce89828e04cd4e","635abff82cd4b651c01af48d","null","","null","","","","","","","","./tasks/HMM-beads/Images/WhiteBeadChoiceWrong.png","","","","","","","","","","","","","","","","","","",""
"image-keyboard-response","333","821070","0.0-4.0-6.0-1.0-0.85","5e4898bd88257233536a65b5","635ab8fc87ce89828e04cd4e","635abff82cd4b651c01af48d","863","","j","","","","","","","","./tasks/HMM-beads/Images/NewTrialBC.png","highH","85","2","2","1","2","true","","","","","","","","","","","",""
"image-keyboard-response","334","821375","0.0-4.0-6.0-1.0-1.85","5e4898bd88257233536a65b5","635ab8fc87ce89828e04cd4e","635abff82cd4b651c01af48d","null","","null","","","","","","","","./tasks/HMM-beads/Images/WhiteBeadChoice.png","","","","","","","","","","","","","","","","","","",""
"image-keyboard-response","335","821880","0.0-4.0-6.0-1.0-2.85","5e4898bd88257233536a65b5","635ab8fc87ce89828e04cd4e","635abff82cd4b651c01af48d","null","","null","","","","","","","","./tasks/HMM-beads/Images/WhiteBeadChoiceCorrect.png","","","","","","","","","","","","","","","","","","",""
"image-keyboard-response","336","822013","0.0-4.0-6.0-1.0-0.86","5e4898bd88257233536a65b5","635ab8fc87ce89828e04cd4e","635abff82cd4b651c01af48d","130","","j","","","","","","","","./tasks/HMM-beads/Images/NewTrialWC.png","highH","86","1","1","2","2","false","","","","","","","","","","","",""
"image-keyboard-response","337","822318","0.0-4.0-6.0-1.0-1.86","5e4898bd88257233536a65b5","635ab8fc87ce89828e04cd4e","635abff82cd4b651c01af48d","null","","null","","","","","","","","./tasks/HMM-beads/Images/WhiteBeadChoice.png","","","","","","","","","","","","","","","","","","",""
