"trial_type","trial_index","time_elapsed","internal_node_id","subject_id","study_id","session_id","rt","url","response","question_order","view_history","success","timeout","failed_images","failed_audio","failed_video","stimulus","block","trial_number","jar","bead","previous_bead","choice","correct","highH_score","lowH_score","state","rewarded","state1_action","state2_visited","state1_key","state2_key","state1_rt","state2_rt","block_num","seq_file","trial_seq_info","two_arm_score_block1","two_arm_score_block2","two_arm_score_total","total_bonus"
"pavlovia","0","1347","0.0-0.0","5d793a152df8ed001645ed7f","63690f60c96a0a9a64b48fbd","6369204213af79662e11fae6","","","","","","","","","","","","","","","","","","","","","","","","","","","","","","","","","","",""
"external-html","1","19745","0.0-1.0-0.0","5d793a152df8ed001645ed7f","63690f60c96a0a9a64b48fbd","6369204213af79662e11fae6","18248","new_consent.html","","","","","","","","","","","","","","","","","","","","","","","","","","","","","","","","",""
"survey-multi-choice","2","27044","0.0-1.0-1.0","5d793a152df8ed001645ed7f","63690f60c96a0a9a64b48fbd","6369204213af79662e11fae6","7297","","{""Q0"":""Female"",""Q1"":""White""}","[0,1]","","","","","","","","","","","","","","","","","","","","","","","","","","","","","","",""
"survey-text","3","33102","0.0-1.0-2.0","5d793a152df8ed001645ed7f","63690f60c96a0a9a64b48fbd","6369204213af79662e11fae6","6053","","{""Q0"":""40""}","","","","","","","","","","","","","","","","","","","","","","","","","","","","","","","",""
"instructions","4","42280","0.0-2.0","5d793a152df8ed001645ed7f","63690f60c96a0a9a64b48fbd","6369204213af79662e11fae6","9059","","","","[{""page_index"":0,""viewing_time"":7681},{""page_index"":1,""viewing_time"":1377}]","","","","","","","","","","","","","","","","","","","","","","","","","","","","","",""
"instructions","5","43465","0.0-3.0","5d793a152df8ed001645ed7f","63690f60c96a0a9a64b48fbd","6369204213af79662e11fae6","1185","","","","[{""page_index"":0,""viewing_time"":1184}]","","","","","","","","","","","","","","","","","","","","","","","","","","","","","",""
"preload","6","44419","0.0-4.0-0.0","5d793a152df8ed001645ed7f","63690f60c96a0a9a64b48fbd","6369204213af79662e11fae6","","","","","","true","false","[]","[]","[]","","","","","","","","","","","","","","","","","","","","","","","","",""
"instructions","7","110744","0.0-4.0-1.0","5d793a152df8ed001645ed7f","63690f60c96a0a9a64b48fbd","6369204213af79662e11fae6","66324","","","","[{""page_index"":0,""viewing_time"":6448},{""page_index"":1,""viewing_time"":2595},{""page_index"":2,""viewing_time"":2555},{""page_index"":3,""viewing_time"":1532},{""page_index"":4,""viewing_time"":5294},{""page_index"":5,""viewing_time"":16114},{""page_index"":6,""viewing_time"":3648},{""page_index"":7,""viewing_time"":9864},{""page_index"":8,""viewing_time"":4484},{""page_index"":9,""viewing_time"":6394},{""page_index"":10,""viewing_time"":5842},{""page_index"":11,""viewing_time"":1554}]","","","","","","","","","","","","","","","","","","","","","","","","","","","","","",""
"html-button-response","8","113878","0.0-4.0-2.0-0.0-0.0","5d793a152df8ed001645ed7f","63690f60c96a0a9a64b48fbd","6369204213af79662e11fae6","3132","","1","","","","","","","","<div align=center>Your goal is to predict…?<br><br></div>","","","","","","","","","","","","","","","","","","","","","","","",""
"html-button-response","9","119909","0.0-4.0-2.0-1.0-0.0","5d793a152df8ed001645ed7f","63690f60c96a0a9a64b48fbd","6369204213af79662e11fae6","4342","","2","","","","","","","","<div align=center>In the jar with mostly white beads, there are ___% white beads and ___% black beads?<br><br></div>","","","","","","","","","","","","","","","","","","","","","","","",""
"html-button-response","10","125961","0.0-4.0-2.0-2.0-0.0","5d793a152df8ed001645ed7f","63690f60c96a0a9a64b48fbd","6369204213af79662e11fae6","4746","","0","","","","","","","","<div align=center>When there is a 1% probability that the jars will switch, the next bead will most likely be drawn from the…<br><br></div>","","","","","","","","","","","","","","","","","","","","","","","",""
"html-button-response","11","129182","0.0-4.0-2.0-3.0-0.0","5d793a152df8ed001645ed7f","63690f60c96a0a9a64b48fbd","6369204213af79662e11fae6","2028","","1","","","","","","","","<div align=center>When there is a 99% probability that the jars will switch, the next bead will most likely be drawn from the…<br><br></div>","","","","","","","","","","","","","","","","","","","","","","","",""
"instructions","12","143838","0.0-4.0-3.0","5d793a152df8ed001645ed7f","63690f60c96a0a9a64b48fbd","6369204213af79662e11fae6","13678","","","","[{""page_index"":0,""viewing_time"":13678}]","","","","","","","","","","","","","","","","","","","","","","","","","","","","","",""
"html-keyboard-response","13","147215","0.0-4.0-4.0-0.0","5d793a152df8ed001645ed7f","63690f60c96a0a9a64b48fbd","6369204213af79662e11fae6","3376",""," ","","","","","","","","<div align=center>In this practice block, there will be a <b>10% chance</b> that the jar on the next trial will be different from the jar on the current trial.<br><br></div>","","","","","","","","","","","","","","","","","","","","","","","",""
"image-keyboard-response","14","151603","0.0-4.0-4.0-1.0-0.0","5d793a152df8ed001645ed7f","63690f60c96a0a9a64b48fbd","6369204213af79662e11fae6","4381","","f","","","","","","","","./tasks/HMM-beads/Images/NoChoice.png","practice","0","1","1","0","1","true","","","","","","","","","","","","","","","","",""
"image-keyboard-response","15","151920","0.0-4.0-4.0-1.0-1.0","5d793a152df8ed001645ed7f","63690f60c96a0a9a64b48fbd","6369204213af79662e11fae6","null","","null","","","","","","","","./tasks/HMM-beads/Images/BlackBeadChoice.png","","","","","","","","","","","","","","","","","","","","","","","",""
"image-keyboard-response","16","152431","0.0-4.0-4.0-1.0-2.0","5d793a152df8ed001645ed7f","63690f60c96a0a9a64b48fbd","6369204213af79662e11fae6","null","","null","","","","","","","","./tasks/HMM-beads/Images/BlackBeadChoiceCorrect.png","","","","","","","","","","","","","","","","","","","","","","","",""
"image-keyboard-response","17","154725","0.0-4.0-4.0-1.0-0.1","5d793a152df8ed001645ed7f","63690f60c96a0a9a64b48fbd","6369204213af79662e11fae6","2292","","f","","","","","","","","./tasks/HMM-beads/Images/NewTrialBC.png","practice","1","1","1","1","1","true","","","","","","","","","","","","","","","","",""
"image-keyboard-response","18","155037","0.0-4.0-4.0-1.0-1.1","5d793a152df8ed001645ed7f","63690f60c96a0a9a64b48fbd","6369204213af79662e11fae6","null","","null","","","","","","","","./tasks/HMM-beads/Images/BlackBeadChoice.png","","","","","","","","","","","","","","","","","","","","","","","",""
"image-keyboard-response","19","155546","0.0-4.0-4.0-1.0-2.1","5d793a152df8ed001645ed7f","63690f60c96a0a9a64b48fbd","6369204213af79662e11fae6","null","","null","","","","","","","","./tasks/HMM-beads/Images/BlackBeadChoiceCorrect.png","","","","","","","","","","","","","","","","","","","","","","","",""
"image-keyboard-response","20","156008","0.0-4.0-4.0-1.0-0.2","5d793a152df8ed001645ed7f","63690f60c96a0a9a64b48fbd","6369204213af79662e11fae6","461","","f","","","","","","","","./tasks/HMM-beads/Images/NewTrialBC.png","practice","2","1","2","1","1","false","","","","","","","","","","","","","","","","",""
"image-keyboard-response","21","156333","0.0-4.0-4.0-1.0-1.2","5d793a152df8ed001645ed7f","63690f60c96a0a9a64b48fbd","6369204213af79662e11fae6","null","","null","","","","","","","","./tasks/HMM-beads/Images/BlackBeadChoice.png","","","","","","","","","","","","","","","","","","","","","","","",""
"image-keyboard-response","22","156843","0.0-4.0-4.0-1.0-2.2","5d793a152df8ed001645ed7f","63690f60c96a0a9a64b48fbd","6369204213af79662e11fae6","null","","null","","","","","","","","./tasks/HMM-beads/Images/BlackBeadChoiceWrong.png","","","","","","","","","","","","","","","","","","","","","","","",""
"image-keyboard-response","23","157789","0.0-4.0-4.0-1.0-0.3","5d793a152df8ed001645ed7f","63690f60c96a0a9a64b48fbd","6369204213af79662e11fae6","944","","j","","","","","","","","./tasks/HMM-beads/Images/NewTrialWC.png","practice","3","1","1","2","2","false","","","","","","","","","","","","","","","","",""
"image-keyboard-response","24","158107","0.0-4.0-4.0-1.0-1.3","5d793a152df8ed001645ed7f","63690f60c96a0a9a64b48fbd","6369204213af79662e11fae6","null","","null","","","","","","","","./tasks/HMM-beads/Images/WhiteBeadChoice.png","","","","","","","","","","","","","","","","","","","","","","","",""
"image-keyboard-response","25","158619","0.0-4.0-4.0-1.0-2.3","5d793a152df8ed001645ed7f","63690f60c96a0a9a64b48fbd","6369204213af79662e11fae6","null","","null","","","","","","","","./tasks/HMM-beads/Images/WhiteBeadChoiceWrong.png","","","","","","","","","","","","","","","","","","","","","","","",""
"image-keyboard-response","26","159225","0.0-4.0-4.0-1.0-0.4","5d793a152df8ed001645ed7f","63690f60c96a0a9a64b48fbd","6369204213af79662e11fae6","605","","f","","","","","","","","./tasks/HMM-beads/Images/NewTrialBC.png","practice","4","1","2","1","1","false","","","","","","","","","","","","","","","","",""
"image-keyboard-response","27","159544","0.0-4.0-4.0-1.0-1.4","5d793a152df8ed001645ed7f","63690f60c96a0a9a64b48fbd","6369204213af79662e11fae6","null","","null","","","","","","","","./tasks/HMM-beads/Images/BlackBeadChoice.png","","","","","","","","","","","","","","","","","","","","","","","",""
"image-keyboard-response","28","160054","0.0-4.0-4.0-1.0-2.4","5d793a152df8ed001645ed7f","63690f60c96a0a9a64b48fbd","6369204213af79662e11fae6","null","","null","","","","","","","","./tasks/HMM-beads/Images/BlackBeadChoiceWrong.png","","","","","","","","","","","","","","","","","","","","","","","",""
"image-keyboard-response","29","160497","0.0-4.0-4.0-1.0-0.5","5d793a152df8ed001645ed7f","63690f60c96a0a9a64b48fbd","6369204213af79662e11fae6","441","","f","","","","","","","","./tasks/HMM-beads/Images/NewTrialWC.png","practice","5","1","1","2","1","true","","","","","","","","","","","","","","","","",""
"image-keyboard-response","30","160813","0.0-4.0-4.0-1.0-1.5","5d793a152df8ed001645ed7f","63690f60c96a0a9a64b48fbd","6369204213af79662e11fae6","null","","null","","","","","","","","./tasks/HMM-beads/Images/BlackBeadChoice.png","","","","","","","","","","","","","","","","","","","","","","","",""
"image-keyboard-response","31","161325","0.0-4.0-4.0-1.0-2.5","5d793a152df8ed001645ed7f","63690f60c96a0a9a64b48fbd","6369204213af79662e11fae6","null","","null","","","","","","","","./tasks/HMM-beads/Images/BlackBeadChoiceCorrect.png","","","","","","","","","","","","","","","","","","","","","","","",""
"image-keyboard-response","32","161759","0.0-4.0-4.0-1.0-0.6","5d793a152df8ed001645ed7f","63690f60c96a0a9a64b48fbd","6369204213af79662e11fae6","424","","j","","","","","","","","./tasks/HMM-beads/Images/NewTrialBC.png","practice","6","1","2","1","2","true","","","","","","","","","","","","","","","","",""
"image-keyboard-response","33","162065","0.0-4.0-4.0-1.0-1.6","5d793a152df8ed001645ed7f","63690f60c96a0a9a64b48fbd","6369204213af79662e11fae6","null","","null","","","","","","","","./tasks/HMM-beads/Images/WhiteBeadChoice.png","","","","","","","","","","","","","","","","","","","","","","","",""
"image-keyboard-response","34","162574","0.0-4.0-4.0-1.0-2.6","5d793a152df8ed001645ed7f","63690f60c96a0a9a64b48fbd","6369204213af79662e11fae6","null","","null","","","","","","","","./tasks/HMM-beads/Images/WhiteBeadChoiceCorrect.png","","","","","","","","","","","","","","","","","","","","","","","",""
"image-keyboard-response","35","162797","0.0-4.0-4.0-1.0-0.7","5d793a152df8ed001645ed7f","63690f60c96a0a9a64b48fbd","6369204213af79662e11fae6","222","","f","","","","","","","","./tasks/HMM-beads/Images/NewTrialWC.png","practice","7","1","1","2","1","true","","","","","","","","","","","","","","","","",""
"image-keyboard-response","36","163105","0.0-4.0-4.0-1.0-1.7","5d793a152df8ed001645ed7f","63690f60c96a0a9a64b48fbd","6369204213af79662e11fae6","null","","null","","","","","","","","./tasks/HMM-beads/Images/BlackBeadChoice.png","","","","","","","","","","","","","","","","","","","","","","","",""
"image-keyboard-response","37","163628","0.0-4.0-4.0-1.0-2.7","5d793a152df8ed001645ed7f","63690f60c96a0a9a64b48fbd","6369204213af79662e11fae6","null","","null","","","","","","","","./tasks/HMM-beads/Images/BlackBeadChoiceCorrect.png","","","","","","","","","","","","","","","","","","","","","","","",""
"image-keyboard-response","38","163964","0.0-4.0-4.0-1.0-0.8","5d793a152df8ed001645ed7f","63690f60c96a0a9a64b48fbd","6369204213af79662e11fae6","334","","f","","","","","","","","./tasks/HMM-beads/Images/NewTrialBC.png","practice","8","1","1","1","1","true","","","","","","","","","","","","","","","","",""
"image-keyboard-response","39","164276","0.0-4.0-4.0-1.0-1.8","5d793a152df8ed001645ed7f","63690f60c96a0a9a64b48fbd","6369204213af79662e11fae6","null","","null","","","","","","","","./tasks/HMM-beads/Images/BlackBeadChoice.png","","","","","","","","","","","","","","","","","","","","","","","",""
"image-keyboard-response","40","164785","0.0-4.0-4.0-1.0-2.8","5d793a152df8ed001645ed7f","63690f60c96a0a9a64b48fbd","6369204213af79662e11fae6","null","","null","","","","","","","","./tasks/HMM-beads/Images/BlackBeadChoiceCorrect.png","","","","","","","","","","","","","","","","","","","","","","","",""
"image-keyboard-response","41","165087","0.0-4.0-4.0-1.0-0.9","5d793a152df8ed001645ed7f","63690f60c96a0a9a64b48fbd","6369204213af79662e11fae6","301","","f","","","","","","","","./tasks/HMM-beads/Images/NewTrialBC.png","practice","9","2","2","1","1","false","","","","","","","","","","","","","","","","",""
"image-keyboard-response","42","165403","0.0-4.0-4.0-1.0-1.9","5d793a152df8ed001645ed7f","63690f60c96a0a9a64b48fbd","6369204213af79662e11fae6","null","","null","","","","","","","","./tasks/HMM-beads/Images/BlackBeadChoice.png","","","","","","","","","","","","","","","","","","","","","","","",""
"image-keyboard-response","43","165915","0.0-4.0-4.0-1.0-2.9","5d793a152df8ed001645ed7f","63690f60c96a0a9a64b48fbd","6369204213af79662e11fae6","null","","null","","","","","","","","./tasks/HMM-beads/Images/BlackBeadChoiceWrong.png","","","","","","","","","","","","","","","","","","","","","","","",""
"image-keyboard-response","44","166304","0.0-4.0-4.0-1.0-0.10","5d793a152df8ed001645ed7f","63690f60c96a0a9a64b48fbd","6369204213af79662e11fae6","388","","f","","","","","","","","./tasks/HMM-beads/Images/NewTrialWC.png","practice","10","2","1","2","1","true","","","","","","","","","","","","","","","","",""
"image-keyboard-response","45","166606","0.0-4.0-4.0-1.0-1.10","5d793a152df8ed001645ed7f","63690f60c96a0a9a64b48fbd","6369204213af79662e11fae6","null","","null","","","","","","","","./tasks/HMM-beads/Images/BlackBeadChoice.png","","","","","","","","","","","","","","","","","","","","","","","",""
"image-keyboard-response","46","167117","0.0-4.0-4.0-1.0-2.10","5d793a152df8ed001645ed7f","63690f60c96a0a9a64b48fbd","6369204213af79662e11fae6","null","","null","","","","","","","","./tasks/HMM-beads/Images/BlackBeadChoiceCorrect.png","","","","","","","","","","","","","","","","","","","","","","","",""
"image-keyboard-response","47","167283","0.0-4.0-4.0-1.0-0.11","5d793a152df8ed001645ed7f","63690f60c96a0a9a64b48fbd","6369204213af79662e11fae6","165","","f","","","","","","","","./tasks/HMM-beads/Images/NewTrialBC.png","practice","11","2","2","1","1","false","","","","","","","","","","","","","","","","",""
"image-keyboard-response","48","167595","0.0-4.0-4.0-1.0-1.11","5d793a152df8ed001645ed7f","63690f60c96a0a9a64b48fbd","6369204213af79662e11fae6","null","","null","","","","","","","","./tasks/HMM-beads/Images/BlackBeadChoice.png","","","","","","","","","","","","","","","","","","","","","","","",""
"image-keyboard-response","49","168104","0.0-4.0-4.0-1.0-2.11","5d793a152df8ed001645ed7f","63690f60c96a0a9a64b48fbd","6369204213af79662e11fae6","null","","null","","","","","","","","./tasks/HMM-beads/Images/BlackBeadChoiceWrong.png","","","","","","","","","","","","","","","","","","","","","","","",""
"image-keyboard-response","50","168289","0.0-4.0-4.0-1.0-0.12","5d793a152df8ed001645ed7f","63690f60c96a0a9a64b48fbd","6369204213af79662e11fae6","183","","j","","","","","","","","./tasks/HMM-beads/Images/NewTrialWC.png","practice","12","2","2","2","2","true","","","","","","","","","","","","","","","","",""
"image-keyboard-response","51","168599","0.0-4.0-4.0-1.0-1.12","5d793a152df8ed001645ed7f","63690f60c96a0a9a64b48fbd","6369204213af79662e11fae6","null","","null","","","","","","","","./tasks/HMM-beads/Images/WhiteBeadChoice.png","","","","","","","","","","","","","","","","","","","","","","","",""
"image-keyboard-response","52","169111","0.0-4.0-4.0-1.0-2.12","5d793a152df8ed001645ed7f","63690f60c96a0a9a64b48fbd","6369204213af79662e11fae6","null","","null","","","","","","","","./tasks/HMM-beads/Images/WhiteBeadChoiceCorrect.png","","","","","","","","","","","","","","","","","","","","","","","",""
"image-keyboard-response","53","169231","0.0-4.0-4.0-1.0-0.13","5d793a152df8ed001645ed7f","63690f60c96a0a9a64b48fbd","6369204213af79662e11fae6","119","","j","","","","","","","","./tasks/HMM-beads/Images/NewTrialWC.png","practice","13","2","2","2","2","true","","","","","","","","","","","","","","","","",""
"image-keyboard-response","54","169544","0.0-4.0-4.0-1.0-1.13","5d793a152df8ed001645ed7f","63690f60c96a0a9a64b48fbd","6369204213af79662e11fae6","null","","null","","","","","","","","./tasks/HMM-beads/Images/WhiteBeadChoice.png","","","","","","","","","","","","","","","","","","","","","","","",""
"image-keyboard-response","55","170056","0.0-4.0-4.0-1.0-2.13","5d793a152df8ed001645ed7f","63690f60c96a0a9a64b48fbd","6369204213af79662e11fae6","null","","null","","","","","","","","./tasks/HMM-beads/Images/WhiteBeadChoiceCorrect.png","","","","","","","","","","","","","","","","","","","","","","","",""
"image-keyboard-response","56","170466","0.0-4.0-4.0-1.0-0.14","5d793a152df8ed001645ed7f","63690f60c96a0a9a64b48fbd","6369204213af79662e11fae6","409","","f","","","","","","","","./tasks/HMM-beads/Images/NewTrialWC.png","practice","14","2","2","2","1","false","","","","","","","","","","","","","","","","",""
"image-keyboard-response","57","170780","0.0-4.0-4.0-1.0-1.14","5d793a152df8ed001645ed7f","63690f60c96a0a9a64b48fbd","6369204213af79662e11fae6","null","","null","","","","","","","","./tasks/HMM-beads/Images/BlackBeadChoice.png","","","","","","","","","","","","","","","","","","","","","","","",""
"image-keyboard-response","58","171290","0.0-4.0-4.0-1.0-2.14","5d793a152df8ed001645ed7f","63690f60c96a0a9a64b48fbd","6369204213af79662e11fae6","null","","null","","","","","","","","./tasks/HMM-beads/Images/BlackBeadChoiceWrong.png","","","","","","","","","","","","","","","","","","","","","","","",""
"image-keyboard-response","59","171368","0.0-4.0-4.0-1.0-0.15","5d793a152df8ed001645ed7f","63690f60c96a0a9a64b48fbd","6369204213af79662e11fae6","76","","f","","","","","","","","./tasks/HMM-beads/Images/NewTrialWC.png","practice","15","1","1","2","1","true","","","","","","","","","","","","","","","","",""
"image-keyboard-response","60","171678","0.0-4.0-4.0-1.0-1.15","5d793a152df8ed001645ed7f","63690f60c96a0a9a64b48fbd","6369204213af79662e11fae6","null","","null","","","","","","","","./tasks/HMM-beads/Images/BlackBeadChoice.png","","","","","","","","","","","","","","","","","","","","","","","",""
"image-keyboard-response","61","172186","0.0-4.0-4.0-1.0-2.15","5d793a152df8ed001645ed7f","63690f60c96a0a9a64b48fbd","6369204213af79662e11fae6","null","","null","","","","","","","","./tasks/HMM-beads/Images/BlackBeadChoiceCorrect.png","","","","","","","","","","","","","","","","","","","","","","","",""
"image-keyboard-response","62","172252","0.0-4.0-4.0-1.0-0.16","5d793a152df8ed001645ed7f","63690f60c96a0a9a64b48fbd","6369204213af79662e11fae6","66","","f","","","","","","","","./tasks/HMM-beads/Images/NewTrialBC.png","practice","16","1","2","1","1","false","","","","","","","","","","","","","","","","",""
"image-keyboard-response","63","172569","0.0-4.0-4.0-1.0-1.16","5d793a152df8ed001645ed7f","63690f60c96a0a9a64b48fbd","6369204213af79662e11fae6","null","","null","","","","","","","","./tasks/HMM-beads/Images/BlackBeadChoice.png","","","","","","","","","","","","","","","","","","","","","","","",""
"image-keyboard-response","64","173078","0.0-4.0-4.0-1.0-2.16","5d793a152df8ed001645ed7f","63690f60c96a0a9a64b48fbd","6369204213af79662e11fae6","null","","null","","","","","","","","./tasks/HMM-beads/Images/BlackBeadChoiceWrong.png","","","","","","","","","","","","","","","","","","","","","","","",""
"image-keyboard-response","65","173990","0.0-4.0-4.0-1.0-0.17","5d793a152df8ed001645ed7f","63690f60c96a0a9a64b48fbd","6369204213af79662e11fae6","910","","j","","","","","","","","./tasks/HMM-beads/Images/NewTrialWC.png","practice","17","1","1","2","2","false","","","","","","","","","","","","","","","","",""
"image-keyboard-response","66","174300","0.0-4.0-4.0-1.0-1.17","5d793a152df8ed001645ed7f","63690f60c96a0a9a64b48fbd","6369204213af79662e11fae6","null","","null","","","","","","","","./tasks/HMM-beads/Images/WhiteBeadChoice.png","","","","","","","","","","","","","","","","","","","","","","","",""
"image-keyboard-response","67","174811","0.0-4.0-4.0-1.0-2.17","5d793a152df8ed001645ed7f","63690f60c96a0a9a64b48fbd","6369204213af79662e11fae6","null","","null","","","","","","","","./tasks/HMM-beads/Images/WhiteBeadChoiceWrong.png","","","","","","","","","","","","","","","","","","","","","","","",""
"image-keyboard-response","68","175535","0.0-4.0-4.0-1.0-0.18","5d793a152df8ed001645ed7f","63690f60c96a0a9a64b48fbd","6369204213af79662e11fae6","723","","f","","","","","","","","./tasks/HMM-beads/Images/NewTrialBC.png","practice","18","1","1","1","1","true","","","","","","","","","","","","","","","","",""
"image-keyboard-response","69","175847","0.0-4.0-4.0-1.0-1.18","5d793a152df8ed001645ed7f","63690f60c96a0a9a64b48fbd","6369204213af79662e11fae6","null","","null","","","","","","","","./tasks/HMM-beads/Images/BlackBeadChoice.png","","","","","","","","","","","","","","","","","","","","","","","",""
"image-keyboard-response","70","176357","0.0-4.0-4.0-1.0-2.18","5d793a152df8ed001645ed7f","63690f60c96a0a9a64b48fbd","6369204213af79662e11fae6","null","","null","","","","","","","","./tasks/HMM-beads/Images/BlackBeadChoiceCorrect.png","","","","","","","","","","","","","","","","","","","","","","","",""
"image-keyboard-response","71","176957","0.0-4.0-4.0-1.0-0.19","5d793a152df8ed001645ed7f","63690f60c96a0a9a64b48fbd","6369204213af79662e11fae6","598","","f","","","","","","","","./tasks/HMM-beads/Images/NewTrialBC.png","practice","19","1","1","1","1","true","","","","","","","","","","","","","","","","",""
"image-keyboard-response","72","177271","0.0-4.0-4.0-1.0-1.19","5d793a152df8ed001645ed7f","63690f60c96a0a9a64b48fbd","6369204213af79662e11fae6","null","","null","","","","","","","","./tasks/HMM-beads/Images/BlackBeadChoice.png","","","","","","","","","","","","","","","","","","","","","","","",""
"image-keyboard-response","73","177778","0.0-4.0-4.0-1.0-2.19","5d793a152df8ed001645ed7f","63690f60c96a0a9a64b48fbd","6369204213af79662e11fae6","null","","null","","","","","","","","./tasks/HMM-beads/Images/BlackBeadChoiceCorrect.png","","","","","","","","","","","","","","","","","","","","","","","",""
"html-keyboard-response","74","180646","0.0-4.0-4.0-2.0","5d793a152df8ed001645ed7f","63690f60c96a0a9a64b48fbd","6369204213af79662e11fae6","2868",""," ","","","","","","","","","","","","","","","","","","","","","","","","","","","","","","","",""
"instructions","75","192745","0.0-4.0-5.0","5d793a152df8ed001645ed7f","63690f60c96a0a9a64b48fbd","6369204213af79662e11fae6","12099","","","","[{""page_index"":0,""viewing_time"":9998},{""page_index"":1,""viewing_time"":2100}]","","","","","","","","","","","","","","","","","","","","","","","","","","","","","",""
"html-keyboard-response","76","198898","0.0-4.0-6.0-0.0","5d793a152df8ed001645ed7f","63690f60c96a0a9a64b48fbd","6369204213af79662e11fae6","6152",""," ","","","","","","","","<div align=center>In this block, there will be a <b>99%</b> chance that the jar on the next trial will be different from the jar on the current trial.<br><br></div>","","","","","","","","","","","","","","","","","","","","","","","",""
"image-keyboard-response","77","201377","0.0-4.0-6.0-1.0-0.0","5d793a152df8ed001645ed7f","63690f60c96a0a9a64b48fbd","6369204213af79662e11fae6","2477","","f","","","","","","","","./tasks/HMM-beads/Images/NoChoice.png","highH","0","1","1","0","1","true","","","","","","","","","","","","","","","","",""
"image-keyboard-response","78","201698","0.0-4.0-6.0-1.0-1.0","5d793a152df8ed001645ed7f","63690f60c96a0a9a64b48fbd","6369204213af79662e11fae6","null","","null","","","","","","","","./tasks/HMM-beads/Images/BlackBeadChoice.png","","","","","","","","","","","","","","","","","","","","","","","",""
"image-keyboard-response","79","202207","0.0-4.0-6.0-1.0-2.0","5d793a152df8ed001645ed7f","63690f60c96a0a9a64b48fbd","6369204213af79662e11fae6","null","","null","","","","","","","","./tasks/HMM-beads/Images/BlackBeadChoiceCorrect.png","","","","","","","","","","","","","","","","","","","","","","","",""
"image-keyboard-response","80","202682","0.0-4.0-6.0-1.0-0.1","5d793a152df8ed001645ed7f","63690f60c96a0a9a64b48fbd","6369204213af79662e11fae6","473","","j","","","","","","","","./tasks/HMM-beads/Images/NewTrialBC.png","highH","1","2","2","1","2","true","","","","","","","","","","","","","","","","",""
"image-keyboard-response","81","202993","0.0-4.0-6.0-1.0-1.1","5d793a152df8ed001645ed7f","63690f60c96a0a9a64b48fbd","6369204213af79662e11fae6","null","","null","","","","","","","","./tasks/HMM-beads/Images/WhiteBeadChoice.png","","","","","","","","","","","","","","","","","","","","","","","",""
"image-keyboard-response","82","203515","0.0-4.0-6.0-1.0-2.1","5d793a152df8ed001645ed7f","63690f60c96a0a9a64b48fbd","6369204213af79662e11fae6","null","","null","","","","","","","","./tasks/HMM-beads/Images/WhiteBeadChoiceCorrect.png","","","","","","","","","","","","","","","","","","","","","","","",""
"image-keyboard-response","83","203983","0.0-4.0-6.0-1.0-0.2","5d793a152df8ed001645ed7f","63690f60c96a0a9a64b48fbd","6369204213af79662e11fae6","467","","f","","","","","","","","./tasks/HMM-beads/Images/NewTrialWC.png","highH","2","1","1","2","1","true","","","","","","","","","","","","","","","","",""
"image-keyboard-response","84","204297","0.0-4.0-6.0-1.0-1.2","5d793a152df8ed001645ed7f","63690f60c96a0a9a64b48fbd","6369204213af79662e11fae6","null","","null","","","","","","","","./tasks/HMM-beads/Images/BlackBeadChoice.png","","","","","","","","","","","","","","","","","","","","","","","",""
"image-keyboard-response","85","204808","0.0-4.0-6.0-1.0-2.2","5d793a152df8ed001645ed7f","63690f60c96a0a9a64b48fbd","6369204213af79662e11fae6","null","","null","","","","","","","","./tasks/HMM-beads/Images/BlackBeadChoiceCorrect.png","","","","","","","","","","","","","","","","","","","","","","","",""
"image-keyboard-response","86","205216","0.0-4.0-6.0-1.0-0.3","5d793a152df8ed001645ed7f","63690f60c96a0a9a64b48fbd","6369204213af79662e11fae6","407","","j","","","","","","","","./tasks/HMM-beads/Images/NewTrialBC.png","highH","3","2","2","1","2","true","","","","","","","","","","","","","","","","",""
"image-keyboard-response","87","205519","0.0-4.0-6.0-1.0-1.3","5d793a152df8ed001645ed7f","63690f60c96a0a9a64b48fbd","6369204213af79662e11fae6","null","","null","","","","","","","","./tasks/HMM-beads/Images/WhiteBeadChoice.png","","","","","","","","","","","","","","","","","","","","","","","",""
"image-keyboard-response","88","206031","0.0-4.0-6.0-1.0-2.3","5d793a152df8ed001645ed7f","63690f60c96a0a9a64b48fbd","6369204213af79662e11fae6","null","","null","","","","","","","","./tasks/HMM-beads/Images/WhiteBeadChoiceCorrect.png","","","","","","","","","","","","","","","","","","","","","","","",""
"image-keyboard-response","89","206350","0.0-4.0-6.0-1.0-0.4","5d793a152df8ed001645ed7f","63690f60c96a0a9a64b48fbd","6369204213af79662e11fae6","318","","j","","","","","","","","./tasks/HMM-beads/Images/NewTrialWC.png","highH","4","1","1","2","2","false","","","","","","","","","","","","","","","","",""
"image-keyboard-response","90","206662","0.0-4.0-6.0-1.0-1.4","5d793a152df8ed001645ed7f","63690f60c96a0a9a64b48fbd","6369204213af79662e11fae6","null","","null","","","","","","","","./tasks/HMM-beads/Images/WhiteBeadChoice.png","","","","","","","","","","","","","","","","","","","","","","","",""
"image-keyboard-response","91","207172","0.0-4.0-6.0-1.0-2.4","5d793a152df8ed001645ed7f","63690f60c96a0a9a64b48fbd","6369204213af79662e11fae6","null","","null","","","","","","","","./tasks/HMM-beads/Images/WhiteBeadChoiceWrong.png","","","","","","","","","","","","","","","","","","","","","","","",""
"image-keyboard-response","92","207418","0.0-4.0-6.0-1.0-0.5","5d793a152df8ed001645ed7f","63690f60c96a0a9a64b48fbd","6369204213af79662e11fae6","245","","f","","","","","","","","./tasks/HMM-beads/Images/NewTrialBC.png","highH","5","2","2","1","1","false","","","","","","","","","","","","","","","","",""
"image-keyboard-response","93","207730","0.0-4.0-6.0-1.0-1.5","5d793a152df8ed001645ed7f","63690f60c96a0a9a64b48fbd","6369204213af79662e11fae6","null","","null","","","","","","","","./tasks/HMM-beads/Images/BlackBeadChoice.png","","","","","","","","","","","","","","","","","","","","","","","",""
"image-keyboard-response","94","208240","0.0-4.0-6.0-1.0-2.5","5d793a152df8ed001645ed7f","63690f60c96a0a9a64b48fbd","6369204213af79662e11fae6","null","","null","","","","","","","","./tasks/HMM-beads/Images/BlackBeadChoiceWrong.png","","","","","","","","","","","","","","","","","","","","","","","",""
"image-keyboard-response","95","208639","0.0-4.0-6.0-1.0-0.6","5d793a152df8ed001645ed7f","63690f60c96a0a9a64b48fbd","6369204213af79662e11fae6","397","","j","","","","","","","","./tasks/HMM-beads/Images/NewTrialWC.png","highH","6","1","1","2","2","false","","","","","","","","","","","","","","","","",""
"image-keyboard-response","96","208948","0.0-4.0-6.0-1.0-1.6","5d793a152df8ed001645ed7f","63690f60c96a0a9a64b48fbd","6369204213af79662e11fae6","null","","null","","","","","","","","./tasks/HMM-beads/Images/WhiteBeadChoice.png","","","","","","","","","","","","","","","","","","","","","","","",""
"image-keyboard-response","97","209462","0.0-4.0-6.0-1.0-2.6","5d793a152df8ed001645ed7f","63690f60c96a0a9a64b48fbd","6369204213af79662e11fae6","null","","null","","","","","","","","./tasks/HMM-beads/Images/WhiteBeadChoiceWrong.png","","","","","","","","","","","","","","","","","","","","","","","",""
"image-keyboard-response","98","209783","0.0-4.0-6.0-1.0-0.7","5d793a152df8ed001645ed7f","63690f60c96a0a9a64b48fbd","6369204213af79662e11fae6","320","","f","","","","","","","","./tasks/HMM-beads/Images/NewTrialBC.png","highH","7","2","1","1","1","true","","","","","","","","","","","","","","","","",""
"image-keyboard-response","99","210097","0.0-4.0-6.0-1.0-1.7","5d793a152df8ed001645ed7f","63690f60c96a0a9a64b48fbd","6369204213af79662e11fae6","null","","null","","","","","","","","./tasks/HMM-beads/Images/BlackBeadChoice.png","","","","","","","","","","","","","","","","","","","","","","","",""
"image-keyboard-response","100","210609","0.0-4.0-6.0-1.0-2.7","5d793a152df8ed001645ed7f","63690f60c96a0a9a64b48fbd","6369204213af79662e11fae6","null","","null","","","","","","","","./tasks/HMM-beads/Images/BlackBeadChoiceCorrect.png","","","","","","","","","","","","","","","","","","","","","","","",""
"image-keyboard-response","101","210775","0.0-4.0-6.0-1.0-0.8","5d793a152df8ed001645ed7f","63690f60c96a0a9a64b48fbd","6369204213af79662e11fae6","165","","f","","","","","","","","./tasks/HMM-beads/Images/NewTrialBC.png","highH","8","1","1","1","1","true","","","","","","","","","","","","","","","","",""
"image-keyboard-response","102","211087","0.0-4.0-6.0-1.0-1.8","5d793a152df8ed001645ed7f","63690f60c96a0a9a64b48fbd","6369204213af79662e11fae6","null","","null","","","","","","","","./tasks/HMM-beads/Images/BlackBeadChoice.png","","","","","","","","","","","","","","","","","","","","","","","",""
"image-keyboard-response","103","211598","0.0-4.0-6.0-1.0-2.8","5d793a152df8ed001645ed7f","63690f60c96a0a9a64b48fbd","6369204213af79662e11fae6","null","","null","","","","","","","","./tasks/HMM-beads/Images/BlackBeadChoiceCorrect.png","","","","","","","","","","","","","","","","","","","","","","","",""
"image-keyboard-response","104","212422","0.0-4.0-6.0-1.0-0.9","5d793a152df8ed001645ed7f","63690f60c96a0a9a64b48fbd","6369204213af79662e11fae6","823","","j","","","","","","","","./tasks/HMM-beads/Images/NewTrialBC.png","highH","9","2","2","1","2","true","","","","","","","","","","","","","","","","",""
"image-keyboard-response","105","212737","0.0-4.0-6.0-1.0-1.9","5d793a152df8ed001645ed7f","63690f60c96a0a9a64b48fbd","6369204213af79662e11fae6","null","","null","","","","","","","","./tasks/HMM-beads/Images/WhiteBeadChoice.png","","","","","","","","","","","","","","","","","","","","","","","",""
"image-keyboard-response","106","213246","0.0-4.0-6.0-1.0-2.9","5d793a152df8ed001645ed7f","63690f60c96a0a9a64b48fbd","6369204213af79662e11fae6","null","","null","","","","","","","","./tasks/HMM-beads/Images/WhiteBeadChoiceCorrect.png","","","","","","","","","","","","","","","","","","","","","","","",""
"image-keyboard-response","107","213398","0.0-4.0-6.0-1.0-0.10","5d793a152df8ed001645ed7f","63690f60c96a0a9a64b48fbd","6369204213af79662e11fae6","150","","f","","","","","","","","./tasks/HMM-beads/Images/NewTrialWC.png","highH","10","1","1","2","1","true","","","","","","","","","","","","","","","","",""
"image-keyboard-response","108","213709","0.0-4.0-6.0-1.0-1.10","5d793a152df8ed001645ed7f","63690f60c96a0a9a64b48fbd","6369204213af79662e11fae6","null","","null","","","","","","","","./tasks/HMM-beads/Images/BlackBeadChoice.png","","","","","","","","","","","","","","","","","","","","","","","",""
"image-keyboard-response","109","214218","0.0-4.0-6.0-1.0-2.10","5d793a152df8ed001645ed7f","63690f60c96a0a9a64b48fbd","6369204213af79662e11fae6","null","","null","","","","","","","","./tasks/HMM-beads/Images/BlackBeadChoiceCorrect.png","","","","","","","","","","","","","","","","","","","","","","","",""
"image-keyboard-response","110","214528","0.0-4.0-6.0-1.0-0.11","5d793a152df8ed001645ed7f","63690f60c96a0a9a64b48fbd","6369204213af79662e11fae6","308","","j","","","","","","","","./tasks/HMM-beads/Images/NewTrialBC.png","highH","11","2","2","1","2","true","","","","","","","","","","","","","","","","",""
"image-keyboard-response","111","214840","0.0-4.0-6.0-1.0-1.11","5d793a152df8ed001645ed7f","63690f60c96a0a9a64b48fbd","6369204213af79662e11fae6","null","","null","","","","","","","","./tasks/HMM-beads/Images/WhiteBeadChoice.png","","","","","","","","","","","","","","","","","","","","","","","",""
"image-keyboard-response","112","215346","0.0-4.0-6.0-1.0-2.11","5d793a152df8ed001645ed7f","63690f60c96a0a9a64b48fbd","6369204213af79662e11fae6","null","","null","","","","","","","","./tasks/HMM-beads/Images/WhiteBeadChoiceCorrect.png","","","","","","","","","","","","","","","","","","","","","","","",""
"image-keyboard-response","113","215438","0.0-4.0-6.0-1.0-0.12","5d793a152df8ed001645ed7f","63690f60c96a0a9a64b48fbd","6369204213af79662e11fae6","91","","f","","","","","","","","./tasks/HMM-beads/Images/NewTrialWC.png","highH","12","1","1","2","1","true","","","","","","","","","","","","","","","","",""
"image-keyboard-response","114","215747","0.0-4.0-6.0-1.0-1.12","5d793a152df8ed001645ed7f","63690f60c96a0a9a64b48fbd","6369204213af79662e11fae6","null","","null","","","","","","","","./tasks/HMM-beads/Images/BlackBeadChoice.png","","","","","","","","","","","","","","","","","","","","","","","",""
"image-keyboard-response","115","216260","0.0-4.0-6.0-1.0-2.12","5d793a152df8ed001645ed7f","63690f60c96a0a9a64b48fbd","6369204213af79662e11fae6","null","","null","","","","","","","","./tasks/HMM-beads/Images/BlackBeadChoiceCorrect.png","","","","","","","","","","","","","","","","","","","","","","","",""
"image-keyboard-response","116","216524","0.0-4.0-6.0-1.0-0.13","5d793a152df8ed001645ed7f","63690f60c96a0a9a64b48fbd","6369204213af79662e11fae6","263","","j","","","","","","","","./tasks/HMM-beads/Images/NewTrialBC.png","highH","13","2","1","1","2","false","","","","","","","","","","","","","","","","",""
"image-keyboard-response","117","216832","0.0-4.0-6.0-1.0-1.13","5d793a152df8ed001645ed7f","63690f60c96a0a9a64b48fbd","6369204213af79662e11fae6","null","","null","","","","","","","","./tasks/HMM-beads/Images/WhiteBeadChoice.png","","","","","","","","","","","","","","","","","","","","","","","",""
"image-keyboard-response","118","217340","0.0-4.0-6.0-1.0-2.13","5d793a152df8ed001645ed7f","63690f60c96a0a9a64b48fbd","6369204213af79662e11fae6","null","","null","","","","","","","","./tasks/HMM-beads/Images/WhiteBeadChoiceWrong.png","","","","","","","","","","","","","","","","","","","","","","","",""
"image-keyboard-response","119","217544","0.0-4.0-6.0-1.0-0.14","5d793a152df8ed001645ed7f","63690f60c96a0a9a64b48fbd","6369204213af79662e11fae6","204","","f","","","","","","","","./tasks/HMM-beads/Images/NewTrialBC.png","highH","14","1","2","1","1","false","","","","","","","","","","","","","","","","",""
"image-keyboard-response","120","217851","0.0-4.0-6.0-1.0-1.14","5d793a152df8ed001645ed7f","63690f60c96a0a9a64b48fbd","6369204213af79662e11fae6","null","","null","","","","","","","","./tasks/HMM-beads/Images/BlackBeadChoice.png","","","","","","","","","","","","","","","","","","","","","","","",""
"image-keyboard-response","121","218360","0.0-4.0-6.0-1.0-2.14","5d793a152df8ed001645ed7f","63690f60c96a0a9a64b48fbd","6369204213af79662e11fae6","null","","null","","","","","","","","./tasks/HMM-beads/Images/BlackBeadChoiceWrong.png","","","","","","","","","","","","","","","","","","","","","","","",""
"image-keyboard-response","122","218647","0.0-4.0-6.0-1.0-0.15","5d793a152df8ed001645ed7f","63690f60c96a0a9a64b48fbd","6369204213af79662e11fae6","286","","f","","","","","","","","./tasks/HMM-beads/Images/NewTrialWC.png","highH","15","2","2","2","1","false","","","","","","","","","","","","","","","","",""
"image-keyboard-response","123","218960","0.0-4.0-6.0-1.0-1.15","5d793a152df8ed001645ed7f","63690f60c96a0a9a64b48fbd","6369204213af79662e11fae6","null","","null","","","","","","","","./tasks/HMM-beads/Images/BlackBeadChoice.png","","","","","","","","","","","","","","","","","","","","","","","",""
"image-keyboard-response","124","219467","0.0-4.0-6.0-1.0-2.15","5d793a152df8ed001645ed7f","63690f60c96a0a9a64b48fbd","6369204213af79662e11fae6","null","","null","","","","","","","","./tasks/HMM-beads/Images/BlackBeadChoiceWrong.png","","","","","","","","","","","","","","","","","","","","","","","",""
"image-keyboard-response","125","219729","0.0-4.0-6.0-1.0-0.16","5d793a152df8ed001645ed7f","63690f60c96a0a9a64b48fbd","6369204213af79662e11fae6","260","","j","","","","","","","","./tasks/HMM-beads/Images/NewTrialWC.png","highH","16","1","1","2","2","false","","","","","","","","","","","","","","","","",""
"image-keyboard-response","126","220031","0.0-4.0-6.0-1.0-1.16","5d793a152df8ed001645ed7f","63690f60c96a0a9a64b48fbd","6369204213af79662e11fae6","null","","null","","","","","","","","./tasks/HMM-beads/Images/WhiteBeadChoice.png","","","","","","","","","","","","","","","","","","","","","","","",""
"image-keyboard-response","127","220533","0.0-4.0-6.0-1.0-2.16","5d793a152df8ed001645ed7f","63690f60c96a0a9a64b48fbd","6369204213af79662e11fae6","null","","null","","","","","","","","./tasks/HMM-beads/Images/WhiteBeadChoiceWrong.png","","","","","","","","","","","","","","","","","","","","","","","",""
"image-keyboard-response","128","221403","0.0-4.0-6.0-1.0-0.17","5d793a152df8ed001645ed7f","63690f60c96a0a9a64b48fbd","6369204213af79662e11fae6","868","","f","","","","","","","","./tasks/HMM-beads/Images/NewTrialBC.png","highH","17","2","2","1","1","false","","","","","","","","","","","","","","","","",""
"image-keyboard-response","129","221724","0.0-4.0-6.0-1.0-1.17","5d793a152df8ed001645ed7f","63690f60c96a0a9a64b48fbd","6369204213af79662e11fae6","null","","null","","","","","","","","./tasks/HMM-beads/Images/BlackBeadChoice.png","","","","","","","","","","","","","","","","","","","","","","","",""
"image-keyboard-response","130","222231","0.0-4.0-6.0-1.0-2.17","5d793a152df8ed001645ed7f","63690f60c96a0a9a64b48fbd","6369204213af79662e11fae6","null","","null","","","","","","","","./tasks/HMM-beads/Images/BlackBeadChoiceWrong.png","","","","","","","","","","","","","","","","","","","","","","","",""
"image-keyboard-response","131","222797","0.0-4.0-6.0-1.0-0.18","5d793a152df8ed001645ed7f","63690f60c96a0a9a64b48fbd","6369204213af79662e11fae6","565","","f","","","","","","","","./tasks/HMM-beads/Images/NewTrialWC.png","highH","18","1","2","2","1","false","","","","","","","","","","","","","","","","",""
"image-keyboard-response","132","223116","0.0-4.0-6.0-1.0-1.18","5d793a152df8ed001645ed7f","63690f60c96a0a9a64b48fbd","6369204213af79662e11fae6","null","","null","","","","","","","","./tasks/HMM-beads/Images/BlackBeadChoice.png","","","","","","","","","","","","","","","","","","","","","","","",""
"image-keyboard-response","133","223629","0.0-4.0-6.0-1.0-2.18","5d793a152df8ed001645ed7f","63690f60c96a0a9a64b48fbd","6369204213af79662e11fae6","null","","null","","","","","","","","./tasks/HMM-beads/Images/BlackBeadChoiceWrong.png","","","","","","","","","","","","","","","","","","","","","","","",""
"image-keyboard-response","134","223962","0.0-4.0-6.0-1.0-0.19","5d793a152df8ed001645ed7f","63690f60c96a0a9a64b48fbd","6369204213af79662e11fae6","332","","j","","","","","","","","./tasks/HMM-beads/Images/NewTrialWC.png","highH","19","2","2","2","2","true","","","","","","","","","","","","","","","","",""
"image-keyboard-response","135","224270","0.0-4.0-6.0-1.0-1.19","5d793a152df8ed001645ed7f","63690f60c96a0a9a64b48fbd","6369204213af79662e11fae6","null","","null","","","","","","","","./tasks/HMM-beads/Images/WhiteBeadChoice.png","","","","","","","","","","","","","","","","","","","","","","","",""
"image-keyboard-response","136","224786","0.0-4.0-6.0-1.0-2.19","5d793a152df8ed001645ed7f","63690f60c96a0a9a64b48fbd","6369204213af79662e11fae6","null","","null","","","","","","","","./tasks/HMM-beads/Images/WhiteBeadChoiceCorrect.png","","","","","","","","","","","","","","","","","","","","","","","",""
"image-keyboard-response","137","225077","0.0-4.0-6.0-1.0-0.20","5d793a152df8ed001645ed7f","63690f60c96a0a9a64b48fbd","6369204213af79662e11fae6","289","","j","","","","","","","","./tasks/HMM-beads/Images/NewTrialWC.png","highH","20","1","1","2","2","false","","","","","","","","","","","","","","","","",""
"image-keyboard-response","138","225382","0.0-4.0-6.0-1.0-1.20","5d793a152df8ed001645ed7f","63690f60c96a0a9a64b48fbd","6369204213af79662e11fae6","null","","null","","","","","","","","./tasks/HMM-beads/Images/WhiteBeadChoice.png","","","","","","","","","","","","","","","","","","","","","","","",""
"image-keyboard-response","139","225886","0.0-4.0-6.0-1.0-2.20","5d793a152df8ed001645ed7f","63690f60c96a0a9a64b48fbd","6369204213af79662e11fae6","null","","null","","","","","","","","./tasks/HMM-beads/Images/WhiteBeadChoiceWrong.png","","","","","","","","","","","","","","","","","","","","","","","",""
"image-keyboard-response","140","226077","0.0-4.0-6.0-1.0-0.21","5d793a152df8ed001645ed7f","63690f60c96a0a9a64b48fbd","6369204213af79662e11fae6","190","","f","","","","","","","","./tasks/HMM-beads/Images/NewTrialBC.png","highH","21","2","1","1","1","true","","","","","","","","","","","","","","","","",""
"image-keyboard-response","141","226396","0.0-4.0-6.0-1.0-1.21","5d793a152df8ed001645ed7f","63690f60c96a0a9a64b48fbd","6369204213af79662e11fae6","null","","null","","","","","","","","./tasks/HMM-beads/Images/BlackBeadChoice.png","","","","","","","","","","","","","","","","","","","","","","","",""
"image-keyboard-response","142","226908","0.0-4.0-6.0-1.0-2.21","5d793a152df8ed001645ed7f","63690f60c96a0a9a64b48fbd","6369204213af79662e11fae6","null","","null","","","","","","","","./tasks/HMM-beads/Images/BlackBeadChoiceCorrect.png","","","","","","","","","","","","","","","","","","","","","","","",""
"image-keyboard-response","143","227207","0.0-4.0-6.0-1.0-0.22","5d793a152df8ed001645ed7f","63690f60c96a0a9a64b48fbd","6369204213af79662e11fae6","298","","f","","","","","","","","./tasks/HMM-beads/Images/NewTrialBC.png","highH","22","1","1","1","1","true","","","","","","","","","","","","","","","","",""
"image-keyboard-response","144","227512","0.0-4.0-6.0-1.0-1.22","5d793a152df8ed001645ed7f","63690f60c96a0a9a64b48fbd","6369204213af79662e11fae6","null","","null","","","","","","","","./tasks/HMM-beads/Images/BlackBeadChoice.png","","","","","","","","","","","","","","","","","","","","","","","",""
"image-keyboard-response","145","228024","0.0-4.0-6.0-1.0-2.22","5d793a152df8ed001645ed7f","63690f60c96a0a9a64b48fbd","6369204213af79662e11fae6","null","","null","","","","","","","","./tasks/HMM-beads/Images/BlackBeadChoiceCorrect.png","","","","","","","","","","","","","","","","","","","","","","","",""
"image-keyboard-response","146","228532","0.0-4.0-6.0-1.0-0.23","5d793a152df8ed001645ed7f","63690f60c96a0a9a64b48fbd","6369204213af79662e11fae6","506","","j","","","","","","","","./tasks/HMM-beads/Images/NewTrialBC.png","highH","23","2","2","1","2","true","","","","","","","","","","","","","","","","",""
"image-keyboard-response","147","228846","0.0-4.0-6.0-1.0-1.23","5d793a152df8ed001645ed7f","63690f60c96a0a9a64b48fbd","6369204213af79662e11fae6","null","","null","","","","","","","","./tasks/HMM-beads/Images/WhiteBeadChoice.png","","","","","","","","","","","","","","","","","","","","","","","",""
"image-keyboard-response","148","229357","0.0-4.0-6.0-1.0-2.23","5d793a152df8ed001645ed7f","63690f60c96a0a9a64b48fbd","6369204213af79662e11fae6","null","","null","","","","","","","","./tasks/HMM-beads/Images/WhiteBeadChoiceCorrect.png","","","","","","","","","","","","","","","","","","","","","","","",""
"image-keyboard-response","149","230010","0.0-4.0-6.0-1.0-0.24","5d793a152df8ed001645ed7f","63690f60c96a0a9a64b48fbd","6369204213af79662e11fae6","652","","f","","","","","","","","./tasks/HMM-beads/Images/NewTrialWC.png","highH","24","1","1","2","1","true","","","","","","","","","","","","","","","","",""
"image-keyboard-response","150","230331","0.0-4.0-6.0-1.0-1.24","5d793a152df8ed001645ed7f","63690f60c96a0a9a64b48fbd","6369204213af79662e11fae6","null","","null","","","","","","","","./tasks/HMM-beads/Images/BlackBeadChoice.png","","","","","","","","","","","","","","","","","","","","","","","",""
"image-keyboard-response","151","230843","0.0-4.0-6.0-1.0-2.24","5d793a152df8ed001645ed7f","63690f60c96a0a9a64b48fbd","6369204213af79662e11fae6","null","","null","","","","","","","","./tasks/HMM-beads/Images/BlackBeadChoiceCorrect.png","","","","","","","","","","","","","","","","","","","","","","","",""
"image-keyboard-response","152","231054","0.0-4.0-6.0-1.0-0.25","5d793a152df8ed001645ed7f","63690f60c96a0a9a64b48fbd","6369204213af79662e11fae6","210","","f","","","","","","","","./tasks/HMM-beads/Images/NewTrialBC.png","highH","25","2","1","1","1","true","","","","","","","","","","","","","","","","",""
"image-keyboard-response","153","231370","0.0-4.0-6.0-1.0-1.25","5d793a152df8ed001645ed7f","63690f60c96a0a9a64b48fbd","6369204213af79662e11fae6","null","","null","","","","","","","","./tasks/HMM-beads/Images/BlackBeadChoice.png","","","","","","","","","","","","","","","","","","","","","","","",""
"image-keyboard-response","154","231881","0.0-4.0-6.0-1.0-2.25","5d793a152df8ed001645ed7f","63690f60c96a0a9a64b48fbd","6369204213af79662e11fae6","null","","null","","","","","","","","./tasks/HMM-beads/Images/BlackBeadChoiceCorrect.png","","","","","","","","","","","","","","","","","","","","","","","",""
"image-keyboard-response","155","232160","0.0-4.0-6.0-1.0-0.26","5d793a152df8ed001645ed7f","63690f60c96a0a9a64b48fbd","6369204213af79662e11fae6","278","","f","","","","","","","","./tasks/HMM-beads/Images/NewTrialBC.png","highH","26","1","1","1","1","true","","","","","","","","","","","","","","","","",""
"image-keyboard-response","156","232467","0.0-4.0-6.0-1.0-1.26","5d793a152df8ed001645ed7f","63690f60c96a0a9a64b48fbd","6369204213af79662e11fae6","null","","null","","","","","","","","./tasks/HMM-beads/Images/BlackBeadChoice.png","","","","","","","","","","","","","","","","","","","","","","","",""
"image-keyboard-response","157","232977","0.0-4.0-6.0-1.0-2.26","5d793a152df8ed001645ed7f","63690f60c96a0a9a64b48fbd","6369204213af79662e11fae6","null","","null","","","","","","","","./tasks/HMM-beads/Images/BlackBeadChoiceCorrect.png","","","","","","","","","","","","","","","","","","","","","","","",""
"image-keyboard-response","158","233207","0.0-4.0-6.0-1.0-0.27","5d793a152df8ed001645ed7f","63690f60c96a0a9a64b48fbd","6369204213af79662e11fae6","229","","j","","","","","","","","./tasks/HMM-beads/Images/NewTrialBC.png","highH","27","2","2","1","2","true","","","","","","","","","","","","","","","","",""
"image-keyboard-response","159","233514","0.0-4.0-6.0-1.0-1.27","5d793a152df8ed001645ed7f","63690f60c96a0a9a64b48fbd","6369204213af79662e11fae6","null","","null","","","","","","","","./tasks/HMM-beads/Images/WhiteBeadChoice.png","","","","","","","","","","","","","","","","","","","","","","","",""
"image-keyboard-response","160","234024","0.0-4.0-6.0-1.0-2.27","5d793a152df8ed001645ed7f","63690f60c96a0a9a64b48fbd","6369204213af79662e11fae6","null","","null","","","","","","","","./tasks/HMM-beads/Images/WhiteBeadChoiceCorrect.png","","","","","","","","","","","","","","","","","","","","","","","",""
"image-keyboard-response","161","234373","0.0-4.0-6.0-1.0-0.28","5d793a152df8ed001645ed7f","63690f60c96a0a9a64b48fbd","6369204213af79662e11fae6","347","","j","","","","","","","","./tasks/HMM-beads/Images/NewTrialWC.png","highH","28","2","1","2","2","false","","","","","","","","","","","","","","","","",""
"image-keyboard-response","162","234678","0.0-4.0-6.0-1.0-1.28","5d793a152df8ed001645ed7f","63690f60c96a0a9a64b48fbd","6369204213af79662e11fae6","null","","null","","","","","","","","./tasks/HMM-beads/Images/WhiteBeadChoice.png","","","","","","","","","","","","","","","","","","","","","","","",""
"image-keyboard-response","163","235183","0.0-4.0-6.0-1.0-2.28","5d793a152df8ed001645ed7f","63690f60c96a0a9a64b48fbd","6369204213af79662e11fae6","null","","null","","","","","","","","./tasks/HMM-beads/Images/WhiteBeadChoiceWrong.png","","","","","","","","","","","","","","","","","","","","","","","",""
"image-keyboard-response","164","236092","0.0-4.0-6.0-1.0-0.29","5d793a152df8ed001645ed7f","63690f60c96a0a9a64b48fbd","6369204213af79662e11fae6","908","","f","","","","","","","","./tasks/HMM-beads/Images/NewTrialBC.png","highH","29","1","1","1","1","true","","","","","","","","","","","","","","","","",""
"image-keyboard-response","165","236401","0.0-4.0-6.0-1.0-1.29","5d793a152df8ed001645ed7f","63690f60c96a0a9a64b48fbd","6369204213af79662e11fae6","null","","null","","","","","","","","./tasks/HMM-beads/Images/BlackBeadChoice.png","","","","","","","","","","","","","","","","","","","","","","","",""
"image-keyboard-response","166","236925","0.0-4.0-6.0-1.0-2.29","5d793a152df8ed001645ed7f","63690f60c96a0a9a64b48fbd","6369204213af79662e11fae6","null","","null","","","","","","","","./tasks/HMM-beads/Images/BlackBeadChoiceCorrect.png","","","","","","","","","","","","","","","","","","","","","","","",""
"image-keyboard-response","167","237053","0.0-4.0-6.0-1.0-0.30","5d793a152df8ed001645ed7f","63690f60c96a0a9a64b48fbd","6369204213af79662e11fae6","127","","f","","","","","","","","./tasks/HMM-beads/Images/NewTrialBC.png","highH","30","2","1","1","1","true","","","","","","","","","","","","","","","","",""
"image-keyboard-response","168","237359","0.0-4.0-6.0-1.0-1.30","5d793a152df8ed001645ed7f","63690f60c96a0a9a64b48fbd","6369204213af79662e11fae6","null","","null","","","","","","","","./tasks/HMM-beads/Images/BlackBeadChoice.png","","","","","","","","","","","","","","","","","","","","","","","",""
"image-keyboard-response","169","237870","0.0-4.0-6.0-1.0-2.30","5d793a152df8ed001645ed7f","63690f60c96a0a9a64b48fbd","6369204213af79662e11fae6","null","","null","","","","","","","","./tasks/HMM-beads/Images/BlackBeadChoiceCorrect.png","","","","","","","","","","","","","","","","","","","","","","","",""
"image-keyboard-response","170","238297","0.0-4.0-6.0-1.0-0.31","5d793a152df8ed001645ed7f","63690f60c96a0a9a64b48fbd","6369204213af79662e11fae6","427","","f","","","","","","","","./tasks/HMM-beads/Images/NewTrialBC.png","highH","31","1","1","1","1","true","","","","","","","","","","","","","","","","",""
"image-keyboard-response","171","238614","0.0-4.0-6.0-1.0-1.31","5d793a152df8ed001645ed7f","63690f60c96a0a9a64b48fbd","6369204213af79662e11fae6","null","","null","","","","","","","","./tasks/HMM-beads/Images/BlackBeadChoice.png","","","","","","","","","","","","","","","","","","","","","","","",""
"image-keyboard-response","172","239123","0.0-4.0-6.0-1.0-2.31","5d793a152df8ed001645ed7f","63690f60c96a0a9a64b48fbd","6369204213af79662e11fae6","null","","null","","","","","","","","./tasks/HMM-beads/Images/BlackBeadChoiceCorrect.png","","","","","","","","","","","","","","","","","","","","","","","",""
"image-keyboard-response","173","239538","0.0-4.0-6.0-1.0-0.32","5d793a152df8ed001645ed7f","63690f60c96a0a9a64b48fbd","6369204213af79662e11fae6","414","","f","","","","","","","","./tasks/HMM-beads/Images/NewTrialBC.png","highH","32","2","2","1","1","false","","","","","","","","","","","","","","","","",""
"image-keyboard-response","174","239847","0.0-4.0-6.0-1.0-1.32","5d793a152df8ed001645ed7f","63690f60c96a0a9a64b48fbd","6369204213af79662e11fae6","null","","null","","","","","","","","./tasks/HMM-beads/Images/BlackBeadChoice.png","","","","","","","","","","","","","","","","","","","","","","","",""
"image-keyboard-response","175","240354","0.0-4.0-6.0-1.0-2.32","5d793a152df8ed001645ed7f","63690f60c96a0a9a64b48fbd","6369204213af79662e11fae6","null","","null","","","","","","","","./tasks/HMM-beads/Images/BlackBeadChoiceWrong.png","","","","","","","","","","","","","","","","","","","","","","","",""
"image-keyboard-response","176","241247","0.0-4.0-6.0-1.0-0.33","5d793a152df8ed001645ed7f","63690f60c96a0a9a64b48fbd","6369204213af79662e11fae6","891","","j","","","","","","","","./tasks/HMM-beads/Images/NewTrialWC.png","highH","33","1","1","2","2","false","","","","","","","","","","","","","","","","",""
"image-keyboard-response","177","241550","0.0-4.0-6.0-1.0-1.33","5d793a152df8ed001645ed7f","63690f60c96a0a9a64b48fbd","6369204213af79662e11fae6","null","","null","","","","","","","","./tasks/HMM-beads/Images/WhiteBeadChoice.png","","","","","","","","","","","","","","","","","","","","","","","",""
"image-keyboard-response","178","242065","0.0-4.0-6.0-1.0-2.33","5d793a152df8ed001645ed7f","63690f60c96a0a9a64b48fbd","6369204213af79662e11fae6","null","","null","","","","","","","","./tasks/HMM-beads/Images/WhiteBeadChoiceWrong.png","","","","","","","","","","","","","","","","","","","","","","","",""
"image-keyboard-response","179","242541","0.0-4.0-6.0-1.0-0.34","5d793a152df8ed001645ed7f","63690f60c96a0a9a64b48fbd","6369204213af79662e11fae6","475","","f","","","","","","","","./tasks/HMM-beads/Images/NewTrialBC.png","highH","34","2","2","1","1","false","","","","","","","","","","","","","","","","",""
"image-keyboard-response","180","242853","0.0-4.0-6.0-1.0-1.34","5d793a152df8ed001645ed7f","63690f60c96a0a9a64b48fbd","6369204213af79662e11fae6","null","","null","","","","","","","","./tasks/HMM-beads/Images/BlackBeadChoice.png","","","","","","","","","","","","","","","","","","","","","","","",""
"image-keyboard-response","181","243359","0.0-4.0-6.0-1.0-2.34","5d793a152df8ed001645ed7f","63690f60c96a0a9a64b48fbd","6369204213af79662e11fae6","null","","null","","","","","","","","./tasks/HMM-beads/Images/BlackBeadChoiceWrong.png","","","","","","","","","","","","","","","","","","","","","","","",""
"image-keyboard-response","182","243644","0.0-4.0-6.0-1.0-0.35","5d793a152df8ed001645ed7f","63690f60c96a0a9a64b48fbd","6369204213af79662e11fae6","284","","f","","","","","","","","./tasks/HMM-beads/Images/NewTrialWC.png","highH","35","1","1","2","1","true","","","","","","","","","","","","","","","","",""
"image-keyboard-response","183","243961","0.0-4.0-6.0-1.0-1.35","5d793a152df8ed001645ed7f","63690f60c96a0a9a64b48fbd","6369204213af79662e11fae6","null","","null","","","","","","","","./tasks/HMM-beads/Images/BlackBeadChoice.png","","","","","","","","","","","","","","","","","","","","","","","",""
"image-keyboard-response","184","244472","0.0-4.0-6.0-1.0-2.35","5d793a152df8ed001645ed7f","63690f60c96a0a9a64b48fbd","6369204213af79662e11fae6","null","","null","","","","","","","","./tasks/HMM-beads/Images/BlackBeadChoiceCorrect.png","","","","","","","","","","","","","","","","","","","","","","","",""
"image-keyboard-response","185","244719","0.0-4.0-6.0-1.0-0.36","5d793a152df8ed001645ed7f","63690f60c96a0a9a64b48fbd","6369204213af79662e11fae6","246","","f","","","","","","","","./tasks/HMM-beads/Images/NewTrialBC.png","highH","36","2","1","1","1","true","","","","","","","","","","","","","","","","",""
"image-keyboard-response","186","245027","0.0-4.0-6.0-1.0-1.36","5d793a152df8ed001645ed7f","63690f60c96a0a9a64b48fbd","6369204213af79662e11fae6","null","","null","","","","","","","","./tasks/HMM-beads/Images/BlackBeadChoice.png","","","","","","","","","","","","","","","","","","","","","","","",""
"image-keyboard-response","187","245537","0.0-4.0-6.0-1.0-2.36","5d793a152df8ed001645ed7f","63690f60c96a0a9a64b48fbd","6369204213af79662e11fae6","null","","null","","","","","","","","./tasks/HMM-beads/Images/BlackBeadChoiceCorrect.png","","","","","","","","","","","","","","","","","","","","","","","",""
"image-keyboard-response","188","246059","0.0-4.0-6.0-1.0-0.37","5d793a152df8ed001645ed7f","63690f60c96a0a9a64b48fbd","6369204213af79662e11fae6","521","","j","","","","","","","","./tasks/HMM-beads/Images/NewTrialBC.png","highH","37","1","1","1","2","false","","","","","","","","","","","","","","","","",""
"image-keyboard-response","189","246369","0.0-4.0-6.0-1.0-1.37","5d793a152df8ed001645ed7f","63690f60c96a0a9a64b48fbd","6369204213af79662e11fae6","null","","null","","","","","","","","./tasks/HMM-beads/Images/WhiteBeadChoice.png","","","","","","","","","","","","","","","","","","","","","","","",""
"image-keyboard-response","190","246879","0.0-4.0-6.0-1.0-2.37","5d793a152df8ed001645ed7f","63690f60c96a0a9a64b48fbd","6369204213af79662e11fae6","null","","null","","","","","","","","./tasks/HMM-beads/Images/WhiteBeadChoiceWrong.png","","","","","","","","","","","","","","","","","","","","","","","",""
"image-keyboard-response","191","247472","0.0-4.0-6.0-1.0-0.38","5d793a152df8ed001645ed7f","63690f60c96a0a9a64b48fbd","6369204213af79662e11fae6","592","","f","","","","","","","","./tasks/HMM-beads/Images/NewTrialBC.png","highH","38","2","2","1","1","false","","","","","","","","","","","","","","","","",""
"image-keyboard-response","192","247785","0.0-4.0-6.0-1.0-1.38","5d793a152df8ed001645ed7f","63690f60c96a0a9a64b48fbd","6369204213af79662e11fae6","null","","null","","","","","","","","./tasks/HMM-beads/Images/BlackBeadChoice.png","","","","","","","","","","","","","","","","","","","","","","","",""
"image-keyboard-response","193","248298","0.0-4.0-6.0-1.0-2.38","5d793a152df8ed001645ed7f","63690f60c96a0a9a64b48fbd","6369204213af79662e11fae6","null","","null","","","","","","","","./tasks/HMM-beads/Images/BlackBeadChoiceWrong.png","","","","","","","","","","","","","","","","","","","","","","","",""
"image-keyboard-response","194","248443","0.0-4.0-6.0-1.0-0.39","5d793a152df8ed001645ed7f","63690f60c96a0a9a64b48fbd","6369204213af79662e11fae6","144","","f","","","","","","","","./tasks/HMM-beads/Images/NewTrialWC.png","highH","39","1","1","2","1","true","","","","","","","","","","","","","","","","",""
"image-keyboard-response","195","248757","0.0-4.0-6.0-1.0-1.39","5d793a152df8ed001645ed7f","63690f60c96a0a9a64b48fbd","6369204213af79662e11fae6","null","","null","","","","","","","","./tasks/HMM-beads/Images/BlackBeadChoice.png","","","","","","","","","","","","","","","","","","","","","","","",""
"image-keyboard-response","196","249266","0.0-4.0-6.0-1.0-2.39","5d793a152df8ed001645ed7f","63690f60c96a0a9a64b48fbd","6369204213af79662e11fae6","null","","null","","","","","","","","./tasks/HMM-beads/Images/BlackBeadChoiceCorrect.png","","","","","","","","","","","","","","","","","","","","","","","",""
"image-keyboard-response","197","249298","0.0-4.0-6.0-1.0-0.40","5d793a152df8ed001645ed7f","63690f60c96a0a9a64b48fbd","6369204213af79662e11fae6","31","","f","","","","","","","","./tasks/HMM-beads/Images/NewTrialBC.png","highH","40","2","2","1","1","false","","","","","","","","","","","","","","","","",""
"image-keyboard-response","198","249619","0.0-4.0-6.0-1.0-1.40","5d793a152df8ed001645ed7f","63690f60c96a0a9a64b48fbd","6369204213af79662e11fae6","null","","null","","","","","","","","./tasks/HMM-beads/Images/BlackBeadChoice.png","","","","","","","","","","","","","","","","","","","","","","","",""
"image-keyboard-response","199","250133","0.0-4.0-6.0-1.0-2.40","5d793a152df8ed001645ed7f","63690f60c96a0a9a64b48fbd","6369204213af79662e11fae6","null","","null","","","","","","","","./tasks/HMM-beads/Images/BlackBeadChoiceWrong.png","","","","","","","","","","","","","","","","","","","","","","","",""
"image-keyboard-response","200","250143","0.0-4.0-6.0-1.0-0.41","5d793a152df8ed001645ed7f","63690f60c96a0a9a64b48fbd","6369204213af79662e11fae6","8","","f","","","","","","","","./tasks/HMM-beads/Images/NewTrialWC.png","highH","41","1","2","2","1","false","","","","","","","","","","","","","","","","",""
"image-keyboard-response","201","250457","0.0-4.0-6.0-1.0-1.41","5d793a152df8ed001645ed7f","63690f60c96a0a9a64b48fbd","6369204213af79662e11fae6","null","","null","","","","","","","","./tasks/HMM-beads/Images/BlackBeadChoice.png","","","","","","","","","","","","","","","","","","","","","","","",""
"image-keyboard-response","202","250968","0.0-4.0-6.0-1.0-2.41","5d793a152df8ed001645ed7f","63690f60c96a0a9a64b48fbd","6369204213af79662e11fae6","null","","null","","","","","","","","./tasks/HMM-beads/Images/BlackBeadChoiceWrong.png","","","","","","","","","","","","","","","","","","","","","","","",""
"image-keyboard-response","203","251068","0.0-4.0-6.0-1.0-0.42","5d793a152df8ed001645ed7f","63690f60c96a0a9a64b48fbd","6369204213af79662e11fae6","99","","j","","","","","","","","./tasks/HMM-beads/Images/NewTrialWC.png","highH","42","2","2","2","2","true","","","","","","","","","","","","","","","","",""
"image-keyboard-response","204","251385","0.0-4.0-6.0-1.0-1.42","5d793a152df8ed001645ed7f","63690f60c96a0a9a64b48fbd","6369204213af79662e11fae6","null","","null","","","","","","","","./tasks/HMM-beads/Images/WhiteBeadChoice.png","","","","","","","","","","","","","","","","","","","","","","","",""
"image-keyboard-response","205","251897","0.0-4.0-6.0-1.0-2.42","5d793a152df8ed001645ed7f","63690f60c96a0a9a64b48fbd","6369204213af79662e11fae6","null","","null","","","","","","","","./tasks/HMM-beads/Images/WhiteBeadChoiceCorrect.png","","","","","","","","","","","","","","","","","","","","","","","",""
"image-keyboard-response","206","252386","0.0-4.0-6.0-1.0-0.43","5d793a152df8ed001645ed7f","63690f60c96a0a9a64b48fbd","6369204213af79662e11fae6","488","","j","","","","","","","","./tasks/HMM-beads/Images/NewTrialWC.png","highH","43","1","1","2","2","false","","","","","","","","","","","","","","","","",""
"image-keyboard-response","207","252701","0.0-4.0-6.0-1.0-1.43","5d793a152df8ed001645ed7f","63690f60c96a0a9a64b48fbd","6369204213af79662e11fae6","null","","null","","","","","","","","./tasks/HMM-beads/Images/WhiteBeadChoice.png","","","","","","","","","","","","","","","","","","","","","","","",""
"image-keyboard-response","208","253209","0.0-4.0-6.0-1.0-2.43","5d793a152df8ed001645ed7f","63690f60c96a0a9a64b48fbd","6369204213af79662e11fae6","null","","null","","","","","","","","./tasks/HMM-beads/Images/WhiteBeadChoiceWrong.png","","","","","","","","","","","","","","","","","","","","","","","",""
"image-keyboard-response","209","253648","0.0-4.0-6.0-1.0-0.44","5d793a152df8ed001645ed7f","63690f60c96a0a9a64b48fbd","6369204213af79662e11fae6","438","","f","","","","","","","","./tasks/HMM-beads/Images/NewTrialBC.png","highH","44","2","1","1","1","true","","","","","","","","","","","","","","","","",""
"image-keyboard-response","210","253950","0.0-4.0-6.0-1.0-1.44","5d793a152df8ed001645ed7f","63690f60c96a0a9a64b48fbd","6369204213af79662e11fae6","null","","null","","","","","","","","./tasks/HMM-beads/Images/BlackBeadChoice.png","","","","","","","","","","","","","","","","","","","","","","","",""
"image-keyboard-response","211","254463","0.0-4.0-6.0-1.0-2.44","5d793a152df8ed001645ed7f","63690f60c96a0a9a64b48fbd","6369204213af79662e11fae6","null","","null","","","","","","","","./tasks/HMM-beads/Images/BlackBeadChoiceCorrect.png","","","","","","","","","","","","","","","","","","","","","","","",""
"image-keyboard-response","212","254845","0.0-4.0-6.0-1.0-0.45","5d793a152df8ed001645ed7f","63690f60c96a0a9a64b48fbd","6369204213af79662e11fae6","382","","f","","","","","","","","./tasks/HMM-beads/Images/NewTrialBC.png","highH","45","1","1","1","1","true","","","","","","","","","","","","","","","","",""
"image-keyboard-response","213","255163","0.0-4.0-6.0-1.0-1.45","5d793a152df8ed001645ed7f","63690f60c96a0a9a64b48fbd","6369204213af79662e11fae6","null","","null","","","","","","","","./tasks/HMM-beads/Images/BlackBeadChoice.png","","","","","","","","","","","","","","","","","","","","","","","",""
"image-keyboard-response","214","255673","0.0-4.0-6.0-1.0-2.45","5d793a152df8ed001645ed7f","63690f60c96a0a9a64b48fbd","6369204213af79662e11fae6","null","","null","","","","","","","","./tasks/HMM-beads/Images/BlackBeadChoiceCorrect.png","","","","","","","","","","","","","","","","","","","","","","","",""
"image-keyboard-response","215","256097","0.0-4.0-6.0-1.0-0.46","5d793a152df8ed001645ed7f","63690f60c96a0a9a64b48fbd","6369204213af79662e11fae6","423","","f","","","","","","","","./tasks/HMM-beads/Images/NewTrialBC.png","highH","46","2","2","1","1","false","","","","","","","","","","","","","","","","",""
"image-keyboard-response","216","256417","0.0-4.0-6.0-1.0-1.46","5d793a152df8ed001645ed7f","63690f60c96a0a9a64b48fbd","6369204213af79662e11fae6","null","","null","","","","","","","","./tasks/HMM-beads/Images/BlackBeadChoice.png","","","","","","","","","","","","","","","","","","","","","","","",""
"image-keyboard-response","217","256927","0.0-4.0-6.0-1.0-2.46","5d793a152df8ed001645ed7f","63690f60c96a0a9a64b48fbd","6369204213af79662e11fae6","null","","null","","","","","","","","./tasks/HMM-beads/Images/BlackBeadChoiceWrong.png","","","","","","","","","","","","","","","","","","","","","","","",""
"image-keyboard-response","218","257311","0.0-4.0-6.0-1.0-0.47","5d793a152df8ed001645ed7f","63690f60c96a0a9a64b48fbd","6369204213af79662e11fae6","382","","j","","","","","","","","./tasks/HMM-beads/Images/NewTrialWC.png","highH","47","1","1","2","2","false","","","","","","","","","","","","","","","","",""
"image-keyboard-response","219","257621","0.0-4.0-6.0-1.0-1.47","5d793a152df8ed001645ed7f","63690f60c96a0a9a64b48fbd","6369204213af79662e11fae6","null","","null","","","","","","","","./tasks/HMM-beads/Images/WhiteBeadChoice.png","","","","","","","","","","","","","","","","","","","","","","","",""
"image-keyboard-response","220","258132","0.0-4.0-6.0-1.0-2.47","5d793a152df8ed001645ed7f","63690f60c96a0a9a64b48fbd","6369204213af79662e11fae6","null","","null","","","","","","","","./tasks/HMM-beads/Images/WhiteBeadChoiceWrong.png","","","","","","","","","","","","","","","","","","","","","","","",""
"image-keyboard-response","221","258367","0.0-4.0-6.0-1.0-0.48","5d793a152df8ed001645ed7f","63690f60c96a0a9a64b48fbd","6369204213af79662e11fae6","234","","f","","","","","","","","./tasks/HMM-beads/Images/NewTrialBC.png","highH","48","2","2","1","1","false","","","","","","","","","","","","","","","","",""
"image-keyboard-response","222","258673","0.0-4.0-6.0-1.0-1.48","5d793a152df8ed001645ed7f","63690f60c96a0a9a64b48fbd","6369204213af79662e11fae6","null","","null","","","","","","","","./tasks/HMM-beads/Images/BlackBeadChoice.png","","","","","","","","","","","","","","","","","","","","","","","",""
"image-keyboard-response","223","259185","0.0-4.0-6.0-1.0-2.48","5d793a152df8ed001645ed7f","63690f60c96a0a9a64b48fbd","6369204213af79662e11fae6","null","","null","","","","","","","","./tasks/HMM-beads/Images/BlackBeadChoiceWrong.png","","","","","","","","","","","","","","","","","","","","","","","",""
"image-keyboard-response","224","259572","0.0-4.0-6.0-1.0-0.49","5d793a152df8ed001645ed7f","63690f60c96a0a9a64b48fbd","6369204213af79662e11fae6","385","","f","","","","","","","","./tasks/HMM-beads/Images/NewTrialWC.png","highH","49","1","1","2","1","true","","","","","","","","","","","","","","","","",""
"image-keyboard-response","225","259880","0.0-4.0-6.0-1.0-1.49","5d793a152df8ed001645ed7f","63690f60c96a0a9a64b48fbd","6369204213af79662e11fae6","null","","null","","","","","","","","./tasks/HMM-beads/Images/BlackBeadChoice.png","","","","","","","","","","","","","","","","","","","","","","","",""
"image-keyboard-response","226","260403","0.0-4.0-6.0-1.0-2.49","5d793a152df8ed001645ed7f","63690f60c96a0a9a64b48fbd","6369204213af79662e11fae6","null","","null","","","","","","","","./tasks/HMM-beads/Images/BlackBeadChoiceCorrect.png","","","","","","","","","","","","","","","","","","","","","","","",""
"image-keyboard-response","227","260759","0.0-4.0-6.0-1.0-0.50","5d793a152df8ed001645ed7f","63690f60c96a0a9a64b48fbd","6369204213af79662e11fae6","355","","f","","","","","","","","./tasks/HMM-beads/Images/NewTrialBC.png","highH","50","2","1","1","1","true","","","","","","","","","","","","","","","","",""
"image-keyboard-response","228","261066","0.0-4.0-6.0-1.0-1.50","5d793a152df8ed001645ed7f","63690f60c96a0a9a64b48fbd","6369204213af79662e11fae6","null","","null","","","","","","","","./tasks/HMM-beads/Images/BlackBeadChoice.png","","","","","","","","","","","","","","","","","","","","","","","",""
"image-keyboard-response","229","261577","0.0-4.0-6.0-1.0-2.50","5d793a152df8ed001645ed7f","63690f60c96a0a9a64b48fbd","6369204213af79662e11fae6","null","","null","","","","","","","","./tasks/HMM-beads/Images/BlackBeadChoiceCorrect.png","","","","","","","","","","","","","","","","","","","","","","","",""
"image-keyboard-response","230","262002","0.0-4.0-6.0-1.0-0.51","5d793a152df8ed001645ed7f","63690f60c96a0a9a64b48fbd","6369204213af79662e11fae6","424","","j","","","","","","","","./tasks/HMM-beads/Images/NewTrialBC.png","highH","51","1","1","1","2","false","","","","","","","","","","","","","","","","",""
"image-keyboard-response","231","262319","0.0-4.0-6.0-1.0-1.51","5d793a152df8ed001645ed7f","63690f60c96a0a9a64b48fbd","6369204213af79662e11fae6","null","","null","","","","","","","","./tasks/HMM-beads/Images/WhiteBeadChoice.png","","","","","","","","","","","","","","","","","","","","","","","",""
"image-keyboard-response","232","262830","0.0-4.0-6.0-1.0-2.51","5d793a152df8ed001645ed7f","63690f60c96a0a9a64b48fbd","6369204213af79662e11fae6","null","","null","","","","","","","","./tasks/HMM-beads/Images/WhiteBeadChoiceWrong.png","","","","","","","","","","","","","","","","","","","","","","","",""
"image-keyboard-response","233","263142","0.0-4.0-6.0-1.0-0.52","5d793a152df8ed001645ed7f","63690f60c96a0a9a64b48fbd","6369204213af79662e11fae6","311","","f","","","","","","","","./tasks/HMM-beads/Images/NewTrialBC.png","highH","52","2","2","1","1","false","","","","","","","","","","","","","","","","",""
"image-keyboard-response","234","263451","0.0-4.0-6.0-1.0-1.52","5d793a152df8ed001645ed7f","63690f60c96a0a9a64b48fbd","6369204213af79662e11fae6","null","","null","","","","","","","","./tasks/HMM-beads/Images/BlackBeadChoice.png","","","","","","","","","","","","","","","","","","","","","","","",""
"image-keyboard-response","235","263963","0.0-4.0-6.0-1.0-2.52","5d793a152df8ed001645ed7f","63690f60c96a0a9a64b48fbd","6369204213af79662e11fae6","null","","null","","","","","","","","./tasks/HMM-beads/Images/BlackBeadChoiceWrong.png","","","","","","","","","","","","","","","","","","","","","","","",""
"image-keyboard-response","236","264092","0.0-4.0-6.0-1.0-0.53","5d793a152df8ed001645ed7f","63690f60c96a0a9a64b48fbd","6369204213af79662e11fae6","128","","f","","","","","","","","./tasks/HMM-beads/Images/NewTrialWC.png","highH","53","1","1","2","1","true","","","","","","","","","","","","","","","","",""
"image-keyboard-response","237","264398","0.0-4.0-6.0-1.0-1.53","5d793a152df8ed001645ed7f","63690f60c96a0a9a64b48fbd","6369204213af79662e11fae6","null","","null","","","","","","","","./tasks/HMM-beads/Images/BlackBeadChoice.png","","","","","","","","","","","","","","","","","","","","","","","",""
"image-keyboard-response","238","264908","0.0-4.0-6.0-1.0-2.53","5d793a152df8ed001645ed7f","63690f60c96a0a9a64b48fbd","6369204213af79662e11fae6","null","","null","","","","","","","","./tasks/HMM-beads/Images/BlackBeadChoiceCorrect.png","","","","","","","","","","","","","","","","","","","","","","","",""
"image-keyboard-response","239","266100","0.0-4.0-6.0-1.0-0.54","5d793a152df8ed001645ed7f","63690f60c96a0a9a64b48fbd","6369204213af79662e11fae6","1191","","f","","","","","","","","./tasks/HMM-beads/Images/NewTrialBC.png","highH","54","2","2","1","1","false","","","","","","","","","","","","","","","","",""
"image-keyboard-response","240","266409","0.0-4.0-6.0-1.0-1.54","5d793a152df8ed001645ed7f","63690f60c96a0a9a64b48fbd","6369204213af79662e11fae6","null","","null","","","","","","","","./tasks/HMM-beads/Images/BlackBeadChoice.png","","","","","","","","","","","","","","","","","","","","","","","",""
"image-keyboard-response","241","266933","0.0-4.0-6.0-1.0-2.54","5d793a152df8ed001645ed7f","63690f60c96a0a9a64b48fbd","6369204213af79662e11fae6","null","","null","","","","","","","","./tasks/HMM-beads/Images/BlackBeadChoiceWrong.png","","","","","","","","","","","","","","","","","","","","","","","",""
"image-keyboard-response","242","267458","0.0-4.0-6.0-1.0-0.55","5d793a152df8ed001645ed7f","63690f60c96a0a9a64b48fbd","6369204213af79662e11fae6","524","","j","","","","","","","","./tasks/HMM-beads/Images/NewTrialWC.png","highH","55","1","1","2","2","false","","","","","","","","","","","","","","","","",""
"image-keyboard-response","243","267770","0.0-4.0-6.0-1.0-1.55","5d793a152df8ed001645ed7f","63690f60c96a0a9a64b48fbd","6369204213af79662e11fae6","null","","null","","","","","","","","./tasks/HMM-beads/Images/WhiteBeadChoice.png","","","","","","","","","","","","","","","","","","","","","","","",""
"image-keyboard-response","244","268280","0.0-4.0-6.0-1.0-2.55","5d793a152df8ed001645ed7f","63690f60c96a0a9a64b48fbd","6369204213af79662e11fae6","null","","null","","","","","","","","./tasks/HMM-beads/Images/WhiteBeadChoiceWrong.png","","","","","","","","","","","","","","","","","","","","","","","",""
"image-keyboard-response","245","268676","0.0-4.0-6.0-1.0-0.56","5d793a152df8ed001645ed7f","63690f60c96a0a9a64b48fbd","6369204213af79662e11fae6","395","","f","","","","","","","","./tasks/HMM-beads/Images/NewTrialBC.png","highH","56","2","2","1","1","false","","","","","","","","","","","","","","","","",""
"image-keyboard-response","246","268990","0.0-4.0-6.0-1.0-1.56","5d793a152df8ed001645ed7f","63690f60c96a0a9a64b48fbd","6369204213af79662e11fae6","null","","null","","","","","","","","./tasks/HMM-beads/Images/BlackBeadChoice.png","","","","","","","","","","","","","","","","","","","","","","","",""
"image-keyboard-response","247","269504","0.0-4.0-6.0-1.0-2.56","5d793a152df8ed001645ed7f","63690f60c96a0a9a64b48fbd","6369204213af79662e11fae6","null","","null","","","","","","","","./tasks/HMM-beads/Images/BlackBeadChoiceWrong.png","","","","","","","","","","","","","","","","","","","","","","","",""
"image-keyboard-response","248","269854","0.0-4.0-6.0-1.0-0.57","5d793a152df8ed001645ed7f","63690f60c96a0a9a64b48fbd","6369204213af79662e11fae6","349","","f","","","","","","","","./tasks/HMM-beads/Images/NewTrialWC.png","highH","57","1","1","2","1","true","","","","","","","","","","","","","","","","",""
"image-keyboard-response","249","270171","0.0-4.0-6.0-1.0-1.57","5d793a152df8ed001645ed7f","63690f60c96a0a9a64b48fbd","6369204213af79662e11fae6","null","","null","","","","","","","","./tasks/HMM-beads/Images/BlackBeadChoice.png","","","","","","","","","","","","","","","","","","","","","","","",""
"image-keyboard-response","250","270679","0.0-4.0-6.0-1.0-2.57","5d793a152df8ed001645ed7f","63690f60c96a0a9a64b48fbd","6369204213af79662e11fae6","null","","null","","","","","","","","./tasks/HMM-beads/Images/BlackBeadChoiceCorrect.png","","","","","","","","","","","","","","","","","","","","","","","",""
"image-keyboard-response","251","271491","0.0-4.0-6.0-1.0-0.58","5d793a152df8ed001645ed7f","63690f60c96a0a9a64b48fbd","6369204213af79662e11fae6","811","","f","","","","","","","","./tasks/HMM-beads/Images/NewTrialBC.png","highH","58","2","2","1","1","false","","","","","","","","","","","","","","","","",""
"image-keyboard-response","252","271803","0.0-4.0-6.0-1.0-1.58","5d793a152df8ed001645ed7f","63690f60c96a0a9a64b48fbd","6369204213af79662e11fae6","null","","null","","","","","","","","./tasks/HMM-beads/Images/BlackBeadChoice.png","","","","","","","","","","","","","","","","","","","","","","","",""
"image-keyboard-response","253","272316","0.0-4.0-6.0-1.0-2.58","5d793a152df8ed001645ed7f","63690f60c96a0a9a64b48fbd","6369204213af79662e11fae6","null","","null","","","","","","","","./tasks/HMM-beads/Images/BlackBeadChoiceWrong.png","","","","","","","","","","","","","","","","","","","","","","","",""
"image-keyboard-response","254","272499","0.0-4.0-6.0-1.0-0.59","5d793a152df8ed001645ed7f","63690f60c96a0a9a64b48fbd","6369204213af79662e11fae6","183","","f","","","","","","","","./tasks/HMM-beads/Images/NewTrialWC.png","highH","59","1","1","2","1","true","","","","","","","","","","","","","","","","",""
"image-keyboard-response","255","272808","0.0-4.0-6.0-1.0-1.59","5d793a152df8ed001645ed7f","63690f60c96a0a9a64b48fbd","6369204213af79662e11fae6","null","","null","","","","","","","","./tasks/HMM-beads/Images/BlackBeadChoice.png","","","","","","","","","","","","","","","","","","","","","","","",""
"image-keyboard-response","256","273316","0.0-4.0-6.0-1.0-2.59","5d793a152df8ed001645ed7f","63690f60c96a0a9a64b48fbd","6369204213af79662e11fae6","null","","null","","","","","","","","./tasks/HMM-beads/Images/BlackBeadChoiceCorrect.png","","","","","","","","","","","","","","","","","","","","","","","",""
"image-keyboard-response","257","273754","0.0-4.0-6.0-1.0-0.60","5d793a152df8ed001645ed7f","63690f60c96a0a9a64b48fbd","6369204213af79662e11fae6","437","","j","","","","","","","","./tasks/HMM-beads/Images/NewTrialBC.png","highH","60","2","2","1","2","true","","","","","","","","","","","","","","","","",""
"image-keyboard-response","258","274075","0.0-4.0-6.0-1.0-1.60","5d793a152df8ed001645ed7f","63690f60c96a0a9a64b48fbd","6369204213af79662e11fae6","null","","null","","","","","","","","./tasks/HMM-beads/Images/WhiteBeadChoice.png","","","","","","","","","","","","","","","","","","","","","","","",""
"image-keyboard-response","259","274583","0.0-4.0-6.0-1.0-2.60","5d793a152df8ed001645ed7f","63690f60c96a0a9a64b48fbd","6369204213af79662e11fae6","null","","null","","","","","","","","./tasks/HMM-beads/Images/WhiteBeadChoiceCorrect.png","","","","","","","","","","","","","","","","","","","","","","","",""
"image-keyboard-response","260","274822","0.0-4.0-6.0-1.0-0.61","5d793a152df8ed001645ed7f","63690f60c96a0a9a64b48fbd","6369204213af79662e11fae6","238","","f","","","","","","","","./tasks/HMM-beads/Images/NewTrialWC.png","highH","61","1","2","2","1","false","","","","","","","","","","","","","","","","",""
"image-keyboard-response","261","275141","0.0-4.0-6.0-1.0-1.61","5d793a152df8ed001645ed7f","63690f60c96a0a9a64b48fbd","6369204213af79662e11fae6","null","","null","","","","","","","","./tasks/HMM-beads/Images/BlackBeadChoice.png","","","","","","","","","","","","","","","","","","","","","","","",""
"image-keyboard-response","262","275654","0.0-4.0-6.0-1.0-2.61","5d793a152df8ed001645ed7f","63690f60c96a0a9a64b48fbd","6369204213af79662e11fae6","null","","null","","","","","","","","./tasks/HMM-beads/Images/BlackBeadChoiceWrong.png","","","","","","","","","","","","","","","","","","","","","","","",""
"image-keyboard-response","263","275966","0.0-4.0-6.0-1.0-0.62","5d793a152df8ed001645ed7f","63690f60c96a0a9a64b48fbd","6369204213af79662e11fae6","311","","j","","","","","","","","./tasks/HMM-beads/Images/NewTrialWC.png","highH","62","2","2","2","2","true","","","","","","","","","","","","","","","","",""
"image-keyboard-response","264","276272","0.0-4.0-6.0-1.0-1.62","5d793a152df8ed001645ed7f","63690f60c96a0a9a64b48fbd","6369204213af79662e11fae6","null","","null","","","","","","","","./tasks/HMM-beads/Images/WhiteBeadChoice.png","","","","","","","","","","","","","","","","","","","","","","","",""
"image-keyboard-response","265","276796","0.0-4.0-6.0-1.0-2.62","5d793a152df8ed001645ed7f","63690f60c96a0a9a64b48fbd","6369204213af79662e11fae6","null","","null","","","","","","","","./tasks/HMM-beads/Images/WhiteBeadChoiceCorrect.png","","","","","","","","","","","","","","","","","","","","","","","",""
"image-keyboard-response","266","277073","0.0-4.0-6.0-1.0-0.63","5d793a152df8ed001645ed7f","63690f60c96a0a9a64b48fbd","6369204213af79662e11fae6","276","","j","","","","","","","","./tasks/HMM-beads/Images/NewTrialWC.png","highH","63","1","1","2","2","false","","","","","","","","","","","","","","","","",""
"image-keyboard-response","267","277385","0.0-4.0-6.0-1.0-1.63","5d793a152df8ed001645ed7f","63690f60c96a0a9a64b48fbd","6369204213af79662e11fae6","null","","null","","","","","","","","./tasks/HMM-beads/Images/WhiteBeadChoice.png","","","","","","","","","","","","","","","","","","","","","","","",""
"image-keyboard-response","268","277896","0.0-4.0-6.0-1.0-2.63","5d793a152df8ed001645ed7f","63690f60c96a0a9a64b48fbd","6369204213af79662e11fae6","null","","null","","","","","","","","./tasks/HMM-beads/Images/WhiteBeadChoiceWrong.png","","","","","","","","","","","","","","","","","","","","","","","",""
"image-keyboard-response","269","278113","0.0-4.0-6.0-1.0-0.64","5d793a152df8ed001645ed7f","63690f60c96a0a9a64b48fbd","6369204213af79662e11fae6","216","","f","","","","","","","","./tasks/HMM-beads/Images/NewTrialBC.png","highH","64","2","2","1","1","false","","","","","","","","","","","","","","","","",""
"image-keyboard-response","270","278437","0.0-4.0-6.0-1.0-1.64","5d793a152df8ed001645ed7f","63690f60c96a0a9a64b48fbd","6369204213af79662e11fae6","null","","null","","","","","","","","./tasks/HMM-beads/Images/BlackBeadChoice.png","","","","","","","","","","","","","","","","","","","","","","","",""
"image-keyboard-response","271","278949","0.0-4.0-6.0-1.0-2.64","5d793a152df8ed001645ed7f","63690f60c96a0a9a64b48fbd","6369204213af79662e11fae6","null","","null","","","","","","","","./tasks/HMM-beads/Images/BlackBeadChoiceWrong.png","","","","","","","","","","","","","","","","","","","","","","","",""
"image-keyboard-response","272","280269","0.0-4.0-6.0-1.0-0.65","5d793a152df8ed001645ed7f","63690f60c96a0a9a64b48fbd","6369204213af79662e11fae6","1319","","f","","","","","","","","./tasks/HMM-beads/Images/NewTrialWC.png","highH","65","1","1","2","1","true","","","","","","","","","","","","","","","","",""
"image-keyboard-response","273","280587","0.0-4.0-6.0-1.0-1.65","5d793a152df8ed001645ed7f","63690f60c96a0a9a64b48fbd","6369204213af79662e11fae6","null","","null","","","","","","","","./tasks/HMM-beads/Images/BlackBeadChoice.png","","","","","","","","","","","","","","","","","","","","","","","",""
"image-keyboard-response","274","281096","0.0-4.0-6.0-1.0-2.65","5d793a152df8ed001645ed7f","63690f60c96a0a9a64b48fbd","6369204213af79662e11fae6","null","","null","","","","","","","","./tasks/HMM-beads/Images/BlackBeadChoiceCorrect.png","","","","","","","","","","","","","","","","","","","","","","","",""
"image-keyboard-response","275","281409","0.0-4.0-6.0-1.0-0.66","5d793a152df8ed001645ed7f","63690f60c96a0a9a64b48fbd","6369204213af79662e11fae6","312","","j","","","","","","","","./tasks/HMM-beads/Images/NewTrialBC.png","highH","66","2","2","1","2","true","","","","","","","","","","","","","","","","",""
"image-keyboard-response","276","281732","0.0-4.0-6.0-1.0-1.66","5d793a152df8ed001645ed7f","63690f60c96a0a9a64b48fbd","6369204213af79662e11fae6","null","","null","","","","","","","","./tasks/HMM-beads/Images/WhiteBeadChoice.png","","","","","","","","","","","","","","","","","","","","","","","",""
"image-keyboard-response","277","282243","0.0-4.0-6.0-1.0-2.66","5d793a152df8ed001645ed7f","63690f60c96a0a9a64b48fbd","6369204213af79662e11fae6","null","","null","","","","","","","","./tasks/HMM-beads/Images/WhiteBeadChoiceCorrect.png","","","","","","","","","","","","","","","","","","","","","","","",""
"image-keyboard-response","278","282495","0.0-4.0-6.0-1.0-0.67","5d793a152df8ed001645ed7f","63690f60c96a0a9a64b48fbd","6369204213af79662e11fae6","244","","f","","","","","","","","./tasks/HMM-beads/Images/NewTrialWC.png","highH","67","1","1","2","1","true","","","","","","","","","","","","","","","","",""
"image-keyboard-response","279","282800","0.0-4.0-6.0-1.0-1.67","5d793a152df8ed001645ed7f","63690f60c96a0a9a64b48fbd","6369204213af79662e11fae6","null","","null","","","","","","","","./tasks/HMM-beads/Images/BlackBeadChoice.png","","","","","","","","","","","","","","","","","","","","","","","",""
"image-keyboard-response","280","283307","0.0-4.0-6.0-1.0-2.67","5d793a152df8ed001645ed7f","63690f60c96a0a9a64b48fbd","6369204213af79662e11fae6","null","","null","","","","","","","","./tasks/HMM-beads/Images/BlackBeadChoiceCorrect.png","","","","","","","","","","","","","","","","","","","","","","","",""
"image-keyboard-response","281","283439","0.0-4.0-6.0-1.0-0.68","5d793a152df8ed001645ed7f","63690f60c96a0a9a64b48fbd","6369204213af79662e11fae6","131","","j","","","","","","","","./tasks/HMM-beads/Images/NewTrialBC.png","highH","68","2","2","1","2","true","","","","","","","","","","","","","","","","",""
"image-keyboard-response","282","283742","0.0-4.0-6.0-1.0-1.68","5d793a152df8ed001645ed7f","63690f60c96a0a9a64b48fbd","6369204213af79662e11fae6","null","","null","","","","","","","","./tasks/HMM-beads/Images/WhiteBeadChoice.png","","","","","","","","","","","","","","","","","","","","","","","",""
"image-keyboard-response","283","284248","0.0-4.0-6.0-1.0-2.68","5d793a152df8ed001645ed7f","63690f60c96a0a9a64b48fbd","6369204213af79662e11fae6","null","","null","","","","","","","","./tasks/HMM-beads/Images/WhiteBeadChoiceCorrect.png","","","","","","","","","","","","","","","","","","","","","","","",""
"image-keyboard-response","284","284377","0.0-4.0-6.0-1.0-0.69","5d793a152df8ed001645ed7f","63690f60c96a0a9a64b48fbd","6369204213af79662e11fae6","128","","f","","","","","","","","./tasks/HMM-beads/Images/NewTrialWC.png","highH","69","1","2","2","1","false","","","","","","","","","","","","","","","","",""
"image-keyboard-response","285","284699","0.0-4.0-6.0-1.0-1.69","5d793a152df8ed001645ed7f","63690f60c96a0a9a64b48fbd","6369204213af79662e11fae6","null","","null","","","","","","","","./tasks/HMM-beads/Images/BlackBeadChoice.png","","","","","","","","","","","","","","","","","","","","","","","",""
"image-keyboard-response","286","285209","0.0-4.0-6.0-1.0-2.69","5d793a152df8ed001645ed7f","63690f60c96a0a9a64b48fbd","6369204213af79662e11fae6","null","","null","","","","","","","","./tasks/HMM-beads/Images/BlackBeadChoiceWrong.png","","","","","","","","","","","","","","","","","","","","","","","",""
"image-keyboard-response","287","285594","0.0-4.0-6.0-1.0-0.70","5d793a152df8ed001645ed7f","63690f60c96a0a9a64b48fbd","6369204213af79662e11fae6","384","","j","","","","","","","","./tasks/HMM-beads/Images/NewTrialWC.png","highH","70","2","2","2","2","true","","","","","","","","","","","","","","","","",""
"image-keyboard-response","288","285917","0.0-4.0-6.0-1.0-1.70","5d793a152df8ed001645ed7f","63690f60c96a0a9a64b48fbd","6369204213af79662e11fae6","null","","null","","","","","","","","./tasks/HMM-beads/Images/WhiteBeadChoice.png","","","","","","","","","","","","","","","","","","","","","","","",""
"image-keyboard-response","289","286426","0.0-4.0-6.0-1.0-2.70","5d793a152df8ed001645ed7f","63690f60c96a0a9a64b48fbd","6369204213af79662e11fae6","null","","null","","","","","","","","./tasks/HMM-beads/Images/WhiteBeadChoiceCorrect.png","","","","","","","","","","","","","","","","","","","","","","","",""
"image-keyboard-response","290","286490","0.0-4.0-6.0-1.0-0.71","5d793a152df8ed001645ed7f","63690f60c96a0a9a64b48fbd","6369204213af79662e11fae6","63","","f","","","","","","","","./tasks/HMM-beads/Images/NewTrialWC.png","highH","71","1","2","2","1","false","","","","","","","","","","","","","","","","",""
"image-keyboard-response","291","286800","0.0-4.0-6.0-1.0-1.71","5d793a152df8ed001645ed7f","63690f60c96a0a9a64b48fbd","6369204213af79662e11fae6","null","","null","","","","","","","","./tasks/HMM-beads/Images/BlackBeadChoice.png","","","","","","","","","","","","","","","","","","","","","","","",""
"image-keyboard-response","292","287308","0.0-4.0-6.0-1.0-2.71","5d793a152df8ed001645ed7f","63690f60c96a0a9a64b48fbd","6369204213af79662e11fae6","null","","null","","","","","","","","./tasks/HMM-beads/Images/BlackBeadChoiceWrong.png","","","","","","","","","","","","","","","","","","","","","","","",""
"image-keyboard-response","293","287474","0.0-4.0-6.0-1.0-0.72","5d793a152df8ed001645ed7f","63690f60c96a0a9a64b48fbd","6369204213af79662e11fae6","165","","j","","","","","","","","./tasks/HMM-beads/Images/NewTrialWC.png","highH","72","2","2","2","2","true","","","","","","","","","","","","","","","","",""
"image-keyboard-response","294","287787","0.0-4.0-6.0-1.0-1.72","5d793a152df8ed001645ed7f","63690f60c96a0a9a64b48fbd","6369204213af79662e11fae6","null","","null","","","","","","","","./tasks/HMM-beads/Images/WhiteBeadChoice.png","","","","","","","","","","","","","","","","","","","","","","","",""
"image-keyboard-response","295","288297","0.0-4.0-6.0-1.0-2.72","5d793a152df8ed001645ed7f","63690f60c96a0a9a64b48fbd","6369204213af79662e11fae6","null","","null","","","","","","","","./tasks/HMM-beads/Images/WhiteBeadChoiceCorrect.png","","","","","","","","","","","","","","","","","","","","","","","",""
"image-keyboard-response","296","288609","0.0-4.0-6.0-1.0-0.73","5d793a152df8ed001645ed7f","63690f60c96a0a9a64b48fbd","6369204213af79662e11fae6","311","","j","","","","","","","","./tasks/HMM-beads/Images/NewTrialWC.png","highH","73","1","1","2","2","false","","","","","","","","","","","","","","","","",""
"image-keyboard-response","297","288918","0.0-4.0-6.0-1.0-1.73","5d793a152df8ed001645ed7f","63690f60c96a0a9a64b48fbd","6369204213af79662e11fae6","null","","null","","","","","","","","./tasks/HMM-beads/Images/WhiteBeadChoice.png","","","","","","","","","","","","","","","","","","","","","","","",""
"image-keyboard-response","298","289427","0.0-4.0-6.0-1.0-2.73","5d793a152df8ed001645ed7f","63690f60c96a0a9a64b48fbd","6369204213af79662e11fae6","null","","null","","","","","","","","./tasks/HMM-beads/Images/WhiteBeadChoiceWrong.png","","","","","","","","","","","","","","","","","","","","","","","",""
"image-keyboard-response","299","289592","0.0-4.0-6.0-1.0-0.74","5d793a152df8ed001645ed7f","63690f60c96a0a9a64b48fbd","6369204213af79662e11fae6","165","","f","","","","","","","","./tasks/HMM-beads/Images/NewTrialBC.png","highH","74","2","2","1","1","false","","","","","","","","","","","","","","","","",""
"image-keyboard-response","300","289903","0.0-4.0-6.0-1.0-1.74","5d793a152df8ed001645ed7f","63690f60c96a0a9a64b48fbd","6369204213af79662e11fae6","null","","null","","","","","","","","./tasks/HMM-beads/Images/BlackBeadChoice.png","","","","","","","","","","","","","","","","","","","","","","","",""
"image-keyboard-response","301","290409","0.0-4.0-6.0-1.0-2.74","5d793a152df8ed001645ed7f","63690f60c96a0a9a64b48fbd","6369204213af79662e11fae6","null","","null","","","","","","","","./tasks/HMM-beads/Images/BlackBeadChoiceWrong.png","","","","","","","","","","","","","","","","","","","","","","","",""
"image-keyboard-response","302","292355","0.0-4.0-6.0-1.0-0.75","5d793a152df8ed001645ed7f","63690f60c96a0a9a64b48fbd","6369204213af79662e11fae6","1938","","f","","","","","","","","./tasks/HMM-beads/Images/NewTrialWC.png","highH","75","1","1","2","1","true","","","","","","","","","","","","","","","","",""
"image-keyboard-response","303","292665","0.0-4.0-6.0-1.0-1.75","5d793a152df8ed001645ed7f","63690f60c96a0a9a64b48fbd","6369204213af79662e11fae6","null","","null","","","","","","","","./tasks/HMM-beads/Images/BlackBeadChoice.png","","","","","","","","","","","","","","","","","","","","","","","",""
"image-keyboard-response","304","293179","0.0-4.0-6.0-1.0-2.75","5d793a152df8ed001645ed7f","63690f60c96a0a9a64b48fbd","6369204213af79662e11fae6","null","","null","","","","","","","","./tasks/HMM-beads/Images/BlackBeadChoiceCorrect.png","","","","","","","","","","","","","","","","","","","","","","","",""
"image-keyboard-response","305","293373","0.0-4.0-6.0-1.0-0.76","5d793a152df8ed001645ed7f","63690f60c96a0a9a64b48fbd","6369204213af79662e11fae6","193","","j","","","","","","","","./tasks/HMM-beads/Images/NewTrialBC.png","highH","76","2","2","1","2","true","","","","","","","","","","","","","","","","",""
"image-keyboard-response","306","293688","0.0-4.0-6.0-1.0-1.76","5d793a152df8ed001645ed7f","63690f60c96a0a9a64b48fbd","6369204213af79662e11fae6","null","","null","","","","","","","","./tasks/HMM-beads/Images/WhiteBeadChoice.png","","","","","","","","","","","","","","","","","","","","","","","",""
"image-keyboard-response","307","294201","0.0-4.0-6.0-1.0-2.76","5d793a152df8ed001645ed7f","63690f60c96a0a9a64b48fbd","6369204213af79662e11fae6","null","","null","","","","","","","","./tasks/HMM-beads/Images/WhiteBeadChoiceCorrect.png","","","","","","","","","","","","","","","","","","","","","","","",""
"image-keyboard-response","308","294335","0.0-4.0-6.0-1.0-0.77","5d793a152df8ed001645ed7f","63690f60c96a0a9a64b48fbd","6369204213af79662e11fae6","132","","f","","","","","","","","./tasks/HMM-beads/Images/NewTrialWC.png","highH","77","1","1","2","1","true","","","","","","","","","","","","","","","","",""
"image-keyboard-response","309","294649","0.0-4.0-6.0-1.0-1.77","5d793a152df8ed001645ed7f","63690f60c96a0a9a64b48fbd","6369204213af79662e11fae6","null","","null","","","","","","","","./tasks/HMM-beads/Images/BlackBeadChoice.png","","","","","","","","","","","","","","","","","","","","","","","",""
"image-keyboard-response","310","295159","0.0-4.0-6.0-1.0-2.77","5d793a152df8ed001645ed7f","63690f60c96a0a9a64b48fbd","6369204213af79662e11fae6","null","","null","","","","","","","","./tasks/HMM-beads/Images/BlackBeadChoiceCorrect.png","","","","","","","","","","","","","","","","","","","","","","","",""
"image-keyboard-response","311","295269","0.0-4.0-6.0-1.0-0.78","5d793a152df8ed001645ed7f","63690f60c96a0a9a64b48fbd","6369204213af79662e11fae6","109","","j","","","","","","","","./tasks/HMM-beads/Images/NewTrialBC.png","highH","78","2","2","1","2","true","","","","","","","","","","","","","","","","",""
"image-keyboard-response","312","295592","0.0-4.0-6.0-1.0-1.78","5d793a152df8ed001645ed7f","63690f60c96a0a9a64b48fbd","6369204213af79662e11fae6","null","","null","","","","","","","","./tasks/HMM-beads/Images/WhiteBeadChoice.png","","","","","","","","","","","","","","","","","","","","","","","",""
"image-keyboard-response","313","296102","0.0-4.0-6.0-1.0-2.78","5d793a152df8ed001645ed7f","63690f60c96a0a9a64b48fbd","6369204213af79662e11fae6","null","","null","","","","","","","","./tasks/HMM-beads/Images/WhiteBeadChoiceCorrect.png","","","","","","","","","","","","","","","","","","","","","","","",""
"image-keyboard-response","314","296462","0.0-4.0-6.0-1.0-0.79","5d793a152df8ed001645ed7f","63690f60c96a0a9a64b48fbd","6369204213af79662e11fae6","358","","f","","","","","","","","./tasks/HMM-beads/Images/NewTrialWC.png","highH","79","1","1","2","1","true","","","","","","","","","","","","","","","","",""
"image-keyboard-response","315","296769","0.0-4.0-6.0-1.0-1.79","5d793a152df8ed001645ed7f","63690f60c96a0a9a64b48fbd","6369204213af79662e11fae6","null","","null","","","","","","","","./tasks/HMM-beads/Images/BlackBeadChoice.png","","","","","","","","","","","","","","","","","","","","","","","",""
"image-keyboard-response","316","297291","0.0-4.0-6.0-1.0-2.79","5d793a152df8ed001645ed7f","63690f60c96a0a9a64b48fbd","6369204213af79662e11fae6","null","","null","","","","","","","","./tasks/HMM-beads/Images/BlackBeadChoiceCorrect.png","","","","","","","","","","","","","","","","","","","","","","","",""
"image-keyboard-response","317","297381","0.0-4.0-6.0-1.0-0.80","5d793a152df8ed001645ed7f","63690f60c96a0a9a64b48fbd","6369204213af79662e11fae6","89","","j","","","","","","","","./tasks/HMM-beads/Images/NewTrialBC.png","highH","80","2","1","1","2","false","","","","","","","","","","","","","","","","",""
"image-keyboard-response","318","297699","0.0-4.0-6.0-1.0-1.80","5d793a152df8ed001645ed7f","63690f60c96a0a9a64b48fbd","6369204213af79662e11fae6","null","","null","","","","","","","","./tasks/HMM-beads/Images/WhiteBeadChoice.png","","","","","","","","","","","","","","","","","","","","","","","",""
"image-keyboard-response","319","298210","0.0-4.0-6.0-1.0-2.80","5d793a152df8ed001645ed7f","63690f60c96a0a9a64b48fbd","6369204213af79662e11fae6","null","","null","","","","","","","","./tasks/HMM-beads/Images/WhiteBeadChoiceWrong.png","","","","","","","","","","","","","","","","","","","","","","","",""
"image-keyboard-response","320","298567","0.0-4.0-6.0-1.0-0.81","5d793a152df8ed001645ed7f","63690f60c96a0a9a64b48fbd","6369204213af79662e11fae6","356","","f","","","","","","","","./tasks/HMM-beads/Images/NewTrialBC.png","highH","81","1","1","1","1","true","","","","","","","","","","","","","","","","",""
"image-keyboard-response","321","298875","0.0-4.0-6.0-1.0-1.81","5d793a152df8ed001645ed7f","63690f60c96a0a9a64b48fbd","6369204213af79662e11fae6","null","","null","","","","","","","","./tasks/HMM-beads/Images/BlackBeadChoice.png","","","","","","","","","","","","","","","","","","","","","","","",""
