"trial_type","trial_index","time_elapsed","internal_node_id","subject_id","study_id","session_id","rt","url","response","question_order","view_history","success","timeout","failed_images","failed_audio","failed_video","stimulus","block","trial_number","jar","bead","previous_bead","choice","correct","highH_score","lowH_score","state","rewarded","state1_action","state2_visited","state1_key","state2_key","state1_rt","state2_rt","two_arm_score_block1","block_num","seq_file","trial_seq_info","two_arm_score_block2","two_arm_score_total","total_bonus"
"pavlovia","0","1496","0.0-0.0","5c26ff27bbcebf0001cc8eeb","63690f60c96a0a9a64b48fbc","6369310158c502a0e48e324d","","","","","","","","","","","","","","","","","","","","","","","","","","","","","","","","","","",""
"external-html","1","9131","0.0-1.0-0.0","5c26ff27bbcebf0001cc8eeb","63690f60c96a0a9a64b48fbc","6369310158c502a0e48e324d","7473","new_consent.html","","","","","","","","","","","","","","","","","","","","","","","","","","","","","","","","",""
"survey-multi-choice","2","127755","0.0-1.0-1.0","5c26ff27bbcebf0001cc8eeb","63690f60c96a0a9a64b48fbc","6369310158c502a0e48e324d","118611","","{""Q0"":""Male"",""Q1"":""White""}","[0,1]","","","","","","","","","","","","","","","","","","","","","","","","","","","","","","",""
"survey-text","3","129667","0.0-1.0-2.0","5c26ff27bbcebf0001cc8eeb","63690f60c96a0a9a64b48fbc","6369310158c502a0e48e324d","1883","","{""Q0"":""34""}","","","","","","","","","","","","","","","","","","","","","","","","","","","","","","","",""
"instructions","4","156821","0.0-2.0","5c26ff27bbcebf0001cc8eeb","63690f60c96a0a9a64b48fbc","6369310158c502a0e48e324d","27050","","","","[{""page_index"":0,""viewing_time"":24435},{""page_index"":1,""viewing_time"":2611}]","","","","","","","","","","","","","","","","","","","","","","","","","","","","","",""
"instructions","5","157451","0.0-3.0","5c26ff27bbcebf0001cc8eeb","63690f60c96a0a9a64b48fbc","6369310158c502a0e48e324d","627","","","","[{""page_index"":0,""viewing_time"":626}]","","","","","","","","","","","","","","","","","","","","","","","","","","","","","",""
"preload","6","160531","0.0-4.0-0.0","5c26ff27bbcebf0001cc8eeb","63690f60c96a0a9a64b48fbc","6369310158c502a0e48e324d","","","","","","true","false","[]","[]","[]","","","","","","","","","","","","","","","","","","","","","","","","",""
"instructions","7","234078","0.0-4.0-1.0","5c26ff27bbcebf0001cc8eeb","63690f60c96a0a9a64b48fbc","6369310158c502a0e48e324d","73545","","","","[{""page_index"":0,""viewing_time"":6752},{""page_index"":1,""viewing_time"":5296},{""page_index"":2,""viewing_time"":2452},{""page_index"":3,""viewing_time"":922},{""page_index"":4,""viewing_time"":3975},{""page_index"":5,""viewing_time"":27906},{""page_index"":6,""viewing_time"":6252},{""page_index"":7,""viewing_time"":5337},{""page_index"":8,""viewing_time"":4451},{""page_index"":9,""viewing_time"":4352},{""page_index"":10,""viewing_time"":4872},{""page_index"":11,""viewing_time"":976}]","","","","","","","","","","","","","","","","","","","","","","","","","","","","","",""
"html-button-response","8","236835","0.0-4.0-2.0-0.0-0.0","5c26ff27bbcebf0001cc8eeb","63690f60c96a0a9a64b48fbc","6369310158c502a0e48e324d","2749","","1","","","","","","","","<div align=center>Your goal is to predict…?<br><br></div>","","","","","","","","","","","","","","","","","","","","","","","",""
"html-button-response","9","242562","0.0-4.0-2.0-1.0-0.0","5c26ff27bbcebf0001cc8eeb","63690f60c96a0a9a64b48fbc","6369310158c502a0e48e324d","3337","","2","","","","","","","","<div align=center>In the jar with mostly white beads, there are ___% white beads and ___% black beads?<br><br></div>","","","","","","","","","","","","","","","","","","","","","","","",""
"html-button-response","10","248714","0.0-4.0-2.0-2.0-0.0","5c26ff27bbcebf0001cc8eeb","63690f60c96a0a9a64b48fbc","6369310158c502a0e48e324d","4113","","0","","","","","","","","<div align=center>When there is a 1% probability that the jars will switch, the next bead will most likely be drawn from the…<br><br></div>","","","","","","","","","","","","","","","","","","","","","","","",""
"html-button-response","11","251485","0.0-4.0-2.0-3.0-0.0","5c26ff27bbcebf0001cc8eeb","63690f60c96a0a9a64b48fbc","6369310158c502a0e48e324d","1691","","1","","","","","","","","<div align=center>When there is a 99% probability that the jars will switch, the next bead will most likely be drawn from the…<br><br></div>","","","","","","","","","","","","","","","","","","","","","","","",""
"instructions","12","253553","0.0-4.0-3.0","5c26ff27bbcebf0001cc8eeb","63690f60c96a0a9a64b48fbc","6369310158c502a0e48e324d","1273","","","","[{""page_index"":0,""viewing_time"":1272}]","","","","","","","","","","","","","","","","","","","","","","","","","","","","","",""
"html-keyboard-response","13","258889","0.0-4.0-4.0-0.0","5c26ff27bbcebf0001cc8eeb","63690f60c96a0a9a64b48fbc","6369310158c502a0e48e324d","5332",""," ","","","","","","","","<div align=center>In this practice block, there will be a <b>10% chance</b> that the jar on the next trial will be different from the jar on the current trial.<br><br></div>","","","","","","","","","","","","","","","","","","","","","","","",""
"image-keyboard-response","14","263732","0.0-4.0-4.0-1.0-0.0","5c26ff27bbcebf0001cc8eeb","63690f60c96a0a9a64b48fbc","6369310158c502a0e48e324d","4832","","f","","","","","","","","./tasks/HMM-beads/Images/NoChoice.png","practice","0","1","1","0","1","true","","","","","","","","","","","","","","","","",""
"image-keyboard-response","15","264038","0.0-4.0-4.0-1.0-1.0","5c26ff27bbcebf0001cc8eeb","63690f60c96a0a9a64b48fbc","6369310158c502a0e48e324d","null","","null","","","","","","","","./tasks/HMM-beads/Images/BlackBeadChoice.png","","","","","","","","","","","","","","","","","","","","","","","",""
"image-keyboard-response","16","264544","0.0-4.0-4.0-1.0-2.0","5c26ff27bbcebf0001cc8eeb","63690f60c96a0a9a64b48fbc","6369310158c502a0e48e324d","null","","null","","","","","","","","./tasks/HMM-beads/Images/BlackBeadChoiceCorrect.png","","","","","","","","","","","","","","","","","","","","","","","",""
"image-keyboard-response","17","265659","0.0-4.0-4.0-1.0-0.1","5c26ff27bbcebf0001cc8eeb","63690f60c96a0a9a64b48fbc","6369310158c502a0e48e324d","1105","","f","","","","","","","","./tasks/HMM-beads/Images/NewTrialBC.png","practice","1","1","1","1","1","true","","","","","","","","","","","","","","","","",""
"image-keyboard-response","18","265965","0.0-4.0-4.0-1.0-1.1","5c26ff27bbcebf0001cc8eeb","63690f60c96a0a9a64b48fbc","6369310158c502a0e48e324d","null","","null","","","","","","","","./tasks/HMM-beads/Images/BlackBeadChoice.png","","","","","","","","","","","","","","","","","","","","","","","",""
"image-keyboard-response","19","266469","0.0-4.0-4.0-1.0-2.1","5c26ff27bbcebf0001cc8eeb","63690f60c96a0a9a64b48fbc","6369310158c502a0e48e324d","null","","null","","","","","","","","./tasks/HMM-beads/Images/BlackBeadChoiceCorrect.png","","","","","","","","","","","","","","","","","","","","","","","",""
"image-keyboard-response","20","267296","0.0-4.0-4.0-1.0-0.2","5c26ff27bbcebf0001cc8eeb","63690f60c96a0a9a64b48fbc","6369310158c502a0e48e324d","822","","f","","","","","","","","./tasks/HMM-beads/Images/NewTrialBC.png","practice","2","1","2","1","1","false","","","","","","","","","","","","","","","","",""
"image-keyboard-response","21","267601","0.0-4.0-4.0-1.0-1.2","5c26ff27bbcebf0001cc8eeb","63690f60c96a0a9a64b48fbc","6369310158c502a0e48e324d","null","","null","","","","","","","","./tasks/HMM-beads/Images/BlackBeadChoice.png","","","","","","","","","","","","","","","","","","","","","","","",""
"image-keyboard-response","22","268106","0.0-4.0-4.0-1.0-2.2","5c26ff27bbcebf0001cc8eeb","63690f60c96a0a9a64b48fbc","6369310158c502a0e48e324d","null","","null","","","","","","","","./tasks/HMM-beads/Images/BlackBeadChoiceWrong.png","","","","","","","","","","","","","","","","","","","","","","","",""
"image-keyboard-response","23","268964","0.0-4.0-4.0-1.0-0.3","5c26ff27bbcebf0001cc8eeb","63690f60c96a0a9a64b48fbc","6369310158c502a0e48e324d","852","","f","","","","","","","","./tasks/HMM-beads/Images/NewTrialWC.png","practice","3","1","1","2","1","true","","","","","","","","","","","","","","","","",""
"image-keyboard-response","24","269268","0.0-4.0-4.0-1.0-1.3","5c26ff27bbcebf0001cc8eeb","63690f60c96a0a9a64b48fbc","6369310158c502a0e48e324d","null","","null","","","","","","","","./tasks/HMM-beads/Images/BlackBeadChoice.png","","","","","","","","","","","","","","","","","","","","","","","",""
"image-keyboard-response","25","269773","0.0-4.0-4.0-1.0-2.3","5c26ff27bbcebf0001cc8eeb","63690f60c96a0a9a64b48fbc","6369310158c502a0e48e324d","null","","null","","","","","","","","./tasks/HMM-beads/Images/BlackBeadChoiceCorrect.png","","","","","","","","","","","","","","","","","","","","","","","",""
"image-keyboard-response","26","270948","0.0-4.0-4.0-1.0-0.4","5c26ff27bbcebf0001cc8eeb","63690f60c96a0a9a64b48fbc","6369310158c502a0e48e324d","1150","","f","","","","","","","","./tasks/HMM-beads/Images/NewTrialBC.png","practice","4","1","2","1","1","false","","","","","","","","","","","","","","","","",""
"image-keyboard-response","27","271253","0.0-4.0-4.0-1.0-1.4","5c26ff27bbcebf0001cc8eeb","63690f60c96a0a9a64b48fbc","6369310158c502a0e48e324d","null","","null","","","","","","","","./tasks/HMM-beads/Images/BlackBeadChoice.png","","","","","","","","","","","","","","","","","","","","","","","",""
"image-keyboard-response","28","271758","0.0-4.0-4.0-1.0-2.4","5c26ff27bbcebf0001cc8eeb","63690f60c96a0a9a64b48fbc","6369310158c502a0e48e324d","null","","null","","","","","","","","./tasks/HMM-beads/Images/BlackBeadChoiceWrong.png","","","","","","","","","","","","","","","","","","","","","","","",""
"image-keyboard-response","29","272641","0.0-4.0-4.0-1.0-0.5","5c26ff27bbcebf0001cc8eeb","63690f60c96a0a9a64b48fbc","6369310158c502a0e48e324d","879","","j","","","","","","","","./tasks/HMM-beads/Images/NewTrialWC.png","practice","5","1","1","2","2","false","","","","","","","","","","","","","","","","",""
"image-keyboard-response","30","272945","0.0-4.0-4.0-1.0-1.5","5c26ff27bbcebf0001cc8eeb","63690f60c96a0a9a64b48fbc","6369310158c502a0e48e324d","null","","null","","","","","","","","./tasks/HMM-beads/Images/WhiteBeadChoice.png","","","","","","","","","","","","","","","","","","","","","","","",""
"image-keyboard-response","31","273450","0.0-4.0-4.0-1.0-2.5","5c26ff27bbcebf0001cc8eeb","63690f60c96a0a9a64b48fbc","6369310158c502a0e48e324d","null","","null","","","","","","","","./tasks/HMM-beads/Images/WhiteBeadChoiceWrong.png","","","","","","","","","","","","","","","","","","","","","","","",""
"image-keyboard-response","32","273952","0.0-4.0-4.0-1.0-0.6","5c26ff27bbcebf0001cc8eeb","63690f60c96a0a9a64b48fbc","6369310158c502a0e48e324d","497","","f","","","","","","","","./tasks/HMM-beads/Images/NewTrialBC.png","practice","6","1","2","1","1","false","","","","","","","","","","","","","","","","",""
"image-keyboard-response","33","274256","0.0-4.0-4.0-1.0-1.6","5c26ff27bbcebf0001cc8eeb","63690f60c96a0a9a64b48fbc","6369310158c502a0e48e324d","null","","null","","","","","","","","./tasks/HMM-beads/Images/BlackBeadChoice.png","","","","","","","","","","","","","","","","","","","","","","","",""
"image-keyboard-response","34","274760","0.0-4.0-4.0-1.0-2.6","5c26ff27bbcebf0001cc8eeb","63690f60c96a0a9a64b48fbc","6369310158c502a0e48e324d","null","","null","","","","","","","","./tasks/HMM-beads/Images/BlackBeadChoiceWrong.png","","","","","","","","","","","","","","","","","","","","","","","",""
"image-keyboard-response","35","275192","0.0-4.0-4.0-1.0-0.7","5c26ff27bbcebf0001cc8eeb","63690f60c96a0a9a64b48fbc","6369310158c502a0e48e324d","399","","j","","","","","","","","./tasks/HMM-beads/Images/NewTrialWC.png","practice","7","1","1","2","2","false","","","","","","","","","","","","","","","","",""
"image-keyboard-response","36","275496","0.0-4.0-4.0-1.0-1.7","5c26ff27bbcebf0001cc8eeb","63690f60c96a0a9a64b48fbc","6369310158c502a0e48e324d","null","","null","","","","","","","","./tasks/HMM-beads/Images/WhiteBeadChoice.png","","","","","","","","","","","","","","","","","","","","","","","",""
"image-keyboard-response","37","276001","0.0-4.0-4.0-1.0-2.7","5c26ff27bbcebf0001cc8eeb","63690f60c96a0a9a64b48fbc","6369310158c502a0e48e324d","null","","null","","","","","","","","./tasks/HMM-beads/Images/WhiteBeadChoiceWrong.png","","","","","","","","","","","","","","","","","","","","","","","",""
"image-keyboard-response","38","276331","0.0-4.0-4.0-1.0-0.8","5c26ff27bbcebf0001cc8eeb","63690f60c96a0a9a64b48fbc","6369310158c502a0e48e324d","326","","f","","","","","","","","./tasks/HMM-beads/Images/NewTrialBC.png","practice","8","1","1","1","1","true","","","","","","","","","","","","","","","","",""
"image-keyboard-response","39","276635","0.0-4.0-4.0-1.0-1.8","5c26ff27bbcebf0001cc8eeb","63690f60c96a0a9a64b48fbc","6369310158c502a0e48e324d","null","","null","","","","","","","","./tasks/HMM-beads/Images/BlackBeadChoice.png","","","","","","","","","","","","","","","","","","","","","","","",""
"image-keyboard-response","40","277139","0.0-4.0-4.0-1.0-2.8","5c26ff27bbcebf0001cc8eeb","63690f60c96a0a9a64b48fbc","6369310158c502a0e48e324d","null","","null","","","","","","","","./tasks/HMM-beads/Images/BlackBeadChoiceCorrect.png","","","","","","","","","","","","","","","","","","","","","","","",""
"image-keyboard-response","41","277554","0.0-4.0-4.0-1.0-0.9","5c26ff27bbcebf0001cc8eeb","63690f60c96a0a9a64b48fbc","6369310158c502a0e48e324d","410","","f","","","","","","","","./tasks/HMM-beads/Images/NewTrialBC.png","practice","9","2","2","1","1","false","","","","","","","","","","","","","","","","",""
"image-keyboard-response","42","277859","0.0-4.0-4.0-1.0-1.9","5c26ff27bbcebf0001cc8eeb","63690f60c96a0a9a64b48fbc","6369310158c502a0e48e324d","null","","null","","","","","","","","./tasks/HMM-beads/Images/BlackBeadChoice.png","","","","","","","","","","","","","","","","","","","","","","","",""
"image-keyboard-response","43","278366","0.0-4.0-4.0-1.0-2.9","5c26ff27bbcebf0001cc8eeb","63690f60c96a0a9a64b48fbc","6369310158c502a0e48e324d","null","","null","","","","","","","","./tasks/HMM-beads/Images/BlackBeadChoiceWrong.png","","","","","","","","","","","","","","","","","","","","","","","",""
"image-keyboard-response","44","280829","0.0-4.0-4.0-1.0-0.10","5c26ff27bbcebf0001cc8eeb","63690f60c96a0a9a64b48fbc","6369310158c502a0e48e324d","2460","","f","","","","","","","","./tasks/HMM-beads/Images/NewTrialWC.png","practice","10","2","1","2","1","true","","","","","","","","","","","","","","","","",""
"image-keyboard-response","45","281134","0.0-4.0-4.0-1.0-1.10","5c26ff27bbcebf0001cc8eeb","63690f60c96a0a9a64b48fbc","6369310158c502a0e48e324d","null","","null","","","","","","","","./tasks/HMM-beads/Images/BlackBeadChoice.png","","","","","","","","","","","","","","","","","","","","","","","",""
"image-keyboard-response","46","281640","0.0-4.0-4.0-1.0-2.10","5c26ff27bbcebf0001cc8eeb","63690f60c96a0a9a64b48fbc","6369310158c502a0e48e324d","null","","null","","","","","","","","./tasks/HMM-beads/Images/BlackBeadChoiceCorrect.png","","","","","","","","","","","","","","","","","","","","","","","",""
"image-keyboard-response","47","282144","0.0-4.0-4.0-1.0-0.11","5c26ff27bbcebf0001cc8eeb","63690f60c96a0a9a64b48fbc","6369310158c502a0e48e324d","501","","j","","","","","","","","./tasks/HMM-beads/Images/NewTrialBC.png","practice","11","2","2","1","2","true","","","","","","","","","","","","","","","","",""
"image-keyboard-response","48","282448","0.0-4.0-4.0-1.0-1.11","5c26ff27bbcebf0001cc8eeb","63690f60c96a0a9a64b48fbc","6369310158c502a0e48e324d","null","","null","","","","","","","","./tasks/HMM-beads/Images/WhiteBeadChoice.png","","","","","","","","","","","","","","","","","","","","","","","",""
"image-keyboard-response","49","282952","0.0-4.0-4.0-1.0-2.11","5c26ff27bbcebf0001cc8eeb","63690f60c96a0a9a64b48fbc","6369310158c502a0e48e324d","null","","null","","","","","","","","./tasks/HMM-beads/Images/WhiteBeadChoiceCorrect.png","","","","","","","","","","","","","","","","","","","","","","","",""
"image-keyboard-response","50","285271","0.0-4.0-4.0-1.0-0.12","5c26ff27bbcebf0001cc8eeb","63690f60c96a0a9a64b48fbc","6369310158c502a0e48e324d","2314","","f","","","","","","","","./tasks/HMM-beads/Images/NewTrialWC.png","practice","12","2","2","2","1","false","","","","","","","","","","","","","","","","",""
"image-keyboard-response","51","285575","0.0-4.0-4.0-1.0-1.12","5c26ff27bbcebf0001cc8eeb","63690f60c96a0a9a64b48fbc","6369310158c502a0e48e324d","null","","null","","","","","","","","./tasks/HMM-beads/Images/BlackBeadChoice.png","","","","","","","","","","","","","","","","","","","","","","","",""
"image-keyboard-response","52","286080","0.0-4.0-4.0-1.0-2.12","5c26ff27bbcebf0001cc8eeb","63690f60c96a0a9a64b48fbc","6369310158c502a0e48e324d","null","","null","","","","","","","","./tasks/HMM-beads/Images/BlackBeadChoiceWrong.png","","","","","","","","","","","","","","","","","","","","","","","",""
"image-keyboard-response","53","286465","0.0-4.0-4.0-1.0-0.13","5c26ff27bbcebf0001cc8eeb","63690f60c96a0a9a64b48fbc","6369310158c502a0e48e324d","381","","j","","","","","","","","./tasks/HMM-beads/Images/NewTrialWC.png","practice","13","2","2","2","2","true","","","","","","","","","","","","","","","","",""
"image-keyboard-response","54","286770","0.0-4.0-4.0-1.0-1.13","5c26ff27bbcebf0001cc8eeb","63690f60c96a0a9a64b48fbc","6369310158c502a0e48e324d","null","","null","","","","","","","","./tasks/HMM-beads/Images/WhiteBeadChoice.png","","","","","","","","","","","","","","","","","","","","","","","",""
"image-keyboard-response","55","287274","0.0-4.0-4.0-1.0-2.13","5c26ff27bbcebf0001cc8eeb","63690f60c96a0a9a64b48fbc","6369310158c502a0e48e324d","null","","null","","","","","","","","./tasks/HMM-beads/Images/WhiteBeadChoiceCorrect.png","","","","","","","","","","","","","","","","","","","","","","","",""
"image-keyboard-response","56","287801","0.0-4.0-4.0-1.0-0.14","5c26ff27bbcebf0001cc8eeb","63690f60c96a0a9a64b48fbc","6369310158c502a0e48e324d","523","","j","","","","","","","","./tasks/HMM-beads/Images/NewTrialWC.png","practice","14","2","2","2","2","true","","","","","","","","","","","","","","","","",""
"image-keyboard-response","57","288105","0.0-4.0-4.0-1.0-1.14","5c26ff27bbcebf0001cc8eeb","63690f60c96a0a9a64b48fbc","6369310158c502a0e48e324d","null","","null","","","","","","","","./tasks/HMM-beads/Images/WhiteBeadChoice.png","","","","","","","","","","","","","","","","","","","","","","","",""
"image-keyboard-response","58","288609","0.0-4.0-4.0-1.0-2.14","5c26ff27bbcebf0001cc8eeb","63690f60c96a0a9a64b48fbc","6369310158c502a0e48e324d","null","","null","","","","","","","","./tasks/HMM-beads/Images/WhiteBeadChoiceCorrect.png","","","","","","","","","","","","","","","","","","","","","","","",""
"image-keyboard-response","59","289111","0.0-4.0-4.0-1.0-0.15","5c26ff27bbcebf0001cc8eeb","63690f60c96a0a9a64b48fbc","6369310158c502a0e48e324d","480","","j","","","","","","","","./tasks/HMM-beads/Images/NewTrialWC.png","practice","15","1","1","2","2","false","","","","","","","","","","","","","","","","",""
"image-keyboard-response","60","289417","0.0-4.0-4.0-1.0-1.15","5c26ff27bbcebf0001cc8eeb","63690f60c96a0a9a64b48fbc","6369310158c502a0e48e324d","null","","null","","","","","","","","./tasks/HMM-beads/Images/WhiteBeadChoice.png","","","","","","","","","","","","","","","","","","","","","","","",""
"image-keyboard-response","61","289922","0.0-4.0-4.0-1.0-2.15","5c26ff27bbcebf0001cc8eeb","63690f60c96a0a9a64b48fbc","6369310158c502a0e48e324d","null","","null","","","","","","","","./tasks/HMM-beads/Images/WhiteBeadChoiceWrong.png","","","","","","","","","","","","","","","","","","","","","","","",""
"image-keyboard-response","62","290465","0.0-4.0-4.0-1.0-0.16","5c26ff27bbcebf0001cc8eeb","63690f60c96a0a9a64b48fbc","6369310158c502a0e48e324d","537","","j","","","","","","","","./tasks/HMM-beads/Images/NewTrialBC.png","practice","16","1","2","1","2","true","","","","","","","","","","","","","","","","",""
"image-keyboard-response","63","290768","0.0-4.0-4.0-1.0-1.16","5c26ff27bbcebf0001cc8eeb","63690f60c96a0a9a64b48fbc","6369310158c502a0e48e324d","null","","null","","","","","","","","./tasks/HMM-beads/Images/WhiteBeadChoice.png","","","","","","","","","","","","","","","","","","","","","","","",""
"image-keyboard-response","64","291273","0.0-4.0-4.0-1.0-2.16","5c26ff27bbcebf0001cc8eeb","63690f60c96a0a9a64b48fbc","6369310158c502a0e48e324d","null","","null","","","","","","","","./tasks/HMM-beads/Images/WhiteBeadChoiceCorrect.png","","","","","","","","","","","","","","","","","","","","","","","",""
"image-keyboard-response","65","291809","0.0-4.0-4.0-1.0-0.17","5c26ff27bbcebf0001cc8eeb","63690f60c96a0a9a64b48fbc","6369310158c502a0e48e324d","533","","j","","","","","","","","./tasks/HMM-beads/Images/NewTrialWC.png","practice","17","1","1","2","2","false","","","","","","","","","","","","","","","","",""
"image-keyboard-response","66","292113","0.0-4.0-4.0-1.0-1.17","5c26ff27bbcebf0001cc8eeb","63690f60c96a0a9a64b48fbc","6369310158c502a0e48e324d","null","","null","","","","","","","","./tasks/HMM-beads/Images/WhiteBeadChoice.png","","","","","","","","","","","","","","","","","","","","","","","",""
"image-keyboard-response","67","292617","0.0-4.0-4.0-1.0-2.17","5c26ff27bbcebf0001cc8eeb","63690f60c96a0a9a64b48fbc","6369310158c502a0e48e324d","null","","null","","","","","","","","./tasks/HMM-beads/Images/WhiteBeadChoiceWrong.png","","","","","","","","","","","","","","","","","","","","","","","",""
"image-keyboard-response","68","293643","0.0-4.0-4.0-1.0-0.18","5c26ff27bbcebf0001cc8eeb","63690f60c96a0a9a64b48fbc","6369310158c502a0e48e324d","1022","","j","","","","","","","","./tasks/HMM-beads/Images/NewTrialBC.png","practice","18","1","1","1","2","false","","","","","","","","","","","","","","","","",""
"image-keyboard-response","69","293948","0.0-4.0-4.0-1.0-1.18","5c26ff27bbcebf0001cc8eeb","63690f60c96a0a9a64b48fbc","6369310158c502a0e48e324d","null","","null","","","","","","","","./tasks/HMM-beads/Images/WhiteBeadChoice.png","","","","","","","","","","","","","","","","","","","","","","","",""
"image-keyboard-response","70","294452","0.0-4.0-4.0-1.0-2.18","5c26ff27bbcebf0001cc8eeb","63690f60c96a0a9a64b48fbc","6369310158c502a0e48e324d","null","","null","","","","","","","","./tasks/HMM-beads/Images/WhiteBeadChoiceWrong.png","","","","","","","","","","","","","","","","","","","","","","","",""
"image-keyboard-response","71","294760","0.0-4.0-4.0-1.0-0.19","5c26ff27bbcebf0001cc8eeb","63690f60c96a0a9a64b48fbc","6369310158c502a0e48e324d","304","","f","","","","","","","","./tasks/HMM-beads/Images/NewTrialBC.png","practice","19","1","1","1","1","true","","","","","","","","","","","","","","","","",""
"image-keyboard-response","72","295063","0.0-4.0-4.0-1.0-1.19","5c26ff27bbcebf0001cc8eeb","63690f60c96a0a9a64b48fbc","6369310158c502a0e48e324d","null","","null","","","","","","","","./tasks/HMM-beads/Images/BlackBeadChoice.png","","","","","","","","","","","","","","","","","","","","","","","",""
"image-keyboard-response","73","295568","0.0-4.0-4.0-1.0-2.19","5c26ff27bbcebf0001cc8eeb","63690f60c96a0a9a64b48fbc","6369310158c502a0e48e324d","null","","null","","","","","","","","./tasks/HMM-beads/Images/BlackBeadChoiceCorrect.png","","","","","","","","","","","","","","","","","","","","","","","",""
"html-keyboard-response","74","298306","0.0-4.0-4.0-2.0","5c26ff27bbcebf0001cc8eeb","63690f60c96a0a9a64b48fbc","6369310158c502a0e48e324d","2735",""," ","","","","","","","","","","","","","","","","","","","","","","","","","","","","","","","",""
"instructions","75","309838","0.0-4.0-5.0","5c26ff27bbcebf0001cc8eeb","63690f60c96a0a9a64b48fbc","6369310158c502a0e48e324d","11530","","","","[{""page_index"":0,""viewing_time"":9208},{""page_index"":1,""viewing_time"":2322}]","","","","","","","","","","","","","","","","","","","","","","","","","","","","","",""
"html-keyboard-response","76","313676","0.0-4.0-6.0-0.0","5c26ff27bbcebf0001cc8eeb","63690f60c96a0a9a64b48fbc","6369310158c502a0e48e324d","3834",""," ","","","","","","","","<div align=center>In this block, there will be a <b>99%</b> chance that the jar on the next trial will be different from the jar on the current trial.<br><br></div>","","","","","","","","","","","","","","","","","","","","","","","",""
"image-keyboard-response","77","315973","0.0-4.0-6.0-1.0-0.0","5c26ff27bbcebf0001cc8eeb","63690f60c96a0a9a64b48fbc","6369310158c502a0e48e324d","2294","","j","","","","","","","","./tasks/HMM-beads/Images/NoChoice.png","highH","0","1","1","0","2","false","","","","","","","","","","","","","","","","",""
"image-keyboard-response","78","316277","0.0-4.0-6.0-1.0-1.0","5c26ff27bbcebf0001cc8eeb","63690f60c96a0a9a64b48fbc","6369310158c502a0e48e324d","null","","null","","","","","","","","./tasks/HMM-beads/Images/WhiteBeadChoice.png","","","","","","","","","","","","","","","","","","","","","","","",""
"image-keyboard-response","79","316782","0.0-4.0-6.0-1.0-2.0","5c26ff27bbcebf0001cc8eeb","63690f60c96a0a9a64b48fbc","6369310158c502a0e48e324d","null","","null","","","","","","","","./tasks/HMM-beads/Images/WhiteBeadChoiceWrong.png","","","","","","","","","","","","","","","","","","","","","","","",""
"image-keyboard-response","80","317730","0.0-4.0-6.0-1.0-0.1","5c26ff27bbcebf0001cc8eeb","63690f60c96a0a9a64b48fbc","6369310158c502a0e48e324d","944","","j","","","","","","","","./tasks/HMM-beads/Images/NewTrialBC.png","highH","1","2","2","1","2","true","","","","","","","","","","","","","","","","",""
"image-keyboard-response","81","318036","0.0-4.0-6.0-1.0-1.1","5c26ff27bbcebf0001cc8eeb","63690f60c96a0a9a64b48fbc","6369310158c502a0e48e324d","null","","null","","","","","","","","./tasks/HMM-beads/Images/WhiteBeadChoice.png","","","","","","","","","","","","","","","","","","","","","","","",""
"image-keyboard-response","82","318540","0.0-4.0-6.0-1.0-2.1","5c26ff27bbcebf0001cc8eeb","63690f60c96a0a9a64b48fbc","6369310158c502a0e48e324d","null","","null","","","","","","","","./tasks/HMM-beads/Images/WhiteBeadChoiceCorrect.png","","","","","","","","","","","","","","","","","","","","","","","",""
"image-keyboard-response","83","319077","0.0-4.0-6.0-1.0-0.2","5c26ff27bbcebf0001cc8eeb","63690f60c96a0a9a64b48fbc","6369310158c502a0e48e324d","533","","f","","","","","","","","./tasks/HMM-beads/Images/NewTrialWC.png","highH","2","1","1","2","1","true","","","","","","","","","","","","","","","","",""
"image-keyboard-response","84","319381","0.0-4.0-6.0-1.0-1.2","5c26ff27bbcebf0001cc8eeb","63690f60c96a0a9a64b48fbc","6369310158c502a0e48e324d","null","","null","","","","","","","","./tasks/HMM-beads/Images/BlackBeadChoice.png","","","","","","","","","","","","","","","","","","","","","","","",""
"image-keyboard-response","85","319885","0.0-4.0-6.0-1.0-2.2","5c26ff27bbcebf0001cc8eeb","63690f60c96a0a9a64b48fbc","6369310158c502a0e48e324d","null","","null","","","","","","","","./tasks/HMM-beads/Images/BlackBeadChoiceCorrect.png","","","","","","","","","","","","","","","","","","","","","","","",""
"image-keyboard-response","86","320355","0.0-4.0-6.0-1.0-0.3","5c26ff27bbcebf0001cc8eeb","63690f60c96a0a9a64b48fbc","6369310158c502a0e48e324d","466","","j","","","","","","","","./tasks/HMM-beads/Images/NewTrialBC.png","highH","3","2","2","1","2","true","","","","","","","","","","","","","","","","",""
"image-keyboard-response","87","320696","0.0-4.0-6.0-1.0-1.3","5c26ff27bbcebf0001cc8eeb","63690f60c96a0a9a64b48fbc","6369310158c502a0e48e324d","null","","null","","","","","","","","./tasks/HMM-beads/Images/WhiteBeadChoice.png","","","","","","","","","","","","","","","","","","","","","","","",""
"image-keyboard-response","88","321200","0.0-4.0-6.0-1.0-2.3","5c26ff27bbcebf0001cc8eeb","63690f60c96a0a9a64b48fbc","6369310158c502a0e48e324d","null","","null","","","","","","","","./tasks/HMM-beads/Images/WhiteBeadChoiceCorrect.png","","","","","","","","","","","","","","","","","","","","","","","",""
"image-keyboard-response","89","321732","0.0-4.0-6.0-1.0-0.4","5c26ff27bbcebf0001cc8eeb","63690f60c96a0a9a64b48fbc","6369310158c502a0e48e324d","528","","f","","","","","","","","./tasks/HMM-beads/Images/NewTrialWC.png","highH","4","1","1","2","1","true","","","","","","","","","","","","","","","","",""
"image-keyboard-response","90","322038","0.0-4.0-6.0-1.0-1.4","5c26ff27bbcebf0001cc8eeb","63690f60c96a0a9a64b48fbc","6369310158c502a0e48e324d","null","","null","","","","","","","","./tasks/HMM-beads/Images/BlackBeadChoice.png","","","","","","","","","","","","","","","","","","","","","","","",""
"image-keyboard-response","91","322543","0.0-4.0-6.0-1.0-2.4","5c26ff27bbcebf0001cc8eeb","63690f60c96a0a9a64b48fbc","6369310158c502a0e48e324d","null","","null","","","","","","","","./tasks/HMM-beads/Images/BlackBeadChoiceCorrect.png","","","","","","","","","","","","","","","","","","","","","","","",""
"image-keyboard-response","92","323203","0.0-4.0-6.0-1.0-0.5","5c26ff27bbcebf0001cc8eeb","63690f60c96a0a9a64b48fbc","6369310158c502a0e48e324d","656","","j","","","","","","","","./tasks/HMM-beads/Images/NewTrialBC.png","highH","5","2","2","1","2","true","","","","","","","","","","","","","","","","",""
"image-keyboard-response","93","323508","0.0-4.0-6.0-1.0-1.5","5c26ff27bbcebf0001cc8eeb","63690f60c96a0a9a64b48fbc","6369310158c502a0e48e324d","null","","null","","","","","","","","./tasks/HMM-beads/Images/WhiteBeadChoice.png","","","","","","","","","","","","","","","","","","","","","","","",""
"image-keyboard-response","94","324012","0.0-4.0-6.0-1.0-2.5","5c26ff27bbcebf0001cc8eeb","63690f60c96a0a9a64b48fbc","6369310158c502a0e48e324d","null","","null","","","","","","","","./tasks/HMM-beads/Images/WhiteBeadChoiceCorrect.png","","","","","","","","","","","","","","","","","","","","","","","",""
"image-keyboard-response","95","324545","0.0-4.0-6.0-1.0-0.6","5c26ff27bbcebf0001cc8eeb","63690f60c96a0a9a64b48fbc","6369310158c502a0e48e324d","530","","f","","","","","","","","./tasks/HMM-beads/Images/NewTrialWC.png","highH","6","1","1","2","1","true","","","","","","","","","","","","","","","","",""
"image-keyboard-response","96","324850","0.0-4.0-6.0-1.0-1.6","5c26ff27bbcebf0001cc8eeb","63690f60c96a0a9a64b48fbc","6369310158c502a0e48e324d","null","","null","","","","","","","","./tasks/HMM-beads/Images/BlackBeadChoice.png","","","","","","","","","","","","","","","","","","","","","","","",""
"image-keyboard-response","97","325354","0.0-4.0-6.0-1.0-2.6","5c26ff27bbcebf0001cc8eeb","63690f60c96a0a9a64b48fbc","6369310158c502a0e48e324d","null","","null","","","","","","","","./tasks/HMM-beads/Images/BlackBeadChoiceCorrect.png","","","","","","","","","","","","","","","","","","","","","","","",""
"image-keyboard-response","98","325904","0.0-4.0-6.0-1.0-0.7","5c26ff27bbcebf0001cc8eeb","63690f60c96a0a9a64b48fbc","6369310158c502a0e48e324d","545","","j","","","","","","","","./tasks/HMM-beads/Images/NewTrialBC.png","highH","7","2","1","1","2","false","","","","","","","","","","","","","","","","",""
"image-keyboard-response","99","326208","0.0-4.0-6.0-1.0-1.7","5c26ff27bbcebf0001cc8eeb","63690f60c96a0a9a64b48fbc","6369310158c502a0e48e324d","null","","null","","","","","","","","./tasks/HMM-beads/Images/WhiteBeadChoice.png","","","","","","","","","","","","","","","","","","","","","","","",""
"image-keyboard-response","100","326740","0.0-4.0-6.0-1.0-2.7","5c26ff27bbcebf0001cc8eeb","63690f60c96a0a9a64b48fbc","6369310158c502a0e48e324d","null","","null","","","","","","","","./tasks/HMM-beads/Images/WhiteBeadChoiceWrong.png","","","","","","","","","","","","","","","","","","","","","","","",""
"image-keyboard-response","101","328330","0.0-4.0-6.0-1.0-0.8","5c26ff27bbcebf0001cc8eeb","63690f60c96a0a9a64b48fbc","6369310158c502a0e48e324d","1585","","j","","","","","","","","./tasks/HMM-beads/Images/NewTrialBC.png","highH","8","1","1","1","2","false","","","","","","","","","","","","","","","","",""
"image-keyboard-response","102","328634","0.0-4.0-6.0-1.0-1.8","5c26ff27bbcebf0001cc8eeb","63690f60c96a0a9a64b48fbc","6369310158c502a0e48e324d","null","","null","","","","","","","","./tasks/HMM-beads/Images/WhiteBeadChoice.png","","","","","","","","","","","","","","","","","","","","","","","",""
"image-keyboard-response","103","329138","0.0-4.0-6.0-1.0-2.8","5c26ff27bbcebf0001cc8eeb","63690f60c96a0a9a64b48fbc","6369310158c502a0e48e324d","null","","null","","","","","","","","./tasks/HMM-beads/Images/WhiteBeadChoiceWrong.png","","","","","","","","","","","","","","","","","","","","","","","",""
"image-keyboard-response","104","329696","0.0-4.0-6.0-1.0-0.9","5c26ff27bbcebf0001cc8eeb","63690f60c96a0a9a64b48fbc","6369310158c502a0e48e324d","554","","j","","","","","","","","./tasks/HMM-beads/Images/NewTrialBC.png","highH","9","2","2","1","2","true","","","","","","","","","","","","","","","","",""
"image-keyboard-response","105","330001","0.0-4.0-6.0-1.0-1.9","5c26ff27bbcebf0001cc8eeb","63690f60c96a0a9a64b48fbc","6369310158c502a0e48e324d","null","","null","","","","","","","","./tasks/HMM-beads/Images/WhiteBeadChoice.png","","","","","","","","","","","","","","","","","","","","","","","",""
"image-keyboard-response","106","330505","0.0-4.0-6.0-1.0-2.9","5c26ff27bbcebf0001cc8eeb","63690f60c96a0a9a64b48fbc","6369310158c502a0e48e324d","null","","null","","","","","","","","./tasks/HMM-beads/Images/WhiteBeadChoiceCorrect.png","","","","","","","","","","","","","","","","","","","","","","","",""
"image-keyboard-response","107","331028","0.0-4.0-6.0-1.0-0.10","5c26ff27bbcebf0001cc8eeb","63690f60c96a0a9a64b48fbc","6369310158c502a0e48e324d","520","","f","","","","","","","","./tasks/HMM-beads/Images/NewTrialWC.png","highH","10","1","1","2","1","true","","","","","","","","","","","","","","","","",""
"image-keyboard-response","108","331331","0.0-4.0-6.0-1.0-1.10","5c26ff27bbcebf0001cc8eeb","63690f60c96a0a9a64b48fbc","6369310158c502a0e48e324d","null","","null","","","","","","","","./tasks/HMM-beads/Images/BlackBeadChoice.png","","","","","","","","","","","","","","","","","","","","","","","",""
"image-keyboard-response","109","331836","0.0-4.0-6.0-1.0-2.10","5c26ff27bbcebf0001cc8eeb","63690f60c96a0a9a64b48fbc","6369310158c502a0e48e324d","null","","null","","","","","","","","./tasks/HMM-beads/Images/BlackBeadChoiceCorrect.png","","","","","","","","","","","","","","","","","","","","","","","",""
"image-keyboard-response","110","333125","0.0-4.0-6.0-1.0-0.11","5c26ff27bbcebf0001cc8eeb","63690f60c96a0a9a64b48fbc","6369310158c502a0e48e324d","1284","","j","","","","","","","","./tasks/HMM-beads/Images/NewTrialBC.png","highH","11","2","2","1","2","true","","","","","","","","","","","","","","","","",""
"image-keyboard-response","111","333429","0.0-4.0-6.0-1.0-1.11","5c26ff27bbcebf0001cc8eeb","63690f60c96a0a9a64b48fbc","6369310158c502a0e48e324d","null","","null","","","","","","","","./tasks/HMM-beads/Images/WhiteBeadChoice.png","","","","","","","","","","","","","","","","","","","","","","","",""
"image-keyboard-response","112","333961","0.0-4.0-6.0-1.0-2.11","5c26ff27bbcebf0001cc8eeb","63690f60c96a0a9a64b48fbc","6369310158c502a0e48e324d","null","","null","","","","","","","","./tasks/HMM-beads/Images/WhiteBeadChoiceCorrect.png","","","","","","","","","","","","","","","","","","","","","","","",""
"image-keyboard-response","113","334538","0.0-4.0-6.0-1.0-0.12","5c26ff27bbcebf0001cc8eeb","63690f60c96a0a9a64b48fbc","6369310158c502a0e48e324d","573","","f","","","","","","","","./tasks/HMM-beads/Images/NewTrialWC.png","highH","12","1","1","2","1","true","","","","","","","","","","","","","","","","",""
"image-keyboard-response","114","334843","0.0-4.0-6.0-1.0-1.12","5c26ff27bbcebf0001cc8eeb","63690f60c96a0a9a64b48fbc","6369310158c502a0e48e324d","null","","null","","","","","","","","./tasks/HMM-beads/Images/BlackBeadChoice.png","","","","","","","","","","","","","","","","","","","","","","","",""
"image-keyboard-response","115","335348","0.0-4.0-6.0-1.0-2.12","5c26ff27bbcebf0001cc8eeb","63690f60c96a0a9a64b48fbc","6369310158c502a0e48e324d","null","","null","","","","","","","","./tasks/HMM-beads/Images/BlackBeadChoiceCorrect.png","","","","","","","","","","","","","","","","","","","","","","","",""
"image-keyboard-response","116","335694","0.0-4.0-6.0-1.0-0.13","5c26ff27bbcebf0001cc8eeb","63690f60c96a0a9a64b48fbc","6369310158c502a0e48e324d","341","","j","","","","","","","","./tasks/HMM-beads/Images/NewTrialBC.png","highH","13","2","1","1","2","false","","","","","","","","","","","","","","","","",""
"image-keyboard-response","117","335999","0.0-4.0-6.0-1.0-1.13","5c26ff27bbcebf0001cc8eeb","63690f60c96a0a9a64b48fbc","6369310158c502a0e48e324d","null","","null","","","","","","","","./tasks/HMM-beads/Images/WhiteBeadChoice.png","","","","","","","","","","","","","","","","","","","","","","","",""
"image-keyboard-response","118","336504","0.0-4.0-6.0-1.0-2.13","5c26ff27bbcebf0001cc8eeb","63690f60c96a0a9a64b48fbc","6369310158c502a0e48e324d","null","","null","","","","","","","","./tasks/HMM-beads/Images/WhiteBeadChoiceWrong.png","","","","","","","","","","","","","","","","","","","","","","","",""
"image-keyboard-response","119","337013","0.0-4.0-6.0-1.0-0.14","5c26ff27bbcebf0001cc8eeb","63690f60c96a0a9a64b48fbc","6369310158c502a0e48e324d","506","","f","","","","","","","","./tasks/HMM-beads/Images/NewTrialBC.png","highH","14","1","2","1","1","false","","","","","","","","","","","","","","","","",""
"image-keyboard-response","120","337317","0.0-4.0-6.0-1.0-1.14","5c26ff27bbcebf0001cc8eeb","63690f60c96a0a9a64b48fbc","6369310158c502a0e48e324d","null","","null","","","","","","","","./tasks/HMM-beads/Images/BlackBeadChoice.png","","","","","","","","","","","","","","","","","","","","","","","",""
"image-keyboard-response","121","337821","0.0-4.0-6.0-1.0-2.14","5c26ff27bbcebf0001cc8eeb","63690f60c96a0a9a64b48fbc","6369310158c502a0e48e324d","null","","null","","","","","","","","./tasks/HMM-beads/Images/BlackBeadChoiceWrong.png","","","","","","","","","","","","","","","","","","","","","","","",""
"image-keyboard-response","122","338412","0.0-4.0-6.0-1.0-0.15","5c26ff27bbcebf0001cc8eeb","63690f60c96a0a9a64b48fbc","6369310158c502a0e48e324d","587","","f","","","","","","","","./tasks/HMM-beads/Images/NewTrialWC.png","highH","15","2","2","2","1","false","","","","","","","","","","","","","","","","",""
"image-keyboard-response","123","338715","0.0-4.0-6.0-1.0-1.15","5c26ff27bbcebf0001cc8eeb","63690f60c96a0a9a64b48fbc","6369310158c502a0e48e324d","null","","null","","","","","","","","./tasks/HMM-beads/Images/BlackBeadChoice.png","","","","","","","","","","","","","","","","","","","","","","","",""
"image-keyboard-response","124","339220","0.0-4.0-6.0-1.0-2.15","5c26ff27bbcebf0001cc8eeb","63690f60c96a0a9a64b48fbc","6369310158c502a0e48e324d","null","","null","","","","","","","","./tasks/HMM-beads/Images/BlackBeadChoiceWrong.png","","","","","","","","","","","","","","","","","","","","","","","",""
"image-keyboard-response","125","339572","0.0-4.0-6.0-1.0-0.16","5c26ff27bbcebf0001cc8eeb","63690f60c96a0a9a64b48fbc","6369310158c502a0e48e324d","308","","f","","","","","","","","./tasks/HMM-beads/Images/NewTrialWC.png","highH","16","1","1","2","1","true","","","","","","","","","","","","","","","","",""
"image-keyboard-response","126","339877","0.0-4.0-6.0-1.0-1.16","5c26ff27bbcebf0001cc8eeb","63690f60c96a0a9a64b48fbc","6369310158c502a0e48e324d","null","","null","","","","","","","","./tasks/HMM-beads/Images/BlackBeadChoice.png","","","","","","","","","","","","","","","","","","","","","","","",""
"image-keyboard-response","127","340381","0.0-4.0-6.0-1.0-2.16","5c26ff27bbcebf0001cc8eeb","63690f60c96a0a9a64b48fbc","6369310158c502a0e48e324d","null","","null","","","","","","","","./tasks/HMM-beads/Images/BlackBeadChoiceCorrect.png","","","","","","","","","","","","","","","","","","","","","","","",""
"image-keyboard-response","128","340776","0.0-4.0-6.0-1.0-0.17","5c26ff27bbcebf0001cc8eeb","63690f60c96a0a9a64b48fbc","6369310158c502a0e48e324d","391","","j","","","","","","","","./tasks/HMM-beads/Images/NewTrialBC.png","highH","17","2","2","1","2","true","","","","","","","","","","","","","","","","",""
"image-keyboard-response","129","341080","0.0-4.0-6.0-1.0-1.17","5c26ff27bbcebf0001cc8eeb","63690f60c96a0a9a64b48fbc","6369310158c502a0e48e324d","null","","null","","","","","","","","./tasks/HMM-beads/Images/WhiteBeadChoice.png","","","","","","","","","","","","","","","","","","","","","","","",""
"image-keyboard-response","130","341584","0.0-4.0-6.0-1.0-2.17","5c26ff27bbcebf0001cc8eeb","63690f60c96a0a9a64b48fbc","6369310158c502a0e48e324d","null","","null","","","","","","","","./tasks/HMM-beads/Images/WhiteBeadChoiceCorrect.png","","","","","","","","","","","","","","","","","","","","","","","",""
"image-keyboard-response","131","341946","0.0-4.0-6.0-1.0-0.18","5c26ff27bbcebf0001cc8eeb","63690f60c96a0a9a64b48fbc","6369310158c502a0e48e324d","358","","f","","","","","","","","./tasks/HMM-beads/Images/NewTrialWC.png","highH","18","1","2","2","1","false","","","","","","","","","","","","","","","","",""
"image-keyboard-response","132","342250","0.0-4.0-6.0-1.0-1.18","5c26ff27bbcebf0001cc8eeb","63690f60c96a0a9a64b48fbc","6369310158c502a0e48e324d","null","","null","","","","","","","","./tasks/HMM-beads/Images/BlackBeadChoice.png","","","","","","","","","","","","","","","","","","","","","","","",""
"image-keyboard-response","133","342755","0.0-4.0-6.0-1.0-2.18","5c26ff27bbcebf0001cc8eeb","63690f60c96a0a9a64b48fbc","6369310158c502a0e48e324d","null","","null","","","","","","","","./tasks/HMM-beads/Images/BlackBeadChoiceWrong.png","","","","","","","","","","","","","","","","","","","","","","","",""
"image-keyboard-response","134","344009","0.0-4.0-6.0-1.0-0.19","5c26ff27bbcebf0001cc8eeb","63690f60c96a0a9a64b48fbc","6369310158c502a0e48e324d","1250","","f","","","","","","","","./tasks/HMM-beads/Images/NewTrialWC.png","highH","19","2","2","2","1","false","","","","","","","","","","","","","","","","",""
"image-keyboard-response","135","344312","0.0-4.0-6.0-1.0-1.19","5c26ff27bbcebf0001cc8eeb","63690f60c96a0a9a64b48fbc","6369310158c502a0e48e324d","null","","null","","","","","","","","./tasks/HMM-beads/Images/BlackBeadChoice.png","","","","","","","","","","","","","","","","","","","","","","","",""
"image-keyboard-response","136","344818","0.0-4.0-6.0-1.0-2.19","5c26ff27bbcebf0001cc8eeb","63690f60c96a0a9a64b48fbc","6369310158c502a0e48e324d","null","","null","","","","","","","","./tasks/HMM-beads/Images/BlackBeadChoiceWrong.png","","","","","","","","","","","","","","","","","","","","","","","",""
"image-keyboard-response","137","345100","0.0-4.0-6.0-1.0-0.20","5c26ff27bbcebf0001cc8eeb","63690f60c96a0a9a64b48fbc","6369310158c502a0e48e324d","256","","f","","","","","","","","./tasks/HMM-beads/Images/NewTrialWC.png","highH","20","1","1","2","1","true","","","","","","","","","","","","","","","","",""
"image-keyboard-response","138","345406","0.0-4.0-6.0-1.0-1.20","5c26ff27bbcebf0001cc8eeb","63690f60c96a0a9a64b48fbc","6369310158c502a0e48e324d","null","","null","","","","","","","","./tasks/HMM-beads/Images/BlackBeadChoice.png","","","","","","","","","","","","","","","","","","","","","","","",""
"image-keyboard-response","139","345910","0.0-4.0-6.0-1.0-2.20","5c26ff27bbcebf0001cc8eeb","63690f60c96a0a9a64b48fbc","6369310158c502a0e48e324d","null","","null","","","","","","","","./tasks/HMM-beads/Images/BlackBeadChoiceCorrect.png","","","","","","","","","","","","","","","","","","","","","","","",""
"image-keyboard-response","140","346335","0.0-4.0-6.0-1.0-0.21","5c26ff27bbcebf0001cc8eeb","63690f60c96a0a9a64b48fbc","6369310158c502a0e48e324d","421","","j","","","","","","","","./tasks/HMM-beads/Images/NewTrialBC.png","highH","21","2","1","1","2","false","","","","","","","","","","","","","","","","",""
"image-keyboard-response","141","346638","0.0-4.0-6.0-1.0-1.21","5c26ff27bbcebf0001cc8eeb","63690f60c96a0a9a64b48fbc","6369310158c502a0e48e324d","null","","null","","","","","","","","./tasks/HMM-beads/Images/WhiteBeadChoice.png","","","","","","","","","","","","","","","","","","","","","","","",""
"image-keyboard-response","142","347142","0.0-4.0-6.0-1.0-2.21","5c26ff27bbcebf0001cc8eeb","63690f60c96a0a9a64b48fbc","6369310158c502a0e48e324d","null","","null","","","","","","","","./tasks/HMM-beads/Images/WhiteBeadChoiceWrong.png","","","","","","","","","","","","","","","","","","","","","","","",""
"image-keyboard-response","143","348964","0.0-4.0-6.0-1.0-0.22","5c26ff27bbcebf0001cc8eeb","63690f60c96a0a9a64b48fbc","6369310158c502a0e48e324d","1817","","j","","","","","","","","./tasks/HMM-beads/Images/NewTrialBC.png","highH","22","1","1","1","2","false","","","","","","","","","","","","","","","","",""
"image-keyboard-response","144","349269","0.0-4.0-6.0-1.0-1.22","5c26ff27bbcebf0001cc8eeb","63690f60c96a0a9a64b48fbc","6369310158c502a0e48e324d","null","","null","","","","","","","","./tasks/HMM-beads/Images/WhiteBeadChoice.png","","","","","","","","","","","","","","","","","","","","","","","",""
"image-keyboard-response","145","349773","0.0-4.0-6.0-1.0-2.22","5c26ff27bbcebf0001cc8eeb","63690f60c96a0a9a64b48fbc","6369310158c502a0e48e324d","null","","null","","","","","","","","./tasks/HMM-beads/Images/WhiteBeadChoiceWrong.png","","","","","","","","","","","","","","","","","","","","","","","",""
"image-keyboard-response","146","350135","0.0-4.0-6.0-1.0-0.23","5c26ff27bbcebf0001cc8eeb","63690f60c96a0a9a64b48fbc","6369310158c502a0e48e324d","357","","j","","","","","","","","./tasks/HMM-beads/Images/NewTrialBC.png","highH","23","2","2","1","2","true","","","","","","","","","","","","","","","","",""
"image-keyboard-response","147","350440","0.0-4.0-6.0-1.0-1.23","5c26ff27bbcebf0001cc8eeb","63690f60c96a0a9a64b48fbc","6369310158c502a0e48e324d","null","","null","","","","","","","","./tasks/HMM-beads/Images/WhiteBeadChoice.png","","","","","","","","","","","","","","","","","","","","","","","",""
"image-keyboard-response","148","350945","0.0-4.0-6.0-1.0-2.23","5c26ff27bbcebf0001cc8eeb","63690f60c96a0a9a64b48fbc","6369310158c502a0e48e324d","null","","null","","","","","","","","./tasks/HMM-beads/Images/WhiteBeadChoiceCorrect.png","","","","","","","","","","","","","","","","","","","","","","","",""
"image-keyboard-response","149","351431","0.0-4.0-6.0-1.0-0.24","5c26ff27bbcebf0001cc8eeb","63690f60c96a0a9a64b48fbc","6369310158c502a0e48e324d","482","","f","","","","","","","","./tasks/HMM-beads/Images/NewTrialWC.png","highH","24","1","1","2","1","true","","","","","","","","","","","","","","","","",""
"image-keyboard-response","150","351778","0.0-4.0-6.0-1.0-1.24","5c26ff27bbcebf0001cc8eeb","63690f60c96a0a9a64b48fbc","6369310158c502a0e48e324d","null","","null","","","","","","","","./tasks/HMM-beads/Images/BlackBeadChoice.png","","","","","","","","","","","","","","","","","","","","","","","",""
"image-keyboard-response","151","352283","0.0-4.0-6.0-1.0-2.24","5c26ff27bbcebf0001cc8eeb","63690f60c96a0a9a64b48fbc","6369310158c502a0e48e324d","null","","null","","","","","","","","./tasks/HMM-beads/Images/BlackBeadChoiceCorrect.png","","","","","","","","","","","","","","","","","","","","","","","",""
"image-keyboard-response","152","352659","0.0-4.0-6.0-1.0-0.25","5c26ff27bbcebf0001cc8eeb","63690f60c96a0a9a64b48fbc","6369310158c502a0e48e324d","372","","j","","","","","","","","./tasks/HMM-beads/Images/NewTrialBC.png","highH","25","2","1","1","2","false","","","","","","","","","","","","","","","","",""
"image-keyboard-response","153","352963","0.0-4.0-6.0-1.0-1.25","5c26ff27bbcebf0001cc8eeb","63690f60c96a0a9a64b48fbc","6369310158c502a0e48e324d","null","","null","","","","","","","","./tasks/HMM-beads/Images/WhiteBeadChoice.png","","","","","","","","","","","","","","","","","","","","","","","",""
"image-keyboard-response","154","353467","0.0-4.0-6.0-1.0-2.25","5c26ff27bbcebf0001cc8eeb","63690f60c96a0a9a64b48fbc","6369310158c502a0e48e324d","null","","null","","","","","","","","./tasks/HMM-beads/Images/WhiteBeadChoiceWrong.png","","","","","","","","","","","","","","","","","","","","","","","",""
"image-keyboard-response","155","354715","0.0-4.0-6.0-1.0-0.26","5c26ff27bbcebf0001cc8eeb","63690f60c96a0a9a64b48fbc","6369310158c502a0e48e324d","1244","","f","","","","","","","","./tasks/HMM-beads/Images/NewTrialBC.png","highH","26","1","1","1","1","true","","","","","","","","","","","","","","","","",""
"image-keyboard-response","156","355019","0.0-4.0-6.0-1.0-1.26","5c26ff27bbcebf0001cc8eeb","63690f60c96a0a9a64b48fbc","6369310158c502a0e48e324d","null","","null","","","","","","","","./tasks/HMM-beads/Images/BlackBeadChoice.png","","","","","","","","","","","","","","","","","","","","","","","",""
"image-keyboard-response","157","355524","0.0-4.0-6.0-1.0-2.26","5c26ff27bbcebf0001cc8eeb","63690f60c96a0a9a64b48fbc","6369310158c502a0e48e324d","null","","null","","","","","","","","./tasks/HMM-beads/Images/BlackBeadChoiceCorrect.png","","","","","","","","","","","","","","","","","","","","","","","",""
"image-keyboard-response","158","355875","0.0-4.0-6.0-1.0-0.27","5c26ff27bbcebf0001cc8eeb","63690f60c96a0a9a64b48fbc","6369310158c502a0e48e324d","348","","j","","","","","","","","./tasks/HMM-beads/Images/NewTrialBC.png","highH","27","2","2","1","2","true","","","","","","","","","","","","","","","","",""
"image-keyboard-response","159","356179","0.0-4.0-6.0-1.0-1.27","5c26ff27bbcebf0001cc8eeb","63690f60c96a0a9a64b48fbc","6369310158c502a0e48e324d","null","","null","","","","","","","","./tasks/HMM-beads/Images/WhiteBeadChoice.png","","","","","","","","","","","","","","","","","","","","","","","",""
"image-keyboard-response","160","356684","0.0-4.0-6.0-1.0-2.27","5c26ff27bbcebf0001cc8eeb","63690f60c96a0a9a64b48fbc","6369310158c502a0e48e324d","null","","null","","","","","","","","./tasks/HMM-beads/Images/WhiteBeadChoiceCorrect.png","","","","","","","","","","","","","","","","","","","","","","","",""
"image-keyboard-response","161","357440","0.0-4.0-6.0-1.0-0.28","5c26ff27bbcebf0001cc8eeb","63690f60c96a0a9a64b48fbc","6369310158c502a0e48e324d","752","","f","","","","","","","","./tasks/HMM-beads/Images/NewTrialWC.png","highH","28","2","1","2","1","true","","","","","","","","","","","","","","","","",""
"image-keyboard-response","162","357763","0.0-4.0-6.0-1.0-1.28","5c26ff27bbcebf0001cc8eeb","63690f60c96a0a9a64b48fbc","6369310158c502a0e48e324d","null","","null","","","","","","","","./tasks/HMM-beads/Images/BlackBeadChoice.png","","","","","","","","","","","","","","","","","","","","","","","",""
"image-keyboard-response","163","358268","0.0-4.0-6.0-1.0-2.28","5c26ff27bbcebf0001cc8eeb","63690f60c96a0a9a64b48fbc","6369310158c502a0e48e324d","null","","null","","","","","","","","./tasks/HMM-beads/Images/BlackBeadChoiceCorrect.png","","","","","","","","","","","","","","","","","","","","","","","",""
"image-keyboard-response","164","358649","0.0-4.0-6.0-1.0-0.29","5c26ff27bbcebf0001cc8eeb","63690f60c96a0a9a64b48fbc","6369310158c502a0e48e324d","377","","f","","","","","","","","./tasks/HMM-beads/Images/NewTrialBC.png","highH","29","1","1","1","1","true","","","","","","","","","","","","","","","","",""
"image-keyboard-response","165","358953","0.0-4.0-6.0-1.0-1.29","5c26ff27bbcebf0001cc8eeb","63690f60c96a0a9a64b48fbc","6369310158c502a0e48e324d","null","","null","","","","","","","","./tasks/HMM-beads/Images/BlackBeadChoice.png","","","","","","","","","","","","","","","","","","","","","","","",""
"image-keyboard-response","166","359458","0.0-4.0-6.0-1.0-2.29","5c26ff27bbcebf0001cc8eeb","63690f60c96a0a9a64b48fbc","6369310158c502a0e48e324d","null","","null","","","","","","","","./tasks/HMM-beads/Images/BlackBeadChoiceCorrect.png","","","","","","","","","","","","","","","","","","","","","","","",""
"image-keyboard-response","167","360021","0.0-4.0-6.0-1.0-0.30","5c26ff27bbcebf0001cc8eeb","63690f60c96a0a9a64b48fbc","6369310158c502a0e48e324d","560","","f","","","","","","","","./tasks/HMM-beads/Images/NewTrialBC.png","highH","30","2","1","1","1","true","","","","","","","","","","","","","","","","",""
"image-keyboard-response","168","360325","0.0-4.0-6.0-1.0-1.30","5c26ff27bbcebf0001cc8eeb","63690f60c96a0a9a64b48fbc","6369310158c502a0e48e324d","null","","null","","","","","","","","./tasks/HMM-beads/Images/BlackBeadChoice.png","","","","","","","","","","","","","","","","","","","","","","","",""
"image-keyboard-response","169","360830","0.0-4.0-6.0-1.0-2.30","5c26ff27bbcebf0001cc8eeb","63690f60c96a0a9a64b48fbc","6369310158c502a0e48e324d","null","","null","","","","","","","","./tasks/HMM-beads/Images/BlackBeadChoiceCorrect.png","","","","","","","","","","","","","","","","","","","","","","","",""
"image-keyboard-response","170","361182","0.0-4.0-6.0-1.0-0.31","5c26ff27bbcebf0001cc8eeb","63690f60c96a0a9a64b48fbc","6369310158c502a0e48e324d","349","","j","","","","","","","","./tasks/HMM-beads/Images/NewTrialBC.png","highH","31","1","1","1","2","false","","","","","","","","","","","","","","","","",""
"image-keyboard-response","171","361486","0.0-4.0-6.0-1.0-1.31","5c26ff27bbcebf0001cc8eeb","63690f60c96a0a9a64b48fbc","6369310158c502a0e48e324d","null","","null","","","","","","","","./tasks/HMM-beads/Images/WhiteBeadChoice.png","","","","","","","","","","","","","","","","","","","","","","","",""
"image-keyboard-response","172","361990","0.0-4.0-6.0-1.0-2.31","5c26ff27bbcebf0001cc8eeb","63690f60c96a0a9a64b48fbc","6369310158c502a0e48e324d","null","","null","","","","","","","","./tasks/HMM-beads/Images/WhiteBeadChoiceWrong.png","","","","","","","","","","","","","","","","","","","","","","","",""
"image-keyboard-response","173","362668","0.0-4.0-6.0-1.0-0.32","5c26ff27bbcebf0001cc8eeb","63690f60c96a0a9a64b48fbc","6369310158c502a0e48e324d","674","","j","","","","","","","","./tasks/HMM-beads/Images/NewTrialBC.png","highH","32","2","2","1","2","true","","","","","","","","","","","","","","","","",""
"image-keyboard-response","174","362971","0.0-4.0-6.0-1.0-1.32","5c26ff27bbcebf0001cc8eeb","63690f60c96a0a9a64b48fbc","6369310158c502a0e48e324d","null","","null","","","","","","","","./tasks/HMM-beads/Images/WhiteBeadChoice.png","","","","","","","","","","","","","","","","","","","","","","","",""
"image-keyboard-response","175","363515","0.0-4.0-6.0-1.0-2.32","5c26ff27bbcebf0001cc8eeb","63690f60c96a0a9a64b48fbc","6369310158c502a0e48e324d","null","","null","","","","","","","","./tasks/HMM-beads/Images/WhiteBeadChoiceCorrect.png","","","","","","","","","","","","","","","","","","","","","","","",""
"image-keyboard-response","176","364060","0.0-4.0-6.0-1.0-0.33","5c26ff27bbcebf0001cc8eeb","63690f60c96a0a9a64b48fbc","6369310158c502a0e48e324d","541","","j","","","","","","","","./tasks/HMM-beads/Images/NewTrialWC.png","highH","33","1","1","2","2","false","","","","","","","","","","","","","","","","",""
"image-keyboard-response","177","364363","0.0-4.0-6.0-1.0-1.33","5c26ff27bbcebf0001cc8eeb","63690f60c96a0a9a64b48fbc","6369310158c502a0e48e324d","null","","null","","","","","","","","./tasks/HMM-beads/Images/WhiteBeadChoice.png","","","","","","","","","","","","","","","","","","","","","","","",""
"image-keyboard-response","178","364868","0.0-4.0-6.0-1.0-2.33","5c26ff27bbcebf0001cc8eeb","63690f60c96a0a9a64b48fbc","6369310158c502a0e48e324d","null","","null","","","","","","","","./tasks/HMM-beads/Images/WhiteBeadChoiceWrong.png","","","","","","","","","","","","","","","","","","","","","","","",""
"image-keyboard-response","179","365624","0.0-4.0-6.0-1.0-0.34","5c26ff27bbcebf0001cc8eeb","63690f60c96a0a9a64b48fbc","6369310158c502a0e48e324d","753","","j","","","","","","","","./tasks/HMM-beads/Images/NewTrialBC.png","highH","34","2","2","1","2","true","","","","","","","","","","","","","","","","",""
"image-keyboard-response","180","365929","0.0-4.0-6.0-1.0-1.34","5c26ff27bbcebf0001cc8eeb","63690f60c96a0a9a64b48fbc","6369310158c502a0e48e324d","null","","null","","","","","","","","./tasks/HMM-beads/Images/WhiteBeadChoice.png","","","","","","","","","","","","","","","","","","","","","","","",""
"image-keyboard-response","181","366432","0.0-4.0-6.0-1.0-2.34","5c26ff27bbcebf0001cc8eeb","63690f60c96a0a9a64b48fbc","6369310158c502a0e48e324d","null","","null","","","","","","","","./tasks/HMM-beads/Images/WhiteBeadChoiceCorrect.png","","","","","","","","","","","","","","","","","","","","","","","",""
"image-keyboard-response","182","366989","0.0-4.0-6.0-1.0-0.35","5c26ff27bbcebf0001cc8eeb","63690f60c96a0a9a64b48fbc","6369310158c502a0e48e324d","552","","f","","","","","","","","./tasks/HMM-beads/Images/NewTrialWC.png","highH","35","1","1","2","1","true","","","","","","","","","","","","","","","","",""
"image-keyboard-response","183","367294","0.0-4.0-6.0-1.0-1.35","5c26ff27bbcebf0001cc8eeb","63690f60c96a0a9a64b48fbc","6369310158c502a0e48e324d","null","","null","","","","","","","","./tasks/HMM-beads/Images/BlackBeadChoice.png","","","","","","","","","","","","","","","","","","","","","","","",""
"image-keyboard-response","184","367799","0.0-4.0-6.0-1.0-2.35","5c26ff27bbcebf0001cc8eeb","63690f60c96a0a9a64b48fbc","6369310158c502a0e48e324d","null","","null","","","","","","","","./tasks/HMM-beads/Images/BlackBeadChoiceCorrect.png","","","","","","","","","","","","","","","","","","","","","","","",""
"image-keyboard-response","185","368375","0.0-4.0-6.0-1.0-0.36","5c26ff27bbcebf0001cc8eeb","63690f60c96a0a9a64b48fbc","6369310158c502a0e48e324d","572","","j","","","","","","","","./tasks/HMM-beads/Images/NewTrialBC.png","highH","36","2","1","1","2","false","","","","","","","","","","","","","","","","",""
"image-keyboard-response","186","368679","0.0-4.0-6.0-1.0-1.36","5c26ff27bbcebf0001cc8eeb","63690f60c96a0a9a64b48fbc","6369310158c502a0e48e324d","null","","null","","","","","","","","./tasks/HMM-beads/Images/WhiteBeadChoice.png","","","","","","","","","","","","","","","","","","","","","","","",""
"image-keyboard-response","187","369185","0.0-4.0-6.0-1.0-2.36","5c26ff27bbcebf0001cc8eeb","63690f60c96a0a9a64b48fbc","6369310158c502a0e48e324d","null","","null","","","","","","","","./tasks/HMM-beads/Images/WhiteBeadChoiceWrong.png","","","","","","","","","","","","","","","","","","","","","","","",""
"image-keyboard-response","188","369597","0.0-4.0-6.0-1.0-0.37","5c26ff27bbcebf0001cc8eeb","63690f60c96a0a9a64b48fbc","6369310158c502a0e48e324d","377","","j","","","","","","","","./tasks/HMM-beads/Images/NewTrialBC.png","highH","37","1","1","1","2","false","","","","","","","","","","","","","","","","",""
"image-keyboard-response","189","369901","0.0-4.0-6.0-1.0-1.37","5c26ff27bbcebf0001cc8eeb","63690f60c96a0a9a64b48fbc","6369310158c502a0e48e324d","null","","null","","","","","","","","./tasks/HMM-beads/Images/WhiteBeadChoice.png","","","","","","","","","","","","","","","","","","","","","","","",""
"image-keyboard-response","190","370405","0.0-4.0-6.0-1.0-2.37","5c26ff27bbcebf0001cc8eeb","63690f60c96a0a9a64b48fbc","6369310158c502a0e48e324d","null","","null","","","","","","","","./tasks/HMM-beads/Images/WhiteBeadChoiceWrong.png","","","","","","","","","","","","","","","","","","","","","","","",""
"image-keyboard-response","191","370718","0.0-4.0-6.0-1.0-0.38","5c26ff27bbcebf0001cc8eeb","63690f60c96a0a9a64b48fbc","6369310158c502a0e48e324d","309","","j","","","","","","","","./tasks/HMM-beads/Images/NewTrialBC.png","highH","38","2","2","1","2","true","","","","","","","","","","","","","","","","",""
"image-keyboard-response","192","371022","0.0-4.0-6.0-1.0-1.38","5c26ff27bbcebf0001cc8eeb","63690f60c96a0a9a64b48fbc","6369310158c502a0e48e324d","null","","null","","","","","","","","./tasks/HMM-beads/Images/WhiteBeadChoice.png","","","","","","","","","","","","","","","","","","","","","","","",""
"image-keyboard-response","193","371526","0.0-4.0-6.0-1.0-2.38","5c26ff27bbcebf0001cc8eeb","63690f60c96a0a9a64b48fbc","6369310158c502a0e48e324d","null","","null","","","","","","","","./tasks/HMM-beads/Images/WhiteBeadChoiceCorrect.png","","","","","","","","","","","","","","","","","","","","","","","",""
"image-keyboard-response","194","371903","0.0-4.0-6.0-1.0-0.39","5c26ff27bbcebf0001cc8eeb","63690f60c96a0a9a64b48fbc","6369310158c502a0e48e324d","373","","f","","","","","","","","./tasks/HMM-beads/Images/NewTrialWC.png","highH","39","1","1","2","1","true","","","","","","","","","","","","","","","","",""
"image-keyboard-response","195","372207","0.0-4.0-6.0-1.0-1.39","5c26ff27bbcebf0001cc8eeb","63690f60c96a0a9a64b48fbc","6369310158c502a0e48e324d","null","","null","","","","","","","","./tasks/HMM-beads/Images/BlackBeadChoice.png","","","","","","","","","","","","","","","","","","","","","","","",""
"image-keyboard-response","196","372712","0.0-4.0-6.0-1.0-2.39","5c26ff27bbcebf0001cc8eeb","63690f60c96a0a9a64b48fbc","6369310158c502a0e48e324d","null","","null","","","","","","","","./tasks/HMM-beads/Images/BlackBeadChoiceCorrect.png","","","","","","","","","","","","","","","","","","","","","","","",""
"image-keyboard-response","197","373164","0.0-4.0-6.0-1.0-0.40","5c26ff27bbcebf0001cc8eeb","63690f60c96a0a9a64b48fbc","6369310158c502a0e48e324d","448","","f","","","","","","","","./tasks/HMM-beads/Images/NewTrialBC.png","highH","40","2","2","1","1","false","","","","","","","","","","","","","","","","",""
"image-keyboard-response","198","373468","0.0-4.0-6.0-1.0-1.40","5c26ff27bbcebf0001cc8eeb","63690f60c96a0a9a64b48fbc","6369310158c502a0e48e324d","null","","null","","","","","","","","./tasks/HMM-beads/Images/BlackBeadChoice.png","","","","","","","","","","","","","","","","","","","","","","","",""
"image-keyboard-response","199","373972","0.0-4.0-6.0-1.0-2.40","5c26ff27bbcebf0001cc8eeb","63690f60c96a0a9a64b48fbc","6369310158c502a0e48e324d","null","","null","","","","","","","","./tasks/HMM-beads/Images/BlackBeadChoiceWrong.png","","","","","","","","","","","","","","","","","","","","","","","",""
"image-keyboard-response","200","374358","0.0-4.0-6.0-1.0-0.41","5c26ff27bbcebf0001cc8eeb","63690f60c96a0a9a64b48fbc","6369310158c502a0e48e324d","345","","f","","","","","","","","./tasks/HMM-beads/Images/NewTrialWC.png","highH","41","1","2","2","1","false","","","","","","","","","","","","","","","","",""
"image-keyboard-response","201","374663","0.0-4.0-6.0-1.0-1.41","5c26ff27bbcebf0001cc8eeb","63690f60c96a0a9a64b48fbc","6369310158c502a0e48e324d","null","","null","","","","","","","","./tasks/HMM-beads/Images/BlackBeadChoice.png","","","","","","","","","","","","","","","","","","","","","","","",""
"image-keyboard-response","202","375167","0.0-4.0-6.0-1.0-2.41","5c26ff27bbcebf0001cc8eeb","63690f60c96a0a9a64b48fbc","6369310158c502a0e48e324d","null","","null","","","","","","","","./tasks/HMM-beads/Images/BlackBeadChoiceWrong.png","","","","","","","","","","","","","","","","","","","","","","","",""
"image-keyboard-response","203","375620","0.0-4.0-6.0-1.0-0.42","5c26ff27bbcebf0001cc8eeb","63690f60c96a0a9a64b48fbc","6369310158c502a0e48e324d","450","","j","","","","","","","","./tasks/HMM-beads/Images/NewTrialWC.png","highH","42","2","2","2","2","true","","","","","","","","","","","","","","","","",""
"image-keyboard-response","204","375924","0.0-4.0-6.0-1.0-1.42","5c26ff27bbcebf0001cc8eeb","63690f60c96a0a9a64b48fbc","6369310158c502a0e48e324d","null","","null","","","","","","","","./tasks/HMM-beads/Images/WhiteBeadChoice.png","","","","","","","","","","","","","","","","","","","","","","","",""
"image-keyboard-response","205","376429","0.0-4.0-6.0-1.0-2.42","5c26ff27bbcebf0001cc8eeb","63690f60c96a0a9a64b48fbc","6369310158c502a0e48e324d","null","","null","","","","","","","","./tasks/HMM-beads/Images/WhiteBeadChoiceCorrect.png","","","","","","","","","","","","","","","","","","","","","","","",""
"image-keyboard-response","206","376837","0.0-4.0-6.0-1.0-0.43","5c26ff27bbcebf0001cc8eeb","63690f60c96a0a9a64b48fbc","6369310158c502a0e48e324d","404","","f","","","","","","","","./tasks/HMM-beads/Images/NewTrialWC.png","highH","43","1","1","2","1","true","","","","","","","","","","","","","","","","",""
"image-keyboard-response","207","377141","0.0-4.0-6.0-1.0-1.43","5c26ff27bbcebf0001cc8eeb","63690f60c96a0a9a64b48fbc","6369310158c502a0e48e324d","null","","null","","","","","","","","./tasks/HMM-beads/Images/BlackBeadChoice.png","","","","","","","","","","","","","","","","","","","","","","","",""
"image-keyboard-response","208","377645","0.0-4.0-6.0-1.0-2.43","5c26ff27bbcebf0001cc8eeb","63690f60c96a0a9a64b48fbc","6369310158c502a0e48e324d","null","","null","","","","","","","","./tasks/HMM-beads/Images/BlackBeadChoiceCorrect.png","","","","","","","","","","","","","","","","","","","","","","","",""
"image-keyboard-response","209","378293","0.0-4.0-6.0-1.0-0.44","5c26ff27bbcebf0001cc8eeb","63690f60c96a0a9a64b48fbc","6369310158c502a0e48e324d","645","","j","","","","","","","","./tasks/HMM-beads/Images/NewTrialBC.png","highH","44","2","1","1","2","false","","","","","","","","","","","","","","","","",""
"image-keyboard-response","210","378597","0.0-4.0-6.0-1.0-1.44","5c26ff27bbcebf0001cc8eeb","63690f60c96a0a9a64b48fbc","6369310158c502a0e48e324d","null","","null","","","","","","","","./tasks/HMM-beads/Images/WhiteBeadChoice.png","","","","","","","","","","","","","","","","","","","","","","","",""
"image-keyboard-response","211","379101","0.0-4.0-6.0-1.0-2.44","5c26ff27bbcebf0001cc8eeb","63690f60c96a0a9a64b48fbc","6369310158c502a0e48e324d","null","","null","","","","","","","","./tasks/HMM-beads/Images/WhiteBeadChoiceWrong.png","","","","","","","","","","","","","","","","","","","","","","","",""
"image-keyboard-response","212","379507","0.0-4.0-6.0-1.0-0.45","5c26ff27bbcebf0001cc8eeb","63690f60c96a0a9a64b48fbc","6369310158c502a0e48e324d","367","","f","","","","","","","","./tasks/HMM-beads/Images/NewTrialBC.png","highH","45","1","1","1","1","true","","","","","","","","","","","","","","","","",""
"image-keyboard-response","213","379812","0.0-4.0-6.0-1.0-1.45","5c26ff27bbcebf0001cc8eeb","63690f60c96a0a9a64b48fbc","6369310158c502a0e48e324d","null","","null","","","","","","","","./tasks/HMM-beads/Images/BlackBeadChoice.png","","","","","","","","","","","","","","","","","","","","","","","",""
"image-keyboard-response","214","380316","0.0-4.0-6.0-1.0-2.45","5c26ff27bbcebf0001cc8eeb","63690f60c96a0a9a64b48fbc","6369310158c502a0e48e324d","null","","null","","","","","","","","./tasks/HMM-beads/Images/BlackBeadChoiceCorrect.png","","","","","","","","","","","","","","","","","","","","","","","",""
"image-keyboard-response","215","380799","0.0-4.0-6.0-1.0-0.46","5c26ff27bbcebf0001cc8eeb","63690f60c96a0a9a64b48fbc","6369310158c502a0e48e324d","479","","f","","","","","","","","./tasks/HMM-beads/Images/NewTrialBC.png","highH","46","2","2","1","1","false","","","","","","","","","","","","","","","","",""
"image-keyboard-response","216","381103","0.0-4.0-6.0-1.0-1.46","5c26ff27bbcebf0001cc8eeb","63690f60c96a0a9a64b48fbc","6369310158c502a0e48e324d","null","","null","","","","","","","","./tasks/HMM-beads/Images/BlackBeadChoice.png","","","","","","","","","","","","","","","","","","","","","","","",""
"image-keyboard-response","217","381607","0.0-4.0-6.0-1.0-2.46","5c26ff27bbcebf0001cc8eeb","63690f60c96a0a9a64b48fbc","6369310158c502a0e48e324d","null","","null","","","","","","","","./tasks/HMM-beads/Images/BlackBeadChoiceWrong.png","","","","","","","","","","","","","","","","","","","","","","","",""
"image-keyboard-response","218","381992","0.0-4.0-6.0-1.0-0.47","5c26ff27bbcebf0001cc8eeb","63690f60c96a0a9a64b48fbc","6369310158c502a0e48e324d","381","","f","","","","","","","","./tasks/HMM-beads/Images/NewTrialWC.png","highH","47","1","1","2","1","true","","","","","","","","","","","","","","","","",""
"image-keyboard-response","219","382295","0.0-4.0-6.0-1.0-1.47","5c26ff27bbcebf0001cc8eeb","63690f60c96a0a9a64b48fbc","6369310158c502a0e48e324d","null","","null","","","","","","","","./tasks/HMM-beads/Images/BlackBeadChoice.png","","","","","","","","","","","","","","","","","","","","","","","",""
"image-keyboard-response","220","382800","0.0-4.0-6.0-1.0-2.47","5c26ff27bbcebf0001cc8eeb","63690f60c96a0a9a64b48fbc","6369310158c502a0e48e324d","null","","null","","","","","","","","./tasks/HMM-beads/Images/BlackBeadChoiceCorrect.png","","","","","","","","","","","","","","","","","","","","","","","",""
"image-keyboard-response","221","383272","0.0-4.0-6.0-1.0-0.48","5c26ff27bbcebf0001cc8eeb","63690f60c96a0a9a64b48fbc","6369310158c502a0e48e324d","468","","f","","","","","","","","./tasks/HMM-beads/Images/NewTrialBC.png","highH","48","2","2","1","1","false","","","","","","","","","","","","","","","","",""
"image-keyboard-response","222","383575","0.0-4.0-6.0-1.0-1.48","5c26ff27bbcebf0001cc8eeb","63690f60c96a0a9a64b48fbc","6369310158c502a0e48e324d","null","","null","","","","","","","","./tasks/HMM-beads/Images/BlackBeadChoice.png","","","","","","","","","","","","","","","","","","","","","","","",""
"image-keyboard-response","223","384080","0.0-4.0-6.0-1.0-2.48","5c26ff27bbcebf0001cc8eeb","63690f60c96a0a9a64b48fbc","6369310158c502a0e48e324d","null","","null","","","","","","","","./tasks/HMM-beads/Images/BlackBeadChoiceWrong.png","","","","","","","","","","","","","","","","","","","","","","","",""
"image-keyboard-response","224","384422","0.0-4.0-6.0-1.0-0.49","5c26ff27bbcebf0001cc8eeb","63690f60c96a0a9a64b48fbc","6369310158c502a0e48e324d","337","","f","","","","","","","","./tasks/HMM-beads/Images/NewTrialWC.png","highH","49","1","1","2","1","true","","","","","","","","","","","","","","","","",""
"image-keyboard-response","225","384727","0.0-4.0-6.0-1.0-1.49","5c26ff27bbcebf0001cc8eeb","63690f60c96a0a9a64b48fbc","6369310158c502a0e48e324d","null","","null","","","","","","","","./tasks/HMM-beads/Images/BlackBeadChoice.png","","","","","","","","","","","","","","","","","","","","","","","",""
"image-keyboard-response","226","385232","0.0-4.0-6.0-1.0-2.49","5c26ff27bbcebf0001cc8eeb","63690f60c96a0a9a64b48fbc","6369310158c502a0e48e324d","null","","null","","","","","","","","./tasks/HMM-beads/Images/BlackBeadChoiceCorrect.png","","","","","","","","","","","","","","","","","","","","","","","",""
"image-keyboard-response","227","385548","0.0-4.0-6.0-1.0-0.50","5c26ff27bbcebf0001cc8eeb","63690f60c96a0a9a64b48fbc","6369310158c502a0e48e324d","311","","f","","","","","","","","./tasks/HMM-beads/Images/NewTrialBC.png","highH","50","2","1","1","1","true","","","","","","","","","","","","","","","","",""
"image-keyboard-response","228","385853","0.0-4.0-6.0-1.0-1.50","5c26ff27bbcebf0001cc8eeb","63690f60c96a0a9a64b48fbc","6369310158c502a0e48e324d","null","","null","","","","","","","","./tasks/HMM-beads/Images/BlackBeadChoice.png","","","","","","","","","","","","","","","","","","","","","","","",""
"image-keyboard-response","229","386358","0.0-4.0-6.0-1.0-2.50","5c26ff27bbcebf0001cc8eeb","63690f60c96a0a9a64b48fbc","6369310158c502a0e48e324d","null","","null","","","","","","","","./tasks/HMM-beads/Images/BlackBeadChoiceCorrect.png","","","","","","","","","","","","","","","","","","","","","","","",""
"image-keyboard-response","230","386566","0.0-4.0-6.0-1.0-0.51","5c26ff27bbcebf0001cc8eeb","63690f60c96a0a9a64b48fbc","6369310158c502a0e48e324d","204","","f","","","","","","","","./tasks/HMM-beads/Images/NewTrialBC.png","highH","51","1","1","1","1","true","","","","","","","","","","","","","","","","",""
"image-keyboard-response","231","386869","0.0-4.0-6.0-1.0-1.51","5c26ff27bbcebf0001cc8eeb","63690f60c96a0a9a64b48fbc","6369310158c502a0e48e324d","null","","null","","","","","","","","./tasks/HMM-beads/Images/BlackBeadChoice.png","","","","","","","","","","","","","","","","","","","","","","","",""
"image-keyboard-response","232","387373","0.0-4.0-6.0-1.0-2.51","5c26ff27bbcebf0001cc8eeb","63690f60c96a0a9a64b48fbc","6369310158c502a0e48e324d","null","","null","","","","","","","","./tasks/HMM-beads/Images/BlackBeadChoiceCorrect.png","","","","","","","","","","","","","","","","","","","","","","","",""
"image-keyboard-response","233","387563","0.0-4.0-6.0-1.0-0.52","5c26ff27bbcebf0001cc8eeb","63690f60c96a0a9a64b48fbc","6369310158c502a0e48e324d","185","","j","","","","","","","","./tasks/HMM-beads/Images/NewTrialBC.png","highH","52","2","2","1","2","true","","","","","","","","","","","","","","","","",""
"image-keyboard-response","234","387867","0.0-4.0-6.0-1.0-1.52","5c26ff27bbcebf0001cc8eeb","63690f60c96a0a9a64b48fbc","6369310158c502a0e48e324d","null","","null","","","","","","","","./tasks/HMM-beads/Images/WhiteBeadChoice.png","","","","","","","","","","","","","","","","","","","","","","","",""
"image-keyboard-response","235","388371","0.0-4.0-6.0-1.0-2.52","5c26ff27bbcebf0001cc8eeb","63690f60c96a0a9a64b48fbc","6369310158c502a0e48e324d","null","","null","","","","","","","","./tasks/HMM-beads/Images/WhiteBeadChoiceCorrect.png","","","","","","","","","","","","","","","","","","","","","","","",""
"image-keyboard-response","236","388707","0.0-4.0-6.0-1.0-0.53","5c26ff27bbcebf0001cc8eeb","63690f60c96a0a9a64b48fbc","6369310158c502a0e48e324d","304","","f","","","","","","","","./tasks/HMM-beads/Images/NewTrialWC.png","highH","53","1","1","2","1","true","","","","","","","","","","","","","","","","",""
"image-keyboard-response","237","389011","0.0-4.0-6.0-1.0-1.53","5c26ff27bbcebf0001cc8eeb","63690f60c96a0a9a64b48fbc","6369310158c502a0e48e324d","null","","null","","","","","","","","./tasks/HMM-beads/Images/BlackBeadChoice.png","","","","","","","","","","","","","","","","","","","","","","","",""
"image-keyboard-response","238","389516","0.0-4.0-6.0-1.0-2.53","5c26ff27bbcebf0001cc8eeb","63690f60c96a0a9a64b48fbc","6369310158c502a0e48e324d","null","","null","","","","","","","","./tasks/HMM-beads/Images/BlackBeadChoiceCorrect.png","","","","","","","","","","","","","","","","","","","","","","","",""
"image-keyboard-response","239","389835","0.0-4.0-6.0-1.0-0.54","5c26ff27bbcebf0001cc8eeb","63690f60c96a0a9a64b48fbc","6369310158c502a0e48e324d","315","","j","","","","","","","","./tasks/HMM-beads/Images/NewTrialBC.png","highH","54","2","2","1","2","true","","","","","","","","","","","","","","","","",""
"image-keyboard-response","240","390142","0.0-4.0-6.0-1.0-1.54","5c26ff27bbcebf0001cc8eeb","63690f60c96a0a9a64b48fbc","6369310158c502a0e48e324d","null","","null","","","","","","","","./tasks/HMM-beads/Images/WhiteBeadChoice.png","","","","","","","","","","","","","","","","","","","","","","","",""
"image-keyboard-response","241","390646","0.0-4.0-6.0-1.0-2.54","5c26ff27bbcebf0001cc8eeb","63690f60c96a0a9a64b48fbc","6369310158c502a0e48e324d","null","","null","","","","","","","","./tasks/HMM-beads/Images/WhiteBeadChoiceCorrect.png","","","","","","","","","","","","","","","","","","","","","","","",""
"image-keyboard-response","242","390966","0.0-4.0-6.0-1.0-0.55","5c26ff27bbcebf0001cc8eeb","63690f60c96a0a9a64b48fbc","6369310158c502a0e48e324d","316","","j","","","","","","","","./tasks/HMM-beads/Images/NewTrialWC.png","highH","55","1","1","2","2","false","","","","","","","","","","","","","","","","",""
"image-keyboard-response","243","391269","0.0-4.0-6.0-1.0-1.55","5c26ff27bbcebf0001cc8eeb","63690f60c96a0a9a64b48fbc","6369310158c502a0e48e324d","null","","null","","","","","","","","./tasks/HMM-beads/Images/WhiteBeadChoice.png","","","","","","","","","","","","","","","","","","","","","","","",""
"image-keyboard-response","244","391775","0.0-4.0-6.0-1.0-2.55","5c26ff27bbcebf0001cc8eeb","63690f60c96a0a9a64b48fbc","6369310158c502a0e48e324d","null","","null","","","","","","","","./tasks/HMM-beads/Images/WhiteBeadChoiceWrong.png","","","","","","","","","","","","","","","","","","","","","","","",""
"image-keyboard-response","245","392128","0.0-4.0-6.0-1.0-0.56","5c26ff27bbcebf0001cc8eeb","63690f60c96a0a9a64b48fbc","6369310158c502a0e48e324d","350","","j","","","","","","","","./tasks/HMM-beads/Images/NewTrialBC.png","highH","56","2","2","1","2","true","","","","","","","","","","","","","","","","",""
"image-keyboard-response","246","392431","0.0-4.0-6.0-1.0-1.56","5c26ff27bbcebf0001cc8eeb","63690f60c96a0a9a64b48fbc","6369310158c502a0e48e324d","null","","null","","","","","","","","./tasks/HMM-beads/Images/WhiteBeadChoice.png","","","","","","","","","","","","","","","","","","","","","","","",""
"image-keyboard-response","247","392936","0.0-4.0-6.0-1.0-2.56","5c26ff27bbcebf0001cc8eeb","63690f60c96a0a9a64b48fbc","6369310158c502a0e48e324d","null","","null","","","","","","","","./tasks/HMM-beads/Images/WhiteBeadChoiceCorrect.png","","","","","","","","","","","","","","","","","","","","","","","",""
"image-keyboard-response","248","393212","0.0-4.0-6.0-1.0-0.57","5c26ff27bbcebf0001cc8eeb","63690f60c96a0a9a64b48fbc","6369310158c502a0e48e324d","271","","j","","","","","","","","./tasks/HMM-beads/Images/NewTrialWC.png","highH","57","1","1","2","2","false","","","","","","","","","","","","","","","","",""
"image-keyboard-response","249","393555","0.0-4.0-6.0-1.0-1.57","5c26ff27bbcebf0001cc8eeb","63690f60c96a0a9a64b48fbc","6369310158c502a0e48e324d","null","","null","","","","","","","","./tasks/HMM-beads/Images/WhiteBeadChoice.png","","","","","","","","","","","","","","","","","","","","","","","",""
"image-keyboard-response","250","394059","0.0-4.0-6.0-1.0-2.57","5c26ff27bbcebf0001cc8eeb","63690f60c96a0a9a64b48fbc","6369310158c502a0e48e324d","null","","null","","","","","","","","./tasks/HMM-beads/Images/WhiteBeadChoiceWrong.png","","","","","","","","","","","","","","","","","","","","","","","",""
"image-keyboard-response","251","394365","0.0-4.0-6.0-1.0-0.58","5c26ff27bbcebf0001cc8eeb","63690f60c96a0a9a64b48fbc","6369310158c502a0e48e324d","303","","j","","","","","","","","./tasks/HMM-beads/Images/NewTrialBC.png","highH","58","2","2","1","2","true","","","","","","","","","","","","","","","","",""
"image-keyboard-response","252","394669","0.0-4.0-6.0-1.0-1.58","5c26ff27bbcebf0001cc8eeb","63690f60c96a0a9a64b48fbc","6369310158c502a0e48e324d","null","","null","","","","","","","","./tasks/HMM-beads/Images/WhiteBeadChoice.png","","","","","","","","","","","","","","","","","","","","","","","",""
"image-keyboard-response","253","395172","0.0-4.0-6.0-1.0-2.58","5c26ff27bbcebf0001cc8eeb","63690f60c96a0a9a64b48fbc","6369310158c502a0e48e324d","null","","null","","","","","","","","./tasks/HMM-beads/Images/WhiteBeadChoiceCorrect.png","","","","","","","","","","","","","","","","","","","","","","","",""
"image-keyboard-response","254","395449","0.0-4.0-6.0-1.0-0.59","5c26ff27bbcebf0001cc8eeb","63690f60c96a0a9a64b48fbc","6369310158c502a0e48e324d","273","","j","","","","","","","","./tasks/HMM-beads/Images/NewTrialWC.png","highH","59","1","1","2","2","false","","","","","","","","","","","","","","","","",""
"image-keyboard-response","255","395752","0.0-4.0-6.0-1.0-1.59","5c26ff27bbcebf0001cc8eeb","63690f60c96a0a9a64b48fbc","6369310158c502a0e48e324d","null","","null","","","","","","","","./tasks/HMM-beads/Images/WhiteBeadChoice.png","","","","","","","","","","","","","","","","","","","","","","","",""
"image-keyboard-response","256","396256","0.0-4.0-6.0-1.0-2.59","5c26ff27bbcebf0001cc8eeb","63690f60c96a0a9a64b48fbc","6369310158c502a0e48e324d","null","","null","","","","","","","","./tasks/HMM-beads/Images/WhiteBeadChoiceWrong.png","","","","","","","","","","","","","","","","","","","","","","","",""
"image-keyboard-response","257","396570","0.0-4.0-6.0-1.0-0.60","5c26ff27bbcebf0001cc8eeb","63690f60c96a0a9a64b48fbc","6369310158c502a0e48e324d","311","","j","","","","","","","","./tasks/HMM-beads/Images/NewTrialBC.png","highH","60","2","2","1","2","true","","","","","","","","","","","","","","","","",""
"image-keyboard-response","258","396874","0.0-4.0-6.0-1.0-1.60","5c26ff27bbcebf0001cc8eeb","63690f60c96a0a9a64b48fbc","6369310158c502a0e48e324d","null","","null","","","","","","","","./tasks/HMM-beads/Images/WhiteBeadChoice.png","","","","","","","","","","","","","","","","","","","","","","","",""
"image-keyboard-response","259","397380","0.0-4.0-6.0-1.0-2.60","5c26ff27bbcebf0001cc8eeb","63690f60c96a0a9a64b48fbc","6369310158c502a0e48e324d","null","","null","","","","","","","","./tasks/HMM-beads/Images/WhiteBeadChoiceCorrect.png","","","","","","","","","","","","","","","","","","","","","","","",""
"image-keyboard-response","260","397697","0.0-4.0-6.0-1.0-0.61","5c26ff27bbcebf0001cc8eeb","63690f60c96a0a9a64b48fbc","6369310158c502a0e48e324d","313","","j","","","","","","","","./tasks/HMM-beads/Images/NewTrialWC.png","highH","61","1","2","2","2","true","","","","","","","","","","","","","","","","",""
"image-keyboard-response","261","398000","0.0-4.0-6.0-1.0-1.61","5c26ff27bbcebf0001cc8eeb","63690f60c96a0a9a64b48fbc","6369310158c502a0e48e324d","null","","null","","","","","","","","./tasks/HMM-beads/Images/WhiteBeadChoice.png","","","","","","","","","","","","","","","","","","","","","","","",""
"image-keyboard-response","262","398529","0.0-4.0-6.0-1.0-2.61","5c26ff27bbcebf0001cc8eeb","63690f60c96a0a9a64b48fbc","6369310158c502a0e48e324d","null","","null","","","","","","","","./tasks/HMM-beads/Images/WhiteBeadChoiceCorrect.png","","","","","","","","","","","","","","","","","","","","","","","",""
"image-keyboard-response","263","398808","0.0-4.0-6.0-1.0-0.62","5c26ff27bbcebf0001cc8eeb","63690f60c96a0a9a64b48fbc","6369310158c502a0e48e324d","275","","j","","","","","","","","./tasks/HMM-beads/Images/NewTrialWC.png","highH","62","2","2","2","2","true","","","","","","","","","","","","","","","","",""
"image-keyboard-response","264","399113","0.0-4.0-6.0-1.0-1.62","5c26ff27bbcebf0001cc8eeb","63690f60c96a0a9a64b48fbc","6369310158c502a0e48e324d","null","","null","","","","","","","","./tasks/HMM-beads/Images/WhiteBeadChoice.png","","","","","","","","","","","","","","","","","","","","","","","",""
"image-keyboard-response","265","399617","0.0-4.0-6.0-1.0-2.62","5c26ff27bbcebf0001cc8eeb","63690f60c96a0a9a64b48fbc","6369310158c502a0e48e324d","null","","null","","","","","","","","./tasks/HMM-beads/Images/WhiteBeadChoiceCorrect.png","","","","","","","","","","","","","","","","","","","","","","","",""
"image-keyboard-response","266","399911","0.0-4.0-6.0-1.0-0.63","5c26ff27bbcebf0001cc8eeb","63690f60c96a0a9a64b48fbc","6369310158c502a0e48e324d","290","","j","","","","","","","","./tasks/HMM-beads/Images/NewTrialWC.png","highH","63","1","1","2","2","false","","","","","","","","","","","","","","","","",""
"image-keyboard-response","267","400214","0.0-4.0-6.0-1.0-1.63","5c26ff27bbcebf0001cc8eeb","63690f60c96a0a9a64b48fbc","6369310158c502a0e48e324d","null","","null","","","","","","","","./tasks/HMM-beads/Images/WhiteBeadChoice.png","","","","","","","","","","","","","","","","","","","","","","","",""
"image-keyboard-response","268","400718","0.0-4.0-6.0-1.0-2.63","5c26ff27bbcebf0001cc8eeb","63690f60c96a0a9a64b48fbc","6369310158c502a0e48e324d","null","","null","","","","","","","","./tasks/HMM-beads/Images/WhiteBeadChoiceWrong.png","","","","","","","","","","","","","","","","","","","","","","","",""
"image-keyboard-response","269","401107","0.0-4.0-6.0-1.0-0.64","5c26ff27bbcebf0001cc8eeb","63690f60c96a0a9a64b48fbc","6369310158c502a0e48e324d","384","","f","","","","","","","","./tasks/HMM-beads/Images/NewTrialBC.png","highH","64","2","2","1","1","false","","","","","","","","","","","","","","","","",""
"image-keyboard-response","270","401412","0.0-4.0-6.0-1.0-1.64","5c26ff27bbcebf0001cc8eeb","63690f60c96a0a9a64b48fbc","6369310158c502a0e48e324d","null","","null","","","","","","","","./tasks/HMM-beads/Images/BlackBeadChoice.png","","","","","","","","","","","","","","","","","","","","","","","",""
"image-keyboard-response","271","401917","0.0-4.0-6.0-1.0-2.64","5c26ff27bbcebf0001cc8eeb","63690f60c96a0a9a64b48fbc","6369310158c502a0e48e324d","null","","null","","","","","","","","./tasks/HMM-beads/Images/BlackBeadChoiceWrong.png","","","","","","","","","","","","","","","","","","","","","","","",""
"image-keyboard-response","272","402399","0.0-4.0-6.0-1.0-0.65","5c26ff27bbcebf0001cc8eeb","63690f60c96a0a9a64b48fbc","6369310158c502a0e48e324d","478","","f","","","","","","","","./tasks/HMM-beads/Images/NewTrialWC.png","highH","65","1","1","2","1","true","","","","","","","","","","","","","","","","",""
"image-keyboard-response","273","402704","0.0-4.0-6.0-1.0-1.65","5c26ff27bbcebf0001cc8eeb","63690f60c96a0a9a64b48fbc","6369310158c502a0e48e324d","null","","null","","","","","","","","./tasks/HMM-beads/Images/BlackBeadChoice.png","","","","","","","","","","","","","","","","","","","","","","","",""
"image-keyboard-response","274","403208","0.0-4.0-6.0-1.0-2.65","5c26ff27bbcebf0001cc8eeb","63690f60c96a0a9a64b48fbc","6369310158c502a0e48e324d","null","","null","","","","","","","","./tasks/HMM-beads/Images/BlackBeadChoiceCorrect.png","","","","","","","","","","","","","","","","","","","","","","","",""
"image-keyboard-response","275","403570","0.0-4.0-6.0-1.0-0.66","5c26ff27bbcebf0001cc8eeb","63690f60c96a0a9a64b48fbc","6369310158c502a0e48e324d","359","","f","","","","","","","","./tasks/HMM-beads/Images/NewTrialBC.png","highH","66","2","2","1","1","false","","","","","","","","","","","","","","","","",""
"image-keyboard-response","276","403874","0.0-4.0-6.0-1.0-1.66","5c26ff27bbcebf0001cc8eeb","63690f60c96a0a9a64b48fbc","6369310158c502a0e48e324d","null","","null","","","","","","","","./tasks/HMM-beads/Images/BlackBeadChoice.png","","","","","","","","","","","","","","","","","","","","","","","",""
"image-keyboard-response","277","404378","0.0-4.0-6.0-1.0-2.66","5c26ff27bbcebf0001cc8eeb","63690f60c96a0a9a64b48fbc","6369310158c502a0e48e324d","null","","null","","","","","","","","./tasks/HMM-beads/Images/BlackBeadChoiceWrong.png","","","","","","","","","","","","","","","","","","","","","","","",""
"image-keyboard-response","278","404590","0.0-4.0-6.0-1.0-0.67","5c26ff27bbcebf0001cc8eeb","63690f60c96a0a9a64b48fbc","6369310158c502a0e48e324d","208","","f","","","","","","","","./tasks/HMM-beads/Images/NewTrialWC.png","highH","67","1","1","2","1","true","","","","","","","","","","","","","","","","",""
"image-keyboard-response","279","404894","0.0-4.0-6.0-1.0-1.67","5c26ff27bbcebf0001cc8eeb","63690f60c96a0a9a64b48fbc","6369310158c502a0e48e324d","null","","null","","","","","","","","./tasks/HMM-beads/Images/BlackBeadChoice.png","","","","","","","","","","","","","","","","","","","","","","","",""
"image-keyboard-response","280","405398","0.0-4.0-6.0-1.0-2.67","5c26ff27bbcebf0001cc8eeb","63690f60c96a0a9a64b48fbc","6369310158c502a0e48e324d","null","","null","","","","","","","","./tasks/HMM-beads/Images/BlackBeadChoiceCorrect.png","","","","","","","","","","","","","","","","","","","","","","","",""
"image-keyboard-response","281","405647","0.0-4.0-6.0-1.0-0.68","5c26ff27bbcebf0001cc8eeb","63690f60c96a0a9a64b48fbc","6369310158c502a0e48e324d","245","","f","","","","","","","","./tasks/HMM-beads/Images/NewTrialBC.png","highH","68","2","2","1","1","false","","","","","","","","","","","","","","","","",""
"image-keyboard-response","282","405951","0.0-4.0-6.0-1.0-1.68","5c26ff27bbcebf0001cc8eeb","63690f60c96a0a9a64b48fbc","6369310158c502a0e48e324d","null","","null","","","","","","","","./tasks/HMM-beads/Images/BlackBeadChoice.png","","","","","","","","","","","","","","","","","","","","","","","",""
"image-keyboard-response","283","406455","0.0-4.0-6.0-1.0-2.68","5c26ff27bbcebf0001cc8eeb","63690f60c96a0a9a64b48fbc","6369310158c502a0e48e324d","null","","null","","","","","","","","./tasks/HMM-beads/Images/BlackBeadChoiceWrong.png","","","","","","","","","","","","","","","","","","","","","","","",""
"image-keyboard-response","284","406732","0.0-4.0-6.0-1.0-0.69","5c26ff27bbcebf0001cc8eeb","63690f60c96a0a9a64b48fbc","6369310158c502a0e48e324d","242","","f","","","","","","","","./tasks/HMM-beads/Images/NewTrialWC.png","highH","69","1","2","2","1","false","","","","","","","","","","","","","","","","",""
"image-keyboard-response","285","407036","0.0-4.0-6.0-1.0-1.69","5c26ff27bbcebf0001cc8eeb","63690f60c96a0a9a64b48fbc","6369310158c502a0e48e324d","null","","null","","","","","","","","./tasks/HMM-beads/Images/BlackBeadChoice.png","","","","","","","","","","","","","","","","","","","","","","","",""
"image-keyboard-response","286","407541","0.0-4.0-6.0-1.0-2.69","5c26ff27bbcebf0001cc8eeb","63690f60c96a0a9a64b48fbc","6369310158c502a0e48e324d","null","","null","","","","","","","","./tasks/HMM-beads/Images/BlackBeadChoiceWrong.png","","","","","","","","","","","","","","","","","","","","","","","",""
"image-keyboard-response","287","407789","0.0-4.0-6.0-1.0-0.70","5c26ff27bbcebf0001cc8eeb","63690f60c96a0a9a64b48fbc","6369310158c502a0e48e324d","244","","j","","","","","","","","./tasks/HMM-beads/Images/NewTrialWC.png","highH","70","2","2","2","2","true","","","","","","","","","","","","","","","","",""
"image-keyboard-response","288","408093","0.0-4.0-6.0-1.0-1.70","5c26ff27bbcebf0001cc8eeb","63690f60c96a0a9a64b48fbc","6369310158c502a0e48e324d","null","","null","","","","","","","","./tasks/HMM-beads/Images/WhiteBeadChoice.png","","","","","","","","","","","","","","","","","","","","","","","",""
"image-keyboard-response","289","408600","0.0-4.0-6.0-1.0-2.70","5c26ff27bbcebf0001cc8eeb","63690f60c96a0a9a64b48fbc","6369310158c502a0e48e324d","null","","null","","","","","","","","./tasks/HMM-beads/Images/WhiteBeadChoiceCorrect.png","","","","","","","","","","","","","","","","","","","","","","","",""
"image-keyboard-response","290","408748","0.0-4.0-6.0-1.0-0.71","5c26ff27bbcebf0001cc8eeb","63690f60c96a0a9a64b48fbc","6369310158c502a0e48e324d","144","","j","","","","","","","","./tasks/HMM-beads/Images/NewTrialWC.png","highH","71","1","2","2","2","true","","","","","","","","","","","","","","","","",""
"image-keyboard-response","291","409051","0.0-4.0-6.0-1.0-1.71","5c26ff27bbcebf0001cc8eeb","63690f60c96a0a9a64b48fbc","6369310158c502a0e48e324d","null","","null","","","","","","","","./tasks/HMM-beads/Images/WhiteBeadChoice.png","","","","","","","","","","","","","","","","","","","","","","","",""
"image-keyboard-response","292","409555","0.0-4.0-6.0-1.0-2.71","5c26ff27bbcebf0001cc8eeb","63690f60c96a0a9a64b48fbc","6369310158c502a0e48e324d","null","","null","","","","","","","","./tasks/HMM-beads/Images/WhiteBeadChoiceCorrect.png","","","","","","","","","","","","","","","","","","","","","","","",""
"image-keyboard-response","293","409796","0.0-4.0-6.0-1.0-0.72","5c26ff27bbcebf0001cc8eeb","63690f60c96a0a9a64b48fbc","6369310158c502a0e48e324d","236","","f","","","","","","","","./tasks/HMM-beads/Images/NewTrialWC.png","highH","72","2","2","2","1","false","","","","","","","","","","","","","","","","",""
"image-keyboard-response","294","410099","0.0-4.0-6.0-1.0-1.72","5c26ff27bbcebf0001cc8eeb","63690f60c96a0a9a64b48fbc","6369310158c502a0e48e324d","null","","null","","","","","","","","./tasks/HMM-beads/Images/BlackBeadChoice.png","","","","","","","","","","","","","","","","","","","","","","","",""
"image-keyboard-response","295","410604","0.0-4.0-6.0-1.0-2.72","5c26ff27bbcebf0001cc8eeb","63690f60c96a0a9a64b48fbc","6369310158c502a0e48e324d","null","","null","","","","","","","","./tasks/HMM-beads/Images/BlackBeadChoiceWrong.png","","","","","","","","","","","","","","","","","","","","","","","",""
"image-keyboard-response","296","410836","0.0-4.0-6.0-1.0-0.73","5c26ff27bbcebf0001cc8eeb","63690f60c96a0a9a64b48fbc","6369310158c502a0e48e324d","228","","f","","","","","","","","./tasks/HMM-beads/Images/NewTrialWC.png","highH","73","1","1","2","1","true","","","","","","","","","","","","","","","","",""
"image-keyboard-response","297","411172","0.0-4.0-6.0-1.0-1.73","5c26ff27bbcebf0001cc8eeb","63690f60c96a0a9a64b48fbc","6369310158c502a0e48e324d","null","","null","","","","","","","","./tasks/HMM-beads/Images/BlackBeadChoice.png","","","","","","","","","","","","","","","","","","","","","","","",""
"image-keyboard-response","298","411677","0.0-4.0-6.0-1.0-2.73","5c26ff27bbcebf0001cc8eeb","63690f60c96a0a9a64b48fbc","6369310158c502a0e48e324d","null","","null","","","","","","","","./tasks/HMM-beads/Images/BlackBeadChoiceCorrect.png","","","","","","","","","","","","","","","","","","","","","","","",""
"image-keyboard-response","299","412018","0.0-4.0-6.0-1.0-0.74","5c26ff27bbcebf0001cc8eeb","63690f60c96a0a9a64b48fbc","6369310158c502a0e48e324d","337","","j","","","","","","","","./tasks/HMM-beads/Images/NewTrialBC.png","highH","74","2","2","1","2","true","","","","","","","","","","","","","","","","",""
"image-keyboard-response","300","412322","0.0-4.0-6.0-1.0-1.74","5c26ff27bbcebf0001cc8eeb","63690f60c96a0a9a64b48fbc","6369310158c502a0e48e324d","null","","null","","","","","","","","./tasks/HMM-beads/Images/WhiteBeadChoice.png","","","","","","","","","","","","","","","","","","","","","","","",""
"image-keyboard-response","301","412827","0.0-4.0-6.0-1.0-2.74","5c26ff27bbcebf0001cc8eeb","63690f60c96a0a9a64b48fbc","6369310158c502a0e48e324d","null","","null","","","","","","","","./tasks/HMM-beads/Images/WhiteBeadChoiceCorrect.png","","","","","","","","","","","","","","","","","","","","","","","",""
"image-keyboard-response","302","413209","0.0-4.0-6.0-1.0-0.75","5c26ff27bbcebf0001cc8eeb","63690f60c96a0a9a64b48fbc","6369310158c502a0e48e324d","378","","j","","","","","","","","./tasks/HMM-beads/Images/NewTrialWC.png","highH","75","1","1","2","2","false","","","","","","","","","","","","","","","","",""
"image-keyboard-response","303","413513","0.0-4.0-6.0-1.0-1.75","5c26ff27bbcebf0001cc8eeb","63690f60c96a0a9a64b48fbc","6369310158c502a0e48e324d","null","","null","","","","","","","","./tasks/HMM-beads/Images/WhiteBeadChoice.png","","","","","","","","","","","","","","","","","","","","","","","",""
"image-keyboard-response","304","414017","0.0-4.0-6.0-1.0-2.75","5c26ff27bbcebf0001cc8eeb","63690f60c96a0a9a64b48fbc","6369310158c502a0e48e324d","null","","null","","","","","","","","./tasks/HMM-beads/Images/WhiteBeadChoiceWrong.png","","","","","","","","","","","","","","","","","","","","","","","",""
"image-keyboard-response","305","414446","0.0-4.0-6.0-1.0-0.76","5c26ff27bbcebf0001cc8eeb","63690f60c96a0a9a64b48fbc","6369310158c502a0e48e324d","425","","j","","","","","","","","./tasks/HMM-beads/Images/NewTrialBC.png","highH","76","2","2","1","2","true","","","","","","","","","","","","","","","","",""
"image-keyboard-response","306","414750","0.0-4.0-6.0-1.0-1.76","5c26ff27bbcebf0001cc8eeb","63690f60c96a0a9a64b48fbc","6369310158c502a0e48e324d","null","","null","","","","","","","","./tasks/HMM-beads/Images/WhiteBeadChoice.png","","","","","","","","","","","","","","","","","","","","","","","",""
"image-keyboard-response","307","415254","0.0-4.0-6.0-1.0-2.76","5c26ff27bbcebf0001cc8eeb","63690f60c96a0a9a64b48fbc","6369310158c502a0e48e324d","null","","null","","","","","","","","./tasks/HMM-beads/Images/WhiteBeadChoiceCorrect.png","","","","","","","","","","","","","","","","","","","","","","","",""
"image-keyboard-response","308","415616","0.0-4.0-6.0-1.0-0.77","5c26ff27bbcebf0001cc8eeb","63690f60c96a0a9a64b48fbc","6369310158c502a0e48e324d","357","","f","","","","","","","","./tasks/HMM-beads/Images/NewTrialWC.png","highH","77","1","1","2","1","true","","","","","","","","","","","","","","","","",""
"image-keyboard-response","309","415941","0.0-4.0-6.0-1.0-1.77","5c26ff27bbcebf0001cc8eeb","63690f60c96a0a9a64b48fbc","6369310158c502a0e48e324d","null","","null","","","","","","","","./tasks/HMM-beads/Images/BlackBeadChoice.png","","","","","","","","","","","","","","","","","","","","","","","",""
"image-keyboard-response","310","416445","0.0-4.0-6.0-1.0-2.77","5c26ff27bbcebf0001cc8eeb","63690f60c96a0a9a64b48fbc","6369310158c502a0e48e324d","null","","null","","","","","","","","./tasks/HMM-beads/Images/BlackBeadChoiceCorrect.png","","","","","","","","","","","","","","","","","","","","","","","",""
"image-keyboard-response","311","417182","0.0-4.0-6.0-1.0-0.78","5c26ff27bbcebf0001cc8eeb","63690f60c96a0a9a64b48fbc","6369310158c502a0e48e324d","734","","j","","","","","","","","./tasks/HMM-beads/Images/NewTrialBC.png","highH","78","2","2","1","2","true","","","","","","","","","","","","","","","","",""
"image-keyboard-response","312","417485","0.0-4.0-6.0-1.0-1.78","5c26ff27bbcebf0001cc8eeb","63690f60c96a0a9a64b48fbc","6369310158c502a0e48e324d","null","","null","","","","","","","","./tasks/HMM-beads/Images/WhiteBeadChoice.png","","","","","","","","","","","","","","","","","","","","","","","",""
"image-keyboard-response","313","417991","0.0-4.0-6.0-1.0-2.78","5c26ff27bbcebf0001cc8eeb","63690f60c96a0a9a64b48fbc","6369310158c502a0e48e324d","null","","null","","","","","","","","./tasks/HMM-beads/Images/WhiteBeadChoiceCorrect.png","","","","","","","","","","","","","","","","","","","","","","","",""
"image-keyboard-response","314","418267","0.0-4.0-6.0-1.0-0.79","5c26ff27bbcebf0001cc8eeb","63690f60c96a0a9a64b48fbc","6369310158c502a0e48e324d","272","","f","","","","","","","","./tasks/HMM-beads/Images/NewTrialWC.png","highH","79","1","1","2","1","true","","","","","","","","","","","","","","","","",""
"image-keyboard-response","315","418570","0.0-4.0-6.0-1.0-1.79","5c26ff27bbcebf0001cc8eeb","63690f60c96a0a9a64b48fbc","6369310158c502a0e48e324d","null","","null","","","","","","","","./tasks/HMM-beads/Images/BlackBeadChoice.png","","","","","","","","","","","","","","","","","","","","","","","",""
"image-keyboard-response","316","419075","0.0-4.0-6.0-1.0-2.79","5c26ff27bbcebf0001cc8eeb","63690f60c96a0a9a64b48fbc","6369310158c502a0e48e324d","null","","null","","","","","","","","./tasks/HMM-beads/Images/BlackBeadChoiceCorrect.png","","","","","","","","","","","","","","","","","","","","","","","",""
"image-keyboard-response","317","419819","0.0-4.0-6.0-1.0-0.80","5c26ff27bbcebf0001cc8eeb","63690f60c96a0a9a64b48fbc","6369310158c502a0e48e324d","740","","f","","","","","","","","./tasks/HMM-beads/Images/NewTrialBC.png","highH","80","2","1","1","1","true","","","","","","","","","","","","","","","","",""
"image-keyboard-response","318","420122","0.0-4.0-6.0-1.0-1.80","5c26ff27bbcebf0001cc8eeb","63690f60c96a0a9a64b48fbc","6369310158c502a0e48e324d","null","","null","","","","","","","","./tasks/HMM-beads/Images/BlackBeadChoice.png","","","","","","","","","","","","","","","","","","","","","","","",""
"image-keyboard-response","319","420627","0.0-4.0-6.0-1.0-2.80","5c26ff27bbcebf0001cc8eeb","63690f60c96a0a9a64b48fbc","6369310158c502a0e48e324d","null","","null","","","","","","","","./tasks/HMM-beads/Images/BlackBeadChoiceCorrect.png","","","","","","","","","","","","","","","","","","","","","","","",""
"image-keyboard-response","320","421122","0.0-4.0-6.0-1.0-0.81","5c26ff27bbcebf0001cc8eeb","63690f60c96a0a9a64b48fbc","6369310158c502a0e48e324d","491","","f","","","","","","","","./tasks/HMM-beads/Images/NewTrialBC.png","highH","81","1","1","1","1","true","","","","","","","","","","","","","","","","",""
"image-keyboard-response","321","421451","0.0-4.0-6.0-1.0-1.81","5c26ff27bbcebf0001cc8eeb","63690f60c96a0a9a64b48fbc","6369310158c502a0e48e324d","null","","null","","","","","","","","./tasks/HMM-beads/Images/BlackBeadChoice.png","","","","","","","","","","","","","","","","","","","","","","","",""
